"Time (s)","Acceleration x (m/s^2)","Acceleration y (m/s^2)","Acceleration z (m/s^2)"
1.168522100E-2,-2.367099762E0,2.937488794E0,4.983053207E0
2.835115900E-2,-1.949851394E0,3.029612541E0,6.032305717E0
4.501709600E-2,-8.371888399E-1,2.930609465E0,6.517749786E0
6.168303400E-2,-5.204389244E-2,2.394916296E0,6.442076683E0
7.834897100E-2,-6.598208547E-1,2.055733681E0,5.871687889E0
9.501490900E-2,-1.478465319E0,2.120639086E0,4.567898273E0
1.116808460E-1,-1.712363720E0,3.042773008E0,3.130709410E0
1.283467840E-1,-1.945065737E0,3.993920088E0,2.347957134E0
1.450127210E-1,-3.093620539E0,4.475176334E0,3.136691332E0
1.616786590E-1,-4.197608948E0,5.569892883E0,8.587242126E0
1.783445960E-1,-5.077270508E0,5.817250729E0,1.450289822E1
1.950105340E-1,-2.409871578E0,6.151947021E0,1.244148159E1
2.116764710E-1,-2.787937403E0,7.501798153E0,1.054606628E1
2.283424090E-1,-1.098006487E0,5.071288586E0,1.041745281E1
2.450083460E-1,-2.371885538E0,7.016653538E0,1.151336479E1
2.616742840E-1,-4.089632988E0,9.790233612E0,1.233320618E1
2.783402210E-1,-2.770888567E0,6.023033619E0,1.698455429E1
2.950061590E-1,-1.752144337E0,2.480758905E0,1.635255051E1
3.116720960E-1,-1.692323804E0,2.038684845E0,1.894337845E1
3.283380340E-1,-1.558026671E0,1.549950838E0,1.836640930E1
3.450039710E-1,1.258923769E0,1.048953652E0,1.594277954E1
3.616699090E-1,1.874477386E0,-1.183250785E0,1.393669605E1
3.783358460E-1,2.280958176E0,-4.599304199E0,1.271516037E1
3.950017840E-1,1.766202211E0,-3.550350666E0,1.122951698E1
4.116677210E-1,3.078366280E0,-2.949453115E0,1.416670609E1
4.283336590E-1,6.293422699E0,-6.679863453E0,1.555603886E1
4.449995960E-1,7.638787270E0,-9.847362518E0,1.149990559E1
4.616655340E-1,8.928817749E0,-9.855138779E0,8.957531929E0
4.783314710E-1,3.414856911E0,5.324030519E-1,9.284450531E0
4.949974090E-1,2.318047047E0,2.457428932E0,9.686744690E0
5.116633460E-1,8.240283132E-1,4.233800411E0,1.183968639E1
5.283292840E-1,-8.494520187E-1,5.565705299E0,1.224108219E1
5.449952210E-1,-3.962514400E0,7.187740326E0,1.005972576E1
5.616611590E-1,-4.581058979E0,8.373981476E0,1.027627563E1
5.783270960E-1,-4.485345840E0,8.547461510E0,1.280100250E1
5.949930340E-1,-6.002395630E0,7.026822567E0,1.319521999E1
6.116589710E-1,-7.179664135E0,6.625127792E0,1.180439186E1
6.283249090E-1,-6.155835152E0,8.713164330E0,7.805088520E0
6.449908460E-1,-6.073283195E0,8.979366302E0,6.857231617E0
6.616567840E-1,-6.177370548E0,8.405686378E0,6.708577156E0
6.783227210E-1,-7.979166031E0,6.498009205E0,9.396913528E0
6.949886590E-1,-9.071190834E0,4.187738895E0,9.272786140E0
7.116545960E-1,-9.897013664E0,4.532903194E0,9.570991516E0
7.283205340E-1,-9.357132912E0,5.001597404E0,1.216092300E1
7.449864710E-1,-8.071290016E0,1.619940877E0,1.885185242E1
7.616524090E-1,-4.292723656E0,-1.846361756E0,2.401975250E1
7.783183460E-1,2.219342947E0,-2.618645191E0,2.291995049E1
7.949842840E-1,4.860121727E0,-3.293122053E-1,2.073799515E1
8.116502210E-1,5.215157032E0,-2.008475542E0,2.377119827E1
8.283161590E-1,5.852245808E0,-6.623631954E0,2.520509720E1
8.449820960E-1,6.476473808E0,-7.261020184E0,2.235853386E1
8.616480340E-1,5.541179180E0,-7.315756321E0,1.644168282E1
8.783139710E-1,3.284149170E0,-6.351448536E0,7.184450150E0
8.949799090E-1,2.194218397E0,-3.558127165E0,2.416152716E0
9.116458460E-1,1.807478428E0,-1.455733418E0,1.657029629E0
9.283117840E-1,1.413560033E0,-2.431406975E0,2.336890459E0
9.449777210E-1,9.909276962E-1,-3.748356581E0,2.775375128E0
9.616436590E-1,1.932802439E0,-2.417947292E0,1.524527073E0
9.783095960E-1,1.396511078E0,-7.634001732E0,-1.228714466E0
9.949755340E-1,1.781456470E0,-4.845765114E0,-4.039981842E0
1.011641471E0,3.438785315E0,-2.933899641E0,-4.613661289E0
1.028307409E0,3.844368696E0,-2.856431961E0,-4.063910007E0
1.044973346E0,4.237987995E0,-2.711965322E0,-1.486541033E-1
1.061639284E0,4.013959885E0,-4.464707851E0,3.401397467E0
1.078305221E0,5.829514027E0,-5.866901875E0,3.933202267E0
1.094971159E0,1.017846966E1,-4.395316124E0,4.834997177E0
1.111637096E0,1.426630783E1,-8.781659007E-1,1.078774166E1
1.128303034E0,1.508525085E1,-4.609174728E-1,1.161894894E1
1.144968971E0,1.604537201E1,-1.559223056E0,2.037907219E1
1.161634909E0,1.533440399E1,-3.812663794E0,2.900729179E1
1.178300846E0,1.094895840E1,-3.930809498E0,3.129931641E1
1.194966784E0,6.842874527E0,-1.327717423E0,2.686272430E1
1.211632721E0,4.058526516E0,1.375573874E0,2.041765594E1
1.228298659E0,1.804487348E0,3.323032379E0,1.465095425E1
1.244964596E0,9.152546525E-2,4.511367798E0,1.028943634E1
1.261630534E0,-1.704586983E0,4.702793598E0,8.185248375E0
1.278296471E0,-3.590131283E0,4.640281200E0,7.421040535E0
1.294962409E0,-4.057330132E0,4.610969067E0,9.192327499E0
1.311628346E0,-2.677269459E0,5.098805904E0,8.652746201E0
1.328294284E0,-1.921137452E0,5.877669811E0,5.543571949E0
1.344960221E0,-3.119343519E0,6.577271461E0,2.130509377E0
1.361626159E0,-4.832903385E0,6.648756981E0,1.338186026E0
1.378292096E0,-5.598008633E0,6.385845661E0,4.101597309E0
1.394958034E0,-5.713761330E0,5.601597786E0,6.830910206E0
1.411623971E0,-6.021538258E0,5.051547527E0,8.647063255E0
1.428289909E0,-6.471089840E0,3.472284794E0,9.655039787E0
1.444955846E0,-7.070491791E0,2.090728760E0,9.239286423E0
1.461621784E0,-8.258229256E0,9.942178130E-1,9.597910881E0
1.478287721E0,-9.709177017E0,8.823533356E-2,1.176311588E1
1.494953659E0,-9.365806580E0,-5.641079545E-1,1.475234985E1
1.511619596E0,-5.545067310E0,-1.232901812E0,1.532872105E1
1.528285534E0,3.385843933E-1,-2.850449979E-1,1.955653954E1
1.544951471E0,5.276473045E0,-1.176371455E0,2.543091965E1
1.561617409E0,7.400701523E0,-3.408575773E0,2.759373093E1
1.578283346E0,9.758230209E0,-6.987939358E0,2.916761017E1
1.594949284E0,1.374556923E1,-7.780561924E0,2.596242523E1
1.611615221E0,1.544208050E1,-6.631708145E0,1.953410721E1
1.628281159E0,1.426660633E1,-4.401298046E0,1.206132126E1
1.644947096E0,1.356610775E1,-3.052942514E0,8.472985268E0
1.661613034E0,1.169222832E1,-2.656332254E0,7.775177956E0
1.678278971E0,8.038987160E0,-2.068894386E0,7.418348312E0
1.694944909E0,4.921437740E0,-9.442676306E-1,6.242874146E0
1.711610846E0,3.557528973E0,1.666002721E-1,4.923531532E0
1.728276784E0,2.935096025E0,8.736793399E-1,3.390928745E0
1.744942721E0,2.974278450E0,1.045364380E0,2.079961061E0
1.761608659E0,3.356232882E0,1.276870012E0,2.232802629E0
1.778274596E0,3.819842339E0,1.273280740E0,3.171088219E0
1.794940534E0,3.447758436E0,8.377870321E-1,3.939184189E0
1.811606471E0,2.528914452E0,4.671986103E-1,4.197309971E0
1.828272409E0,9.927222729E-1,5.204389095E-1,4.119543076E0
1.844938346E0,-1.223330572E-1,5.123631358E-1,4.424628258E0
1.861604284E0,-1.740778536E-1,5.706881881E-1,5.434399128E0
1.878270221E0,6.445665956E-1,7.636095285E-1,6.416952133E0
1.894936159E0,3.013760090E0,4.740779996E-1,7.760222912E0
1.911602096E0,7.063612461E0,-8.793623447E-1,8.190631866E0
1.928268034E0,8.474480629E0,-6.481558084E-1,8.258528709E0
1.944933971E0,6.564110756E0,1.058524966E0,9.748957634E0
1.961599909E0,5.114060402E0,9.574281573E-1,1.416551018E1
1.978265846E0,4.724927425E0,9.652048349E-1,1.944407654E1
1.994931784E0,5.974878311E0,1.969592094E0,2.140140533E1
2.011597721E0,7.507780075E0,2.342573404E0,1.877827454E1
2.028263659E0,6.450451851E0,3.007179976E0,1.354726410E1
2.044929596E0,4.090530396E0,3.338286638E0,9.468698502E0
2.061595534E0,1.817647934E0,3.322135210E0,7.676474094E0
2.078261471E0,9.511470050E-2,3.297907829E0,6.840780735E0
2.094927409E0,-8.398807645E-1,3.416950703E0,6.008975983E0
2.111593346E0,-1.304985642E0,3.495614767E0,6.864110947E0
2.128259284E0,-8.590233326E-1,3.221636534E0,6.965207577E0
2.144925221E0,-4.962115884E-1,3.230609655E0,5.520540714E0
2.161591159E0,-5.736792088E-1,3.382254839E0,4.113860130E0
2.178257096E0,-9.490532875E-1,3.313162088E0,3.839582920E0
2.194923034E0,-1.406381488E0,3.220739365E0,4.235296249E0
2.211588971E0,-1.775474429E0,2.945265532E0,5.305186749E0
2.228254909E0,-1.494915962E0,2.538186550E0,5.987141132E0
2.244920846E0,-1.144068360E0,2.576471806E0,7.053442955E0
2.261586784E0,-1.437488198E0,2.487339020E0,7.680362701E0
2.278252721E0,-1.793420553E0,2.341077805E0,8.193024635E0
2.294918659E0,-2.231008053E0,2.327618122E0,9.991828918E0
2.311584596E0,-1.778465390E0,1.782652855E0,1.412124252E1
2.328250534E0,-2.162513435E-1,5.596213937E-1,1.962144470E1
2.344916471E0,1.290329576E0,-4.432703853E-1,2.446541595E1
2.361582409E0,2.922832966E0,-1.235294700E0,2.382922363E1
2.378248346E0,3.682255030E0,-7.399803996E-1,1.870499420E1
2.394914284E0,4.060320854E0,-1.618146300E-1,1.329781246E1
2.411580221E0,3.833002806E0,7.570292354E-1,1.034596729E1
2.428246159E0,2.867498875E0,1.181157112E0,1.002024364E1
2.444912096E0,2.121237278E0,5.051847100E-1,1.132941723E1
2.461578034E0,1.767099500E0,3.113660514E-1,1.171884918E1
2.478243971E0,2.038385868E0,2.976073027E-1,1.085264683E1
2.494909909E0,2.563610315E0,8.084749579E-1,8.454141617E0
2.511575846E0,3.267399311E0,2.304288149E0,6.786643028E0
2.528241784E0,3.369991541E0,2.126920223E0,7.068099022E0
2.544907721E0,1.142572835E-1,-1.520040631E0,8.773882866E0
2.561573659E0,2.102692872E-1,-4.073780477E-1,1.095643616E1
2.578239596E0,6.092724800E-1,9.571290761E-2,9.294022560E0
2.594905534E0,1.279262781E0,1.260120273E0,7.701299667E0
2.611571471E0,1.144666553E0,1.047158957E0,6.259624004E0
2.628237409E0,3.266202807E-1,1.148854017E0,6.004190445E0
2.644903346E0,-4.863412082E-1,1.617249012E0,7.367201805E0
2.661569284E0,4.001995921E-1,5.324030295E-2,9.752247810E0
2.678235221E0,-2.105683982E-1,1.221236825E0,1.086670494E1
2.694901159E0,-2.545365095E-1,1.209272742E0,1.129801083E1
2.711567096E0,-3.035893738E-1,1.998605132E0,1.140299606E1
2.728233034E0,-4.761717021E-1,2.203191519E0,1.217946720E1
2.744898971E0,-3.134597540E-1,2.140379906E0,1.347218990E1
2.761564909E0,2.991028316E-2,2.400898457E0,1.389422417E1
2.778230846E0,2.877369225E-1,2.900400162E0,1.414457321E1
2.794896784E0,-1.516451389E-1,3.255734205E0,1.321047497E1
2.811562721E0,1.207777262E0,2.339582443E0,1.189412308E1
2.828228659E0,2.274976015E0,1.488933921E0,1.059003448E1
2.844894596E0,1.193719387E0,2.150549412E0,9.573084831E0
2.861560534E0,2.712862790E-1,2.647658348E0,8.780163765E0
2.878226471E0,8.180462122E-1,1.829013824E0,5.922235966E0
2.894892409E0,2.865405083E-1,3.918546200E0,3.947858334E0
2.911558346E0,1.073779106E0,3.593421459E0,6.096014977E0
2.928224284E0,5.264209956E-2,9.741778970E-1,1.060738277E1
2.944890221E0,-5.072783828E-1,3.144168854E0,9.945767403E0
2.961556159E0,5.733801126E-1,2.628814697E0,1.065733337E1
2.978222096E0,-6.281159073E-2,1.798505306E0,9.799206734E0
2.994888034E0,8.919246197E-1,2.531008244E0,7.523034573E0
3.011553971E0,2.164906263E0,4.109373569E0,6.250650883E0
3.028219909E0,2.153241158E0,4.419842720E0,5.138287544E0
3.044885846E0,1.243669510E0,4.746462822E0,5.452644825E0
3.061551784E0,2.027318954E0,4.950450897E0,6.454041004E0
3.078217721E0,2.320439816E0,5.149952412E0,8.379963875E0
3.094883659E0,2.217847586E0,5.785545826E0,8.451150894E0
3.111549596E0,9.167501926E-1,5.822634697E0,7.976175308E0
3.128215534E0,8.494520187E-1,4.881657124E0,7.314260483E0
3.144881471E0,1.352542996E0,5.683851242E0,6.872186661E0
3.161547409E0,1.401894927E0,6.246762753E0,7.235895634E0
3.178213346E0,9.879366755E-1,6.505785465E0,8.746364594E0
3.194879284E0,9.933205247E-1,5.797510147E0,1.010788059E1
3.211545221E0,8.419744968E-1,5.418546677E0,1.163659573E1
3.228211159E0,8.578268886E-1,4.963312149E0,1.193360519E1
3.244877096E0,6.924230456E-1,4.735096931E0,1.131685448E1
3.261543034E0,3.999004960E-1,4.742873669E0,1.048923683E1
3.278208971E0,6.116653085E-1,4.744070053E0,9.452247620E0
3.294874909E0,2.288136631E-1,4.616054058E0,8.840581894E0
3.311540846E0,-2.629113793E-1,4.149154663E0,8.323134422E0
3.328206784E0,-5.620142221E-1,3.786342621E0,8.184051514E0
3.344872721E0,-1.099501967E0,3.515056372E0,8.443971634E0
3.361538659E0,-8.386843204E-1,3.014657497E0,8.338089943E0
3.378204596E0,-6.735795736E-1,3.218346357E0,8.637491226E0
3.394870534E0,-2.341975123E-1,2.885445118E0,8.415258408E0
3.411536471E0,-7.208377868E-2,3.069692373E0,8.266604424E0
3.428202409E0,-2.111666054E-1,3.089133978E0,8.125128746E0
3.444868346E0,-5.243272781E-1,3.232105255E0,8.514560699E0
3.461534284E0,-8.012964725E-1,3.157628536E0,9.817152977E0
3.478200221E0,-5.554339290E-1,3.011367321E0,1.110179996E1
3.494866159E0,-5.419743061E-1,3.584448338E0,1.105454159E1
3.511532096E0,-2.554338276E-1,3.747459412E0,1.040758228E1
3.528198034E0,1.516451389E-1,3.600599766E0,1.007916737E1
3.544863971E0,6.577271223E-1,3.173182011E0,1.025683403E1
3.561529909E0,8.739784956E-1,3.227618694E0,1.068126106E1
3.578195846E0,5.760720372E-1,2.984148979E0,1.091815090E1
3.594861784E0,-4.178466499E-1,2.857030153E0,1.062203884E1
3.611527721E0,-4.758726060E-1,2.727219582E0,9.925128937E0
3.628193659E0,5.174478889E-2,2.394916296E0,9.120542526E0
3.644859596E0,1.153041363E0,2.405683994E0,8.718249321E0
3.661525534E0,2.776870728E0,2.479562521E0,8.551948547E0
3.678191471E0,2.949752092E0,2.978466034E0,8.470293045E0
3.694857409E0,1.826321840E0,3.066103220E0,8.415258408E0
3.711523346E0,5.488536954E-1,2.830111027E0,8.391629219E0
3.728189284E0,1.316052489E-2,2.945265532E0,8.357531548E0
3.744855221E0,1.199402362E-1,3.411267757E0,7.519145966E0
3.761521159E0,2.787638307E-1,4.457529545E0,7.415357590E0
3.778187096E0,4.172484577E-1,6.160022736E0,7.892127514E0
3.794853034E0,8.763712645E-1,6.702894211E0,7.546962738E0
3.811518971E0,2.242672920E0,5.686542988E0,7.723134041E0
3.828184909E0,2.186441660E0,4.562514782E0,8.761619568E0
3.844850846E0,5.207380056E-1,4.846662045E0,9.511769295E0
3.861516784E0,1.193420291E0,4.721637249E0,8.766105652E0
3.878182721E0,2.527419031E-1,6.956234455E0,8.397910118E0
3.894848659E0,1.138385415E0,2.647957325E0,1.056610680E1
3.911514596E0,1.246361494E0,3.449253798E0,9.972985268E0
3.928180534E0,1.111466169E0,4.467100620E0,8.917451859E0
3.944846471E0,1.062114120E0,3.430709362E0,7.484749317E0
3.961512409E0,8.608179688E-1,3.804588079E0,6.095117569E0
3.978178346E0,1.503589988E0,4.549354076E0,5.234897614E0
3.994844284E0,2.427817583E0,4.863711357E0,5.120640278E0
4.011510221E0,2.248954296E0,5.427519798E0,6.261119366E0
4.028176159E0,1.705185294E0,5.291428089E0,7.438986301E0
4.044842096E0,1.468894005E0,5.137091160E0,7.934001446E0
4.061508034E0,1.613360643E0,5.480760098E0,7.898109436E0
4.078173971E0,1.870290041E0,5.915057659E0,7.050751209E0
4.094839909E0,2.124228239E0,6.202196121E0,6.675675869E0
4.111505846E0,1.753639936E0,6.432206154E0,7.052844524E0
4.128171784E0,1.372582912E0,5.609374523E0,7.616653442E0
4.144837721E0,8.054839373E-1,4.949254513E0,6.804888725E0
4.161503659E0,-1.971087605E-1,4.728217602E0,6.101996899E0
4.178169596E0,7.298108935E-2,4.539184570E0,5.604588985E0
4.194835534E0,9.693922997E-1,4.961517811E0,5.628218174E0
4.211501471E0,1.381555915E0,4.933402061E0,6.674479485E0
4.228167409E0,1.470688581E0,4.792524815E0,7.890033722E0
4.244833346E0,1.337587833E0,5.139782906E0,9.116953850E0
4.261499284E0,7.648059130E-1,5.550750256E0,8.925827026E0
4.278165221E0,9.607182741E-1,5.038387299E0,8.960223198E0
4.294831159E0,1.861915112E0,5.210072041E0,9.973882675E0
4.311497096E0,2.514856577E0,6.249454498E0,1.020299530E1
4.328163034E0,1.891227245E0,4.398905277E0,9.002396584E0
4.344828971E0,2.204387903E0,3.771985769E0,8.091629028E0
4.361494909E0,1.269392371E0,5.410470963E0,9.215657234E0
4.378160846E0,1.233799219E0,4.736592293E0,8.940183640E0
4.394826784E0,2.317747831E0,4.000799656E0,7.904988766E0
4.411492721E0,3.840181351E0,3.812962770E0,8.435297966E0
4.428158659E0,2.491825581E0,3.405285835E0,9.279964447E0
4.444824596E0,1.173978567E0,3.497708559E0,1.019521904E1
4.461490534E0,4.573282301E-1,3.658625841E0,9.393324852E0
4.478156471E0,9.463613629E-1,3.864408493E0,8.557332039E0
4.494822409E0,-7.594220638E-1,4.456333160E0,9.367900848E0
4.511488346E0,-7.773682475E-1,4.094717979E0,1.151366425E1
4.528154284E0,2.250150681E0,2.601596355E0,1.278544998E1
4.544820221E0,1.629512191E0,8.584549904E0,1.307019520E1
4.561486159E0,2.656631231E0,6.882356167E0,1.066271687E1
4.578152096E0,2.106282234E0,1.043390274E1,1.418794250E1
4.594818034E0,7.045666218E0,1.052333450E1,1.639173317E1
4.611483971E0,8.261519432E0,1.243400383E1,1.694118500E1
4.628149909E0,9.812965393E0,1.448196125E1,1.120140076E1
4.644815846E0,9.216554642E0,1.645095444E1,1.466650772E1
4.661481784E0,1.081167030E1,1.748106575E1,2.104337883E1
4.678147721E0,1.158843994E1,1.766920090E1,2.188086700E1
4.694813659E0,1.240289688E1,1.774278069E1,1.783669853E1
4.711479596E0,1.196261787E1,1.665942955E1,1.471286869E1
4.728145534E0,1.003101158E1,1.427976704E1,1.611954880E1
4.744811471E0,7.300501823E0,1.015035343E1,1.753251076E1
4.761477409E0,3.633800268E0,4.541278362E0,1.349073410E1
4.778143346E0,-1.911865234E0,-2.004886389E0,4.610670090E0
4.794809284E0,-8.047361374E0,-1.012762165E1,-3.544966698E0
4.811475221E0,-1.364237881E1,-1.806461525E1,-3.839283943E0
4.828141159E0,-1.646172333E1,-2.773431015E1,-1.215553880E0
4.844807096E0,-1.304178047E1,-3.876282883E1,5.228317380E-1
4.861473034E0,-5.444568634E0,-4.487409973E1,-2.260918379E0
4.878138971E0,1.580758452E0,-4.690410995E1,-8.645866394E0
4.894804909E0,4.524827480E0,-4.429802704E1,-6.701697826E0
4.911470846E0,7.074379921E0,-4.081647110E1,4.483551502E0
4.928136784E0,1.613181114E1,-3.726372528E1,1.459711552E1
4.944802721E0,2.754109001E1,-3.173989487E1,1.824766541E1
4.961468659E0,4.475236511E1,-2.321247292E1,1.728186226E1
4.978134596E0,6.867191315E1,-1.087747288E1,7.921738625E0
4.994800534E0,7.835836029E1,-1.155434251E0,-7.582256794E-1
5.011466471E0,7.412545776E1,1.803889155E0,1.103629589E1
5.028132409E0,5.662854004E1,4.822733879E0,2.869323349E1
5.044798346E0,4.404319000E1,1.212652588E1,2.988485909E1
5.061464284E0,3.347768402E1,1.707099533E1,1.481815243E1
5.078130221E0,1.507209110E1,2.034018898E1,3.745365620E0
5.094796159E0,-1.040279675E1,2.703141785E1,1.205504036E1
5.111462096E0,-2.306621170E1,3.598446274E1,2.359562492E1
5.128128034E0,-1.810589027E1,3.846522141E1,2.310988045E1
5.144793971E0,-7.586743355E0,3.931407547E1,1.403031540E1
5.161459909E0,-7.172784805E0,4.277888489E1,1.209302616E1
5.178125846E0,-5.798706532E0,4.385266113E1,1.440329647E1
5.194791784E0,3.089732230E-1,4.377908325E1,2.521317291E1
5.211457721E0,1.954277992E1,3.992125320E1,3.975704575E1
5.228123659E0,4.977609634E1,2.932912636E1,4.727828598E1
5.244789596E0,6.780571747E1,2.040449524E1,5.001537704E1
5.261455534E0,7.829046631E1,6.872784615E0,5.282484818E1
5.278121471E0,7.839843750E1,-2.018764687E1,4.124269104E1
5.294787409E0,7.596972656E1,-3.341875839E1,8.359326363E0
5.311453346E0,5.497360611E1,-3.941307831E1,-1.031904793E1
5.328119284E0,2.840071106E1,-4.664538574E1,7.567301750E0
5.344785221E0,7.521838188E0,-5.377001572E1,1.957239151E1
5.361451159E0,-9.326624870E0,-5.287001419E1,4.997410297E0
5.378117096E0,-2.286970139E1,-4.592813873E1,-1.525125313E1
5.394783034E0,-2.571416855E1,-4.379284286E1,-1.872802544E1
5.411448971E0,-1.350778294E1,-4.771109009E1,-2.310569286E0
5.428114909E0,-1.576271951E-1,-4.768835831E1,4.782953262E0
5.444780846E0,3.848257065E0,-4.292903137E1,-2.452643216E-1
5.461446784E0,7.798508167E0,-3.789124298E1,-3.226422310E0
5.478112721E0,1.748614883E1,-3.319383240E1,3.145664454E0
5.494778659E0,2.761108017E1,-2.800858688E1,7.357630730E0
5.511444596E0,4.616054153E1,-2.310210419E1,1.296251869E1
5.528110534E0,6.079922867E1,-1.628196144E1,1.399083424E1
5.544776471E0,6.537998962E1,-5.499005318E0,7.313064337E-1
5.561442409E0,7.452416229E1,5.108676434E0,-8.689535141E0
5.578108346E0,6.632036591E1,8.007282257E0,2.873480797E0
5.594774284E0,3.880560303E1,1.433839130E1,2.501995087E1
5.611440221E0,1.916591072E1,2.146601105E1,2.315414810E1
5.628106159E0,3.491726398E0,3.108665466E1,1.245135212E1
5.644772096E0,-4.456034184E0,3.950939178E1,1.706501198E1
5.661438034E0,-2.274976015E0,3.893660736E1,2.948256683E1
5.678103971E0,-7.469794273E0,3.934667969E1,3.540091324E1
5.694769909E0,-1.203559875E1,4.138147354E1,2.781776047E1
5.711435846E0,-5.776872158E0,4.049702835E1,1.583151245E1
5.728101784E0,7.253841877E0,4.054309082E1,1.371356583E1
5.744767721E0,2.498495674E1,3.793281937E1,2.015055847E1
5.761433659E0,4.116791534E1,3.187568855E1,2.832174873E1
5.778099596E0,5.791079330E1,2.329442787E1,3.250051498E1
5.794765534E0,7.473204041E1,9.766006470E0,2.790928459E1
5.811431471E0,7.769315338E1,-8.055437088E0,2.131376839E1
5.828097409E0,6.507370758E1,-2.110708809E1,1.380449295E1
5.844763346E0,5.020949554E1,-3.440729523E1,5.676373482E0
5.861429284E0,2.470380020E1,-3.952554321E1,6.174379826E0
5.878095221E0,1.342971683E0,-4.014468384E1,1.165484047E1
5.894761159E0,-1.226740360E1,-3.988296890E1,3.252145052E0
5.911427096E0,-2.030160522E1,-4.093820572E1,-8.096414566E0
5.928093034E0,-2.013470459E1,-4.707848740E1,-4.181756496E0
5.944758971E0,-1.548904037E1,-5.361627579E1,2.327020019E-1
5.961424909E0,-1.148285675E1,-5.427190781E1,-1.856232166E0
5.978090846E0,-1.543968797E0,-5.197689438E1,-1.041476011E0
5.994756784E0,1.652243996E1,-4.449543381E1,3.935894251E0
6.011422721E0,3.536412430E1,-3.351477051E1,5.726323605E0
6.028088659E0,5.176782227E1,-2.053789520E1,9.102297783E0
6.044754596E0,6.360481644E1,-8.175377846E0,8.932407379E0
6.061420534E0,6.470222473E1,5.019543648E0,5.555236816E0
6.078086471E0,6.093083572E1,1.439611816E1,1.379163146E0
6.094752409E0,5.522006607E1,1.920419693E1,6.381359100E0
6.111418346E0,4.267928314E1,2.092553329E1,1.458335686E1
6.128084284E0,2.710798836E1,2.042064667E1,1.550608921E1
6.144750221E0,1.096810055E1,2.061805534E1,1.325593853E1
6.161416159E0,3.182454109E0,1.979073715E1,1.282134151E1
6.178082096E0,-6.819544733E-2,1.626311874E1,1.235474110E1
6.194748034E0,-6.657131672E0,1.348535061E1,9.652347565E0
6.211413971E0,-1.398395443E1,1.564726543E1,8.078468323E0
6.228079909E0,-1.575583935E1,1.773679733E1,8.812766075E0
6.244745846E0,-1.376142216E1,2.104666901E1,9.551849365E0
6.261411784E0,-7.788338661E0,2.529333115E1,8.598907471E0
6.278077721E0,1.427318692E0,2.921965408E1,6.777669907E0
6.294743659E0,1.135693455E1,3.032842827E1,9.451350212E0
6.311409596E0,2.293371010E1,2.960101128E1,1.930080605E1
6.328075534E0,3.340619659E1,2.607398987E1,2.806900597E1
6.344741471E0,4.645276260E1,1.842084694E1,2.538635254E1
6.361407409E0,5.420879745E1,7.366005421E0,1.514417458E1
6.378073346E0,5.431737137E1,-7.160521746E-1,8.027919769E0
6.394739284E0,4.959962463E1,-1.092054367E1,3.279662609E0
6.411405221E0,3.438157272E1,-2.006620979E1,4.671088696E0
6.428071159E0,1.364417362E1,-2.518655205E1,6.453741550E0
6.444737096E0,-2.973680258E0,-2.853441048E1,3.560520172E0
6.461403034E0,-1.214058399E1,-3.056083107E1,-1.362114310E0
6.478068971E0,-1.609233093E1,-3.659941864E1,-6.364609241E0
6.494734909E0,-2.365365028E1,-3.948007965E1,-9.326624870E0
6.511400846E0,-2.624388123E1,-4.225874329E1,-7.137191772E0
6.528066784E0,-1.335823154E1,-4.505714798E1,2.383550406E0
6.544732721E0,8.160721779E0,-4.551776886E1,8.259724617E0
6.561398659E0,1.639831352E1,-4.014887238E1,3.550649643E0
6.578064596E0,2.105085754E1,-3.401367569E1,-5.172385216E0
6.594730534E0,3.889952087E1,-2.741456985E1,-6.763911247E0
6.611396471E0,5.539414215E1,-1.659631920E1,5.496912003E0
6.628062409E0,6.468906403E1,-2.843869686E0,2.158654976E1
6.644728346E0,6.645137787E1,7.345367432E0,1.664866257E1
6.661394284E0,6.110820389E1,1.715085602E1,6.384349823E0
6.678060221E0,4.553840637E1,2.020439529E1,9.772287369E0
6.694726159E0,2.920410156E1,1.905255127E1,1.869931030E1
6.711392096E0,1.442303753E1,1.907348824E1,1.817528343E1
6.728058034E0,5.707180977E0,1.850489426E1,1.456900024E1
6.744723971E0,2.471785784E0,1.423609829E1,1.004865837E1
6.761389909E0,-3.661018610E0,1.179153061E1,6.019145489E0
6.778055846E0,-1.166710377E1,1.358435345E1,4.648057938E0
6.794721784E0,-1.407458305E1,1.591974831E1,4.741377831E0
6.811387721E0,-1.094387341E1,1.789711761E1,6.628716946E0
6.828053659E0,-5.070690155E0,2.064826393E1,7.073482990E0
6.844719596E0,1.259821177E0,2.465714073E1,4.625625134E0
6.861385534E0,7.561917782E0,2.739363098E1,4.165306091E0
6.878051471E0,1.643390656E1,2.767149925E1,1.461207104E1
6.894717409E0,2.702723122E1,2.399133682E1,2.649602509E1
6.911383346E0,3.988356781E1,1.427109337E1,2.571327209E1
6.928049284E0,4.715804672E1,4.367499352E0,1.502483273E1
6.944715221E0,5.228347397E1,-4.926821709E0,5.113162994E0
6.961381159E0,5.064020157E1,-8.915956497E0,4.998008251E0
6.978047096E0,4.093730545E1,-1.593829250E1,9.300004005E0
6.994713034E0,2.183749771E1,-1.910160446E1,8.084450722E0
7.011378971E0,5.104787827E0,-2.174357986E1,4.935794830E0
7.028044909E0,-5.037190914E0,-2.429253387E1,2.497209549E0
7.044710846E0,-1.165753269E1,-2.998505783E1,-2.292324066E0
7.061376784E0,-2.234926224E1,-3.379951859E1,-9.782157898E0
7.078042721E0,-3.200669479E1,-3.831058502E1,-1.277318668E1
7.094708659E0,-2.717857742E1,-4.356552505E1,-4.283451557E0
7.111374596E0,-7.716853142E0,-4.710869598E1,7.382455826E0
7.128040534E0,7.905886173E0,-4.454568481E1,6.833303452E0
7.144706471E0,1.502273846E1,-3.767140198E1,-3.337688446E0
7.161372409E0,2.409662056E1,-2.914009285E1,-9.178269386E0
7.178038346E0,4.235266113E1,-2.122643089E1,-2.237289190E0
7.194704284E0,5.846921921E1,-8.498707771E0,1.760609055E1
7.211370221E0,6.847032166E1,5.463711262E0,2.460629272E1
7.228036159E0,6.744350433E1,1.242323589E1,1.045214844E1
7.244702096E0,5.801817322E1,1.637079430E1,-2.453540564E0
7.261368034E0,3.977738571E1,1.559552097E1,-1.099801064E0
7.278033971E0,2.321965218E1,1.178076363E1,1.115892887E1
7.294699909E0,1.119870949E1,1.125464153E1,1.232901859E1
7.311365846E0,2.172084808E0,1.152413273E1,5.868995667E0
7.328031784E0,-3.249752283E0,1.140239811E1,7.917252183E-1
7.344697721E0,-5.378168106E0,1.002802086E1,-8.931210637E-1
7.361363659E0,-7.817052364E0,1.010907745E1,-1.052542806E0
7.378029596E0,-1.188844013E1,1.159741306E1,-1.060020447E0
7.394695534E0,-1.506760406E1,1.333340645E1,-5.808576941E-1
7.411361471E0,-1.367647648E1,1.537448406E1,4.603192508E-1
7.428027409E0,-8.053941727E0,1.848634911E1,4.590929508E0
7.444693346E0,-7.250252366E-1,2.141097641E1,1.097468090E1
7.461359284E0,5.492425442E0,2.278026962E1,1.295593834E1
7.478025221E0,1.408146191E1,2.432723045E1,1.095284653E1
7.494691159E0,2.616162682E1,2.631087875E1,1.427229023E1
7.511357096E0,3.768904877E1,2.304587364E1,2.017239189E1
7.528023034E0,5.022085953E1,1.388495159E1,2.099582291E1
7.544688971E0,5.262026215E1,5.376971722E0,1.507837200E1
7.561354909E0,5.706911850E1,-4.414458752E0,6.867401123E0
7.578020846E0,5.214678574E1,-1.166261768E1,-4.428815842E0
7.594686784E0,3.231716537E1,-1.568405533E1,-4.078267097E0
7.611352721E0,9.841679573E0,-2.023011971E1,7.471289635E0
7.628018659E0,-3.586242914E0,-2.695724106E1,1.390648746E1
7.644684596E0,-1.236461163E1,-3.487359619E1,7.400402069E0
7.661350534E0,-2.448216438E1,-3.880111313E1,-6.209673882E0
7.678016471E0,-3.275474930E1,-4.038755798E1,-1.643300819E1
7.694682409E0,-3.008106995E1,-4.193182373E1,-1.100070286E1
7.711348346E0,-1.252493095E1,-4.310550308E1,2.213061810E0
7.728014284E0,4.994419098E0,-4.096751785E1,6.158527374E0
7.744680221E0,1.141226864E1,-3.463730240E1,-3.601796389E0
7.761346159E0,1.777418518E1,-3.068854904E1,-1.024546814E1
7.778012096E0,2.880420113E1,-2.714567566E1,-1.324427366E0
7.794678034E0,4.446552277E1,-1.944886208E1,1.644497299E1
7.811343971E0,5.862295914E1,-5.050052166E0,2.006112671E1
7.828009909E0,6.818827057E1,1.087836981E0,6.767201424E0
7.844675846E0,6.095566177E1,1.012792110E1,9.038887620E-1
7.861341784E0,5.309942627E1,1.468056488E1,1.421216965E1
7.878007721E0,4.299573135E1,1.617009735E1,2.596691132E1
7.894673659E0,2.551676178E1,1.599901009E1,1.716551208E1
7.911339596E0,9.517452240E0,1.595534134E1,5.760421276E0
7.928005534E0,1.679761529E0,1.360200024E1,1.349551916E0
7.944671471E0,-4.062115669E0,1.154327583E1,2.902792931E0
7.961337409E0,-8.982057571E0,1.148136139E1,3.765704632E0
7.978003346E0,-1.312014580E1,1.317338562E1,4.296612263E0
7.994669284E0,-1.369292736E1,1.532244015E1,4.927121162E0
8.011335221E0,-9.328418732E0,1.733659744E1,5.106881618E0
8.028001159E0,-2.002792597E0,2.010180473E1,8.214261055E0
8.044667096E0,3.640081406E0,2.312752724E1,1.258864021E1
8.061333034E0,9.809974670E0,2.578804779E1,1.463869095E1
8.077998971E0,1.948774529E1,2.650768852E1,1.957957077E1
8.094664909E0,3.086741257E1,2.173011971E1,2.196342087E1
8.111330846E0,4.103361893E1,1.145503998E1,1.831586075E1
8.127996784E0,4.945635223E1,3.814757586E0,1.285633659E1
8.144662721E0,6.086652756E1,-5.672784328E0,4.982754230E0
8.161328659E0,5.818537140E1,-1.011206818E1,1.569093466E0
8.177994596E0,3.892584229E1,-1.625833321E1,4.737788677E0
8.194660534E0,1.357567883E1,-1.709761429E1,8.624032021E0
8.211326471E0,3.484548092E0,-2.038266182E1,6.133402824E0
8.227992409E0,-8.003991842E-1,-2.622743034E1,-1.778166294E0
8.244658346E0,-1.021705341E1,-3.028206825E1,-1.035165024E1
8.261324284E0,-2.383969116E1,-3.218495941E1,-1.327867031E1
8.277990221E0,-3.001257706E1,-3.568177032E1,-1.143500042E1
8.294656159E0,-2.430360031E1,-3.716950989E1,-4.806881428E0
8.311322096E0,-6.957729816E0,-3.909004974E1,1.610668778E0
8.327988034E0,5.534299850E0,-3.733491135E1,2.119741678E0
8.344653971E0,5.655137062E0,-3.332783127E1,-5.039583683E0
8.361319909E0,7.601100445E0,-3.146800995E1,-9.986145973E0
8.377985846E0,1.616860199E1,-3.054946518E1,-4.183850288E0
8.394651784E0,3.212543869E1,-2.605843735E1,7.005586624E0
8.411317721E0,5.017330170E1,-1.610010719E1,1.384427357E1
8.427983659E0,6.529384613E1,-8.935996056E0,1.169851017E1
8.444649596E0,6.910173035E1,9.152546525E-1,9.892228127E0
8.461315534E0,6.938108826E1,8.786744118E0,1.982603073E1
8.477981471E0,5.488148117E1,1.045663452E1,2.469811630E1
8.494647409E0,2.729044151E1,9.910472870E0,1.707937050E1
8.511313346E0,6.415755749E0,1.081735325E1,8.192127228E0
8.527979284E0,-3.550350666E-1,9.892526627E0,4.858027935E0
8.544645221E0,-2.354537487E0,8.472087860E0,5.099703312E0
8.561311159E0,-3.423531055E0,6.934699059E0,5.385645390E0
8.577977096E0,-4.291826725E0,6.858129025E0,4.506881237E0
8.594643034E0,-6.240182400E0,7.752446175E0,1.935195327E0
8.611308971E0,-7.072585583E0,1.021077251E1,1.148854017E0
8.627974909E0,-3.251846075E0,1.396511078E1,3.173182011E0
8.644640846E0,2.810968399E0,1.768236160E1,3.710968733E0
8.661306784E0,6.302694798E0,1.926461601E1,1.876272082E0
8.677972721E0,2.939582586E0,1.921167374E1,-1.283151209E-1
8.694638659E0,-1.436590910E0,1.922603035E1,4.186841488E0
8.711304596E0,5.168496966E-1,2.052712822E1,1.469372559E1
8.727970534E0,1.265354538E1,1.984218216E1,2.195713806E1
8.744636471E0,2.821915627E1,1.567777443E1,2.000220299E1
8.761302409E0,3.934309006E1,8.019246101E0,1.589342690E1
8.777968346E0,4.591587448E1,-1.900200248E0,1.707458496E1
8.794634284E0,5.304289627E1,-1.033908749E1,1.617069626E1
8.811300221E0,4.930261612E1,-1.398066425E1,8.561818123E0
8.827966159E0,3.574578094E1,-1.825813484E1,2.398804724E-1
8.844632096E0,1.777568054E1,-2.055673981E1,2.050050735E0
8.861298034E0,4.853541851E0,-2.421267319E1,6.285346985E0
8.877963971E0,-4.966602325E0,-2.848834801E1,5.287838936E0
8.894629909E0,-1.454148197E1,-3.201865768E1,-7.926224917E-2
8.911295846E0,-2.146870422E1,-3.477578735E1,-6.900003433E0
8.927961784E0,-2.707718086E1,-3.570839310E1,-9.764511108E0
8.944627721E0,-2.391536522E1,-3.614119339E1,-6.766005039E0
8.961293659E0,-1.604895973E1,-3.547090530E1,-5.413163185E0
8.977959596E0,-7.296015263E0,-3.399483109E1,-7.331608772E0
8.994625534E0,7.314559937E0,-3.225375366E1,-7.135696411E0
9.011291471E0,2.080858421E1,-2.767807770E1,-3.829114437E0
9.027957409E0,3.634488297E1,-1.878455544E1,5.742475033E0
9.044623346E0,5.351847076E1,-1.066570759E1,1.395524120E1
9.061289284E0,6.219095612E1,-1.948654890E0,1.511306763E1
9.077955221E0,6.381388855E1,9.308977127E0,1.113888836E1
9.094621159E0,5.644548798E1,9.350852013E0,1.525843143E1
9.111287096E0,3.008794975E1,9.156435013E0,2.274108696E1
9.127953034E0,1.383350611E0,1.135304642E1,1.807239151E1
9.144618971E0,-1.202124214E1,1.302144146E1,6.080461502E0
9.161284909E0,-1.145414257E1,1.500479221E1,-3.004487991E0
9.177950846E0,-6.690930367E0,1.732792473E1,-4.420141697E0
9.194616784E0,-7.289136052E-1,1.755165291E1,3.002992272E-1
9.211282721E0,5.040181637E0,1.799223137E1,5.064409256E0
9.227948659E0,1.011266708E1,1.746371651E1,6.039185047E0
9.244614596E0,1.387867069E1,1.463928890E1,5.947659969E0
9.261280534E0,1.322901917E1,9.583254814E0,6.879963398E0
9.277946471E0,1.274626732E1,1.586441398E0,6.825825691E0
9.294612409E0,1.509243011E1,-1.206909847E1,3.395415306E0
9.311278346E0,1.550489235E1,-2.026630974E1,-3.360121250E0
9.327944284E0,3.065475082E1,-2.491945267E1,-3.580559969E0
9.344610221E0,3.755983734E1,-3.198156929E1,4.768895626E0
9.361276159E0,2.114896202E1,-2.930400085E1,1.058285618E1
9.377942096E0,6.761518478E0,-2.451327133E1,5.265107155E0
9.394608034E0,-1.473679662E0,-1.573131371E1,-4.129712582E0
9.411273971E0,-1.164108157E0,-9.824930191E0,-1.150409317E1
9.427939909E0,-1.818246126E0,-6.345765591E0,-1.673540115E1
9.444605846E0,-7.701598644E0,2.231008053E0,-1.469671631E1
9.461271784E0,-7.921439171E0,1.097797108E1,-1.759921074E0
9.477937721E0,1.512353611E1,1.139551830E1,1.617488289E1
9.494603659E0,5.433472061E1,7.292725086E0,1.397647667E1
9.511269596E0,5.349454117E1,1.450469303E1,3.173182011E0
9.527935534E0,2.385823631E1,1.516032600E1,-2.442473650E0
9.544601471E0,3.997808456E0,1.035613632E1,-6.849454641E-1
9.561267409E0,7.151548862E0,6.928118706E0,4.750051975E0
9.577933346E0,1.999203300E1,-2.587239444E-1,5.581258774E0
9.594599284E0,2.528944397E1,-7.101299286E0,-1.180558920E0
9.611265221E0,2.563939285E1,-8.217251778E0,-1.019521904E1
9.627931159E0,2.334198570E1,-6.326025009E0,-6.873981476E0
9.644597096E0,1.517498207E1,-8.892625809E0,7.103991508E0
9.661263034E0,3.727120399E0,-1.018056297E1,1.697258949E1
9.677928971E0,-2.568695068E0,-1.168295670E1,1.387508106E1
9.694594909E0,-4.842175961E0,-1.258415318E1,3.119044304E0
9.711260846E0,-8.541479111E0,-1.319970703E1,-5.233103275E0
9.727926784E0,-1.353021526E1,-1.432732487E1,-6.034698486E0
9.744592721E0,-1.298166084E1,-1.578904057E1,-3.101995468E0
9.761258659E0,-9.172885895E0,-1.644287872E1,-3.127120018E0
9.777924596E0,-5.249254704E0,-1.693759537E1,-9.435198784E0
9.794590534E0,-1.515554070E0,-1.701506233E1,-1.770060730E1
9.811256471E0,1.698305845E0,-1.415414429E1,-1.701027679E1
9.827922409E0,9.204291344E0,-1.307318687E1,-5.897709846E0
9.844588346E0,2.043889236E1,-1.204158115E1,7.307082176E0
9.861254284E0,2.927917671E1,-8.949456215E0,1.443948841E1
9.877920221E0,3.230609512E1,-4.829912663E0,9.334101677E0
9.894586159E0,2.946521759E1,-9.711868763E-1,-5.446662307E-1
9.911252096E0,2.205374908E1,3.080759048E0,-4.294518471E0
9.927918034E0,1.815763474E1,6.129514217E0,-2.432005167E0
9.944583971E0,1.896072578E1,7.069893837E0,-2.459223509E0
9.961249909E0,1.933101654E1,8.822037697E0,-4.150949001E0
9.977915846E0,2.159821510E1,1.025204849E1,-3.704388618E0
9.994581784E0,2.663929367E1,1.064925671E1,4.378865361E-1
1.001124772E1,2.923072052E1,1.009531879E1,2.704786777E0
1.002791366E1,2.351755905E1,8.641080856E0,3.468097210E0
1.004457960E1,1.163031483E1,6.722336292E0,3.988835335E0
1.006124553E1,1.513759375E0,5.632704735E0,3.720540047E0
1.007791147E1,-3.735794425E-1,5.052145958E0,4.398007870E0
1.009457741E1,1.371386528E0,3.848855257E0,4.575973988E0
1.011124335E1,1.325623751E0,2.316252232E0,5.548058510E0
1.012790928E1,1.917548299E0,1.134497046E0,7.519444942E0
1.014457522E1,1.369292736E0,4.223332107E-1,8.170292854E0
1.016124116E1,2.509771824E0,4.010969102E-1,5.480461121E0
1.017790710E1,5.762216091E0,4.205385745E-1,4.122235298E0
1.019457303E1,1.114427280E1,7.615157962E-1,8.332705498E0
1.021123897E1,1.928405762E1,2.271686077E0,1.778375626E1
1.022790491E1,2.683131790E1,3.238984585E0,2.086152458E1
1.024457085E1,3.547030640E1,2.885145903E0,2.023999023E1
1.026123678E1,4.792674255E1,-3.210270643E0,2.559004211E1
1.027790272E1,5.932255936E1,-8.309973717E0,2.910509872E1
1.029456866E1,6.003113556E1,-1.095224857E1,2.170290184E1
1.031123460E1,4.496592331E1,-1.762941933E1,8.831010818E0
1.032790053E1,2.395155716E1,-1.983530235E1,2.129612207E0
1.034456647E1,1.065733337E1,-1.787289047E1,2.740978241E0
1.036123241E1,1.042373419E0,-1.832333755E1,1.973181367E0
1.037789835E1,-3.644867182E0,-2.033031845E1,-2.527718067E0
1.039456428E1,-3.661018610E0,-2.468017006E1,-1.185882950E1
1.041123022E1,-8.758329391E0,-2.502025032E1,-2.596810722E1
1.042789616E1,-1.008395290E1,-2.475823593E1,-3.264288712E1
1.044456210E1,1.558325738E-1,-3.349024582E1,-2.910509872E1
1.046122803E1,6.653243542E0,-4.227489471E1,-2.540878487E1
1.047789397E1,8.159824371E0,-4.660411072E1,-2.360399818E1
1.049455991E1,1.200389385E1,-5.120251465E1,-2.834178734E1
1.051122585E1,1.133420277E1,-5.527420425E1,-3.949473572E1
1.052789178E1,2.297707939E1,-6.433522797E1,-3.506651688E1
1.054455772E1,5.187100983E1,-7.324071503E1,-1.314766312E1
1.056122366E1,6.467230988E1,-6.705078125E1,1.231884956E1
1.057788960E1,5.370301437E1,-5.721029663E1,2.674637413E1
1.059455553E1,4.663102722E1,-4.926432800E1,3.425116348E1
1.061122147E1,4.980749893E1,-3.720121384E1,3.315285873E1
1.062788741E1,4.650032043E1,-1.857877159E1,3.597040558E1
1.064455335E1,4.852554703E1,-3.463311672E0,2.934946442E1
1.066121928E1,4.439015198E1,1.378295708E1,2.164756775E1
1.067788522E1,3.762055588E1,2.833610535E1,2.824547577E1
1.069455116E1,3.939902115E1,3.858785248E1,2.824846840E1
1.071121710E1,4.132225418E1,4.045066833E1,2.024896240E1
1.072788303E1,3.494089508E1,3.601287842E1,1.597358704E1
1.074454897E1,3.123171997E1,2.706491852E1,1.881715775E1
1.076121491E1,3.506531906E1,1.200299644E1,2.620230484E1
1.077788085E1,3.867279816E1,-4.934000492E0,2.119263268E1
1.079454678E1,4.101387787E1,-1.627747536E1,8.777172089E0
1.081121272E1,4.170809555E1,-2.057319069E1,7.913961887E0
1.082787866E1,4.056073761E1,-2.426651192E1,1.277258778E1
1.084454460E1,4.275704956E1,-2.669193649E1,1.433988667E1
1.086121053E1,4.673631287E1,-2.621666145E1,1.498744488E1
1.087787647E1,4.887848663E1,-3.072503853E1,2.150070763E1
1.089454241E1,4.730281448E1,-4.104348755E1,3.647289658E1
1.091120835E1,5.759943008E1,-5.003900528E1,4.130640030E1
1.092787428E1,7.021229553E1,-5.489793015E1,2.723421097E1
1.094454022E1,6.438158417E1,-5.285236740E1,1.133569813E1
1.096120616E1,4.333222198E1,-5.032255554E1,1.606182289E1
1.097787210E1,2.748037148E1,-4.874718094E1,2.767299461E1
1.099453803E1,1.791655922E1,-4.969742966E1,2.659502792E1
1.101120397E1,8.221140862E0,-4.719154739E1,1.337139225E1
1.102786991E1,3.930211067E-1,-3.749942017E1,-9.370891452E-1
1.104453585E1,-1.025294590E1,-2.781566620E1,-2.134098768E0
1.106120178E1,-1.773709679E1,-2.442712975E1,2.206182480E0
1.107786772E1,-2.151506424E1,-2.322712898E1,8.399106979E0
1.109453366E1,-1.825155449E1,-2.238934326E1,1.134317589E1
1.111119960E1,-1.425613785E1,-2.260978127E1,7.008278370E0
1.112786553E1,-1.226411343E1,-2.244886398E1,1.395015597E0
1.114453147E1,-1.044078255E1,-2.418635178E1,2.072782665E-1
1.116119741E1,-9.332905769E0,-2.622892570E1,1.223928809E0
1.117786335E1,-5.205585480E0,-2.809891701E1,1.186241865E0
1.119452928E1,2.810070992E0,-2.614427948E1,5.272883892E0
1.121119522E1,1.523719597E1,-2.283201408E1,2.791825771E0
1.122786116E1,3.237758255E1,-1.789262962E1,-9.023932457E0
1.124452710E1,4.567749023E1,-9.158229828E0,-1.566939926E1
1.126119303E1,5.069015121E1,-2.198704958E0,-1.380329609E1
1.127785897E1,4.415146637E1,3.360420227E0,-3.805485249E0
1.129452491E1,3.719343567E1,9.924530983E0,6.569793701E0
1.131119085E1,2.794428062E1,1.346531010E1,4.402195454E0
1.132785678E1,1.190100288E1,1.707877159E1,7.268198580E-2
1.134452272E1,-5.459823132E0,2.381217384E1,7.762316704E0
1.136118866E1,-1.472453308E1,2.863191795E1,2.199093819E1
1.137785460E1,-8.112865448E0,2.617359161E1,3.172852898E1
1.139452053E1,9.740881920E0,2.028694916E1,2.721417046E1
1.141118647E1,1.643211174E1,1.970579147E1,1.077727318E1
1.142785241E1,9.124132156E0,1.943091583E1,-5.183452129E0
1.144451835E1,3.956532240E0,1.927687836E1,-7.090830803E0
1.146118428E1,6.615556240E0,1.877707672E1,6.933502674E0
1.147785022E1,2.105923271E1,1.676112366E1,2.219642067E1
1.149451616E1,3.850410461E1,1.297418308E1,2.473969269E1
1.151118210E1,4.904568481E1,7.470093250E0,1.427557945E1
1.152784803E1,5.161617661E1,1.135095239E0,9.937093735E0
1.154451397E1,5.141159058E1,-5.158626556E0,1.352961731E1
1.156117991E1,5.120550537E1,-1.150409317E1,1.601964760E1
1.157784585E1,4.904987335E1,-1.829253006E1,1.255095291E1
1.159451178E1,3.874817276E1,-2.443460846E1,5.024329185E0
1.161117772E1,2.498166656E1,-2.745046043E1,7.417750359E-1
1.162784366E1,9.377471924E0,-2.812164879E1,-1.392921925E0
1.164450960E1,-8.814859390E0,-2.309791756E1,-2.443371058E0
1.166117553E1,-1.685205078E1,-2.150369835E1,-4.033401489E0
1.167784147E1,-1.682782364E1,-2.417977142E1,-3.642773390E0
1.169450741E1,-1.030947590E1,-2.906172752E1,-9.643075466E-1
1.171117335E1,-8.909376144E0,-3.216641617E1,-1.066899776E0
1.172783928E1,-1.256501102E1,-3.262194824E1,-5.323431969E0
1.174450522E1,-1.287458229E1,-3.172912788E1,-6.868896484E0
1.176117116E1,-6.611069679E0,-3.095295525E1,-2.854039192E0
1.177783710E1,3.830011845E0,-2.957678413E1,9.481559992E-1
1.179450303E1,1.397258854E1,-2.639971352E1,-5.428716540E-1
1.181116897E1,2.563610268E1,-2.227717972E1,-4.190430641E-1
1.182783491E1,3.984199142E1,-1.810918045E1,4.354937077E0
1.184450085E1,5.477380371E1,-1.256620693E1,1.310249901E1
1.186116678E1,6.424250031E1,-4.051347733E0,2.378854561E1
1.187783272E1,6.069454575E1,4.691427708E0,2.501187515E1
1.189449866E1,4.799673080E1,1.069083214E1,2.105145454E1
1.191116460E1,3.150330544E1,1.537328720E1,1.687777519E1
1.192783053E1,1.409761333E1,1.799851227E1,1.403569984E1
1.194449647E1,2.766701221E0,2.011705780E1,1.343599796E1
1.196116241E1,1.022931710E-1,1.861915207E1,1.563918972E1
1.197782835E1,-1.100698411E-1,1.431147194E1,1.757438469E1
1.199449428E1,1.531406492E-1,9.853045464E0,1.711466408E1
1.201116022E1,-4.323232174E0,8.062017441E0,9.533603668E0
1.202782616E1,-9.285647392E0,9.192625999E0,1.645962834E0
1.204449210E1,-1.012493038E1,1.075543880E1,-1.712961912E0
1.206115803E1,-7.701898098E0,1.211815071E1,1.940579176E0
1.207782397E1,-2.617748022E0,1.298614788E1,7.723134041E0
1.209448991E1,2.253141642E0,1.350479221E1,8.918947220E0
1.211115585E1,5.353342533E0,1.470030594E1,5.688636780E0
1.212782178E1,1.073779202E1,1.566192150E1,5.432604790E0
1.214448772E1,2.723241615E1,1.270199966E1,1.342074394E1
1.216115366E1,5.046582413E1,7.438388348E0,1.951795578E1
1.217781960E1,6.542874146E1,-2.263610125E0,1.558535099E1
1.219448553E1,5.337818909E1,-1.056161976E1,9.635597229E0
1.221115147E1,2.954298401E1,-1.500718498E1,4.688137531E0
1.222781741E1,1.260509014E1,-1.368096352E1,-2.970091105E-1
1.224448335E1,4.799404144E0,-1.241815090E1,-5.351547718E0
1.226114928E1,-2.887538671E0,-1.204337502E1,-8.817252159E0
1.227781522E1,-6.455835342E0,-1.850908089E1,-6.136991978E0
1.229448116E1,-1.342612743E1,-2.581167603E1,-2.044068813E0
1.231114710E1,-2.637728119E1,-3.019712257E1,-5.554937840E0
1.232781303E1,-3.258156967E1,-3.494358444E1,-1.044706345E1
1.234447897E1,-2.326840591E1,-3.899971771E1,-6.065506458E0
1.236114491E1,-6.656533718E0,-4.079972076E1,1.929811478E0
1.237781085E1,5.955137610E-1,-3.772015762E1,2.568396091E0
1.239447678E1,4.302594185E0,-3.621537018E1,-2.398804665E0
1.241114272E1,1.256949711E1,-3.422753143E1,-6.505486369E-1
1.242780866E1,2.509353065E1,-3.119881821E1,1.091515923E1
1.244447460E1,4.027598953E1,-2.532114792E1,1.984995842E1
1.246114053E1,4.743531799E1,-1.946501350E1,1.780170250E1
1.247780647E1,5.539683533E1,-1.052363396E1,1.655444527E1
1.249447241E1,5.769364548E1,-3.529413342E-1,2.216292191E1
1.251113835E1,4.430580139E1,3.166900873E0,2.825056076E1
1.252780428E1,2.530619240E1,7.054938316E0,2.190030861E1
1.254447022E1,1.290090370E1,9.262915611E0,8.431110382E0
1.256113616E1,6.529115677E0,1.110658550E1,1.249950767E0
1.257780210E1,4.332803726E0,1.322184086E1,6.005984545E-1
1.259446803E1,2.246860504E0,1.448824215E1,8.135596663E-2
1.261113397E1,1.982752681E0,1.461685658E1,-4.507479668E-1
1.262779991E1,4.415356159E0,1.381914902E1,-4.573282301E-1
1.264446585E1,6.352046967E0,1.136770248E1,-1.153938770E0
1.266113178E1,8.542975426E0,9.194122314E0,-2.105983019E0
1.267779772E1,1.249860954E1,7.893622875E0,-1.415055513E0
1.269446366E1,1.555215073E1,7.675876141E0,2.935096025E0
1.271112960E1,1.485733509E1,6.098108292E0,6.435795784E0
1.272779553E1,1.212832069E1,3.433401346E0,6.140880108E0
1.274446147E1,1.017308521E1,1.434796333E0,4.291527271E0
1.276112741E1,1.002353382E1,-8.006982803E-1,2.089831591E0
1.277779335E1,1.086909771E1,-4.591228485E0,2.230110645E0
1.279445928E1,1.073001480E1,-1.372014618E1,2.860619545E0
1.281112522E1,1.019641590E1,-2.455783844E1,4.548456669E0
1.282779116E1,2.190928268E1,-3.170400238E1,1.209870911E1
1.284445710E1,2.721058083E1,-3.620041656E1,1.855484390E1
1.286112303E1,1.339711475E1,-3.762324905E1,1.547887039E1
1.287778897E1,-3.629911900E0,-3.738785553E1,8.566305161E0
1.289445491E1,-1.420200062E1,-3.490230942E1,-2.313560486E0
1.291112085E1,-1.971865273E1,-3.056950569E1,-1.444965744E1
1.292778678E1,-1.552553082E1,-2.551197624E1,-1.684846306E1
1.294445272E1,-6.767799854E0,-2.474268341E1,-1.586291885E1
1.296111866E1,-3.267399311E0,-2.158236313E1,-1.139551830E1
1.297778460E1,9.362516403E0,-1.682632828E1,3.387339592E0
1.299445053E1,2.532922363E1,-1.310698509E1,1.945454597E1
1.301111647E1,3.616183090E1,-8.035995483E0,2.371706009E1
1.302778241E1,3.673221970E1,-1.662413478E0,1.708475304E1
1.304444835E1,3.016571617E1,1.467398524E0,7.472187042E0
1.306111428E1,1.882553291E1,2.295016050E0,-2.482553422E-1
1.307778022E1,1.076830006E1,3.011965513E0,-2.808874607E0
1.309444616E1,7.501499176E0,2.939881802E0,2.694916427E-1
1.311111210E1,4.633700848E0,2.234298229E0,4.638486862E0
1.312777803E1,2.071586132E0,9.765707254E-1,5.636293888E0
1.314444397E1,9.242277741E-1,-6.511468887E-1,3.592225075E0
1.316110991E1,1.155135155E0,-5.445167065E0,-7.881359458E-1
1.317777585E1,1.089930773E0,-1.017069244E1,-5.176273346E0
1.319444178E1,7.717451096E0,-1.108564854E1,-5.315954685E0
1.321110772E1,1.597956848E1,-9.848259926E0,-1.537388563E0
1.322777366E1,1.665972900E1,-7.762615681E0,2.604587555E0
1.324443960E1,1.095733356E1,-6.739085674E0,4.304089546E0
1.326110553E1,6.189334869E0,-7.472784996E0,7.226324677E-1
1.327777147E1,3.773481369E0,-1.054546833E1,-8.505288124E0
1.329443741E1,3.760320902E0,-1.340279770E1,-1.544178200E1
1.331110335E1,7.488338470E0,-1.392174149E1,-9.383752823E0
1.332776928E1,1.234995556E1,-1.415534019E1,2.850150824E0
1.334443522E1,1.608724594E1,-1.009232807E1,1.012283611E1
1.336110116E1,1.829073715E1,-6.971787930E0,6.144469261E0
1.337776710E1,1.650299835E1,-3.939184189E0,-1.903789520E0
1.339443303E1,1.345723438E1,-1.872981906E0,-7.410571575E0
1.341109897E1,1.106889820E1,-4.752743840E-1,-8.111668587E0
1.342776491E1,1.045304585E1,6.281159353E-3,-6.332006931E0
1.344443085E1,1.174038410E1,-1.080060363E0,-3.484548092E0
1.346109678E1,1.246451187E1,-3.972384691E0,-1.583749533E0
1.347776272E1,9.656833649E0,-7.654041290E0,-1.760220170E0
1.349442866E1,3.629313707E0,-8.613264084E0,-3.103191853E0
1.351109460E1,-4.055834413E-1,-7.836493969E0,-3.466900826E0
1.352776053E1,1.499701619E0,-7.617251873E0,-1.940280080E0
1.354442647E1,5.566901684E0,-8.752646446E0,-9.329017401E-1
1.356109241E1,8.022536278E0,-1.262513065E1,-7.971090674E-1
1.357775835E1,5.054239750E0,-1.649013710E1,-1.023529887E0
1.359442428E1,5.416752100E-1,-2.042094612E1,-1.928914189E0
1.361109022E1,-5.380859971E-1,-2.261337090E1,-4.300799370E0
1.362775616E1,3.855136395E0,-2.327558327E1,-5.104488850E0
1.364442210E1,1.110449123E1,-2.232862473E1,-2.804986238E0
1.366108803E1,1.538166237E1,-2.214108658E1,1.187139153E0
1.367775397E1,1.367737389E1,-1.711137390E1,1.001067257E1
1.369441991E1,1.713560104E1,-9.438488960E0,1.581924915E1
1.371108585E1,2.564268303E1,-4.967798710E0,9.533903122E0
1.372775178E1,3.084438133E1,-3.655036688E-1,-3.688536167E0
1.374441772E1,2.865046120E1,3.624228954E0,-1.379193020E1
1.376108366E1,2.260768700E1,3.434597731E0,-9.400503159E0
1.377774960E1,1.530060482E1,3.323331594E0,6.114858150E0
1.379441553E1,1.141645622E1,6.340082645E0,2.005155373E1
1.381108147E1,1.040758228E1,8.976076126E0,2.119023895E1
1.382774741E1,8.768498421E0,1.026819992E1,1.313689518E1
1.384441335E1,6.605087757E0,1.079551888E1,4.254737854E0
1.386107928E1,5.694319725E0,1.003280640E1,-7.857431173E-1
1.387774522E1,5.159822941E0,9.042776108E0,-1.370489120E0
1.389441116E1,4.467998028E0,8.076673508E0,-6.173482537E-1
1.391107710E1,4.522733688E0,7.140780926E0,-1.229312643E-1
1.392774303E1,6.755237579E0,7.440781116E0,8.021938205E-1
1.394440897E1,1.063041401E1,8.475975990E0,-8.135596663E-2
1.396107491E1,1.541187191E1,1.019162941E1,-6.334998012E-1
1.397774085E1,1.993879318E1,1.034836006E1,1.217348576E0
1.399440678E1,2.200918198E1,9.578169823E0,3.077768087E0
1.401107272E1,2.454557419E1,9.370293617E0,2.306980133E0
1.402773866E1,2.979602623E1,1.034417248E1,1.359123230E0
1.404440460E1,3.510898972E1,9.175577164E0,5.407779217E0
1.406107053E1,3.597937775E1,6.723233223E0,1.059182930E1
1.407773647E1,3.183650589E1,4.095016956E0,8.648857117E0
1.409440241E1,2.438884544E1,9.221340418E-1,3.663411379E0
1.411106835E1,1.402373505E1,-9.011968374E-1,3.092723191E-1
1.412773428E1,5.318945408E0,-1.978565216E0,8.252246976E-1
1.414440022E1,-1.615155339E0,-3.665206194E0,4.716851711E-1
1.416106616E1,-7.515855789E0,-6.462116718E0,-6.332007051E-1
1.417773210E1,-1.164586735E1,-9.167800903E0,-1.109671518E-1
1.419439803E1,-1.289970684E1,-1.422263908E1,1.261017561E0
1.421106397E1,-1.120289612E1,-2.019990921E1,3.382853031E0
1.422772991E1,-9.882357597E0,-2.566720963E1,7.433602810E0
1.424439585E1,-1.066899776E1,-2.909492874E1,8.459824562E0
1.426106178E1,-9.484251976E0,-2.979303551E1,4.000500202E0
1.427772772E1,-2.496312141E0,-2.934677315E1,-1.473380566E0
1.429439366E1,8.190631866E0,-2.909403229E1,-3.933202267E0
1.431105960E1,1.502303791E1,-2.811566544E1,8.955138922E-1
1.432772553E1,1.788006783E1,-2.602374077E1,1.042522907E1
1.434439147E1,2.359024048E1,-2.351845551E1,1.344437313E1
1.436105741E1,3.749822235E1,-1.826950073E1,9.439984322E0
1.437772335E1,6.298596954E1,-1.306122208E1,5.406881809E0
1.439438928E1,7.774101257E1,-6.450750828E0,7.393223763E0
1.441105522E1,6.701100159E1,-1.534098387E0,1.601037598E1
1.442772116E1,4.640161514E1,9.804889679E0,2.312932205E1
1.444438710E1,3.116771126E1,1.716551208E1,1.775922966E1
1.446105303E1,1.829073715E1,2.209173584E1,8.081758499E0
1.447771897E1,3.003291607E0,2.648196602E1,3.466900826E0
1.449438491E1,-1.201884937E1,3.368615723E1,6.814160824E0
1.451105085E1,-1.900738716E1,3.755026627E1,1.294696522E1
1.452771678E1,-1.924726677E1,3.362184906E1,1.813191223E1
1.454438272E1,-1.758455467E1,2.896332359E1,1.721426582E1
1.456104866E1,-1.491356659E1,2.697070122E1,1.190459156E1
1.457771460E1,-1.026161957E1,2.656661224E1,8.593822479E0
1.459438053E1,-6.969096065E-1,3.037030411E1,1.311416340E1
1.461104647E1,2.040658951E1,3.845325851E1,1.521566010E1
1.462771241E1,5.095156860E1,4.323711014E1,1.010070229E1
1.464437835E1,7.629784393E1,3.291985703E1,1.075244808E1
1.466104428E1,7.593981934E1,1.580070496E1,2.189133644E1
1.467771022E1,7.305796051E1,-1.533500195E0,2.405265236E1
1.469437616E1,7.020930481E1,-1.352961731E1,1.291137218E1
1.471104210E1,6.001857376E1,-2.235135651E1,-3.261716366E0
1.472770803E1,4.366273117E1,-2.818864632E1,-2.900100946E0
1.474437397E1,2.136521339E1,-3.158047295E1,4.540380955E0
1.476103991E1,-1.792822361E0,-3.310918808E1,5.194818020E0
1.477770585E1,-1.935314941E1,-3.107319450E1,-2.572284266E-2
1.479437178E1,-2.516711044E1,-3.162803078E1,-7.051648140E0
1.481103772E1,-1.746940041E1,-3.902155304E1,-8.690134048E0
1.482770366E1,-7.734200954E0,-4.764648438E1,7.211369276E-1
1.484436960E1,-6.431608200E0,-5.083820724E1,8.229515076E0
1.486103553E1,-7.464410305E0,-5.043621445E1,6.118746758E0
1.487770147E1,-6.559324861E-1,-5.026094055E1,2.718246460E0
1.489436741E1,1.554138279E1,-4.957809067E1,4.840381145E0
1.491103335E1,3.746741486E1,-4.750620270E1,6.094220161E0
1.492769928E1,5.567380524E1,-3.982524109E1,1.283181095E1
1.494436522E1,6.766394043E1,-2.853770065E1,2.443969154E1
1.496103116E1,7.628677368E1,-1.428156185E1,2.201845551E1
1.497769710E1,7.839754486E1,2.766103029E0,8.933603287E0
1.499436303E1,7.392416382E1,1.244746304E1,6.679863453E0
1.501102897E1,4.627509689E1,1.745444489E1,2.375384903E1
1.502769491E1,2.810699272E1,2.438884544E1,3.002842903E1
1.504436085E1,1.519980717E1,3.012444115E1,2.182732773E1
1.506102678E1,3.443870068E0,3.444647598E1,1.526501179E1
1.507769272E1,-2.796611547E0,3.391856003E1,1.641147232E1
1.509435866E1,-5.898906231E0,2.864418030E1,1.791865158E1
1.511102460E1,-1.230658627E1,2.564477730E1,1.438086414E1
1.512769053E1,-1.367737389E1,2.344009018E1,9.661619186E0
1.514435647E1,-1.148076344E1,2.255115700E1,4.642076015E0
1.516102241E1,-6.904190540E0,2.334467697E1,3.220141172E0
1.517768835E1,-5.638088584E-1,2.659562492E1,7.537092209E0
1.519435428E1,1.133599758E1,3.165584755E1,1.296461201E1
1.521102022E1,3.461008453E1,3.411836243E1,1.789801407E1
1.522768616E1,5.959713745E1,3.127807999E1,2.407747841E1
1.524435210E1,7.558837128E1,1.887787437E1,2.543869591E1
1.526101803E1,7.424778748E1,6.547361016E-1,1.747119522E1
1.527768397E1,6.052764511E1,-1.157109165E1,5.096114159E0
1.529434991E1,4.401597214E1,-1.605554008E1,-4.535296440E0
1.531101585E1,2.888735199E1,-2.177797699E1,3.829712629E0
1.532768178E1,9.198907852E0,-2.578864670E1,1.668216133E1
1.534434772E1,-4.079164505E0,-3.226900864E1,1.756122398E1
1.536101366E1,-1.236999607E1,-4.005734634E1,7.472486019E0
1.537767960E1,-2.001476479E1,-4.811308289E1,-1.478764415E0
1.539434553E1,-2.610390091E1,-5.382415390E1,-7.285845757E0
1.541101147E1,-2.195474625E1,-5.710441208E1,-6.722635269E0
1.542767741E1,-3.809074640E0,-5.854638672E1,3.321835995E0
1.544434335E1,1.715205193E1,-5.406463242E1,1.098036385E1
1.546100928E1,2.853500748E1,-4.314408875E1,6.947560310E0
1.547767522E1,3.999214172E1,-3.323780060E1,-2.865405083E-1
1.549434116E1,5.750610733E1,-2.237737846E1,6.433701992E0
1.551100710E1,7.585307312E1,-7.248457909E0,1.864098549E1
1.552767303E1,7.839754486E1,8.316554070E0,1.538106441E1
1.554433897E1,7.247710419E1,1.754806328E1,5.331508160E0
1.556100491E1,5.113880920E1,1.904118538E1,7.147062302E0
1.557767085E1,3.125325394E1,1.802393723E1,1.619252968E1
1.559433678E1,1.915574074E1,1.734078598E1,1.798565102E1
1.561100272E1,8.482855797E0,1.887069702E1,1.426989651E1
1.562766866E1,1.530210137E0,1.827877235E1,1.016560745E1
1.564433460E1,-2.541177750E0,1.536311817E1,7.830213070E0
1.566100053E1,-6.681957245E0,1.258445263E1,6.752246380E0
1.567766647E1,-1.226022530E1,1.367887020E1,6.633502483E0
1.569433241E1,-1.564397526E1,1.546690655E1,4.980959415E0
1.571099835E1,-1.535025597E1,1.675843239E1,3.489333630E0
1.572766428E1,-8.231309891E0,1.670160294E1,4.190131664E0
1.574433022E1,2.632105052E-1,1.594636822E1,4.814957142E0
1.576099616E1,5.023731232E0,1.586800289E1,3.694817305E0
1.577766210E1,9.897013664E0,1.594307804E1,4.359124660E0
1.579432803E1,1.486182117E1,1.758006859E1,1.179272747E1
1.581099397E1,2.524039078E1,1.860718727E1,1.798954010E1
1.582765991E1,4.281298065E1,1.533171177E1,1.639562035E1
1.584432585E1,5.785546112E1,1.029242706E1,8.654839516E0
1.586099178E1,6.339633942E1,3.039782047E0,4.248755932E0
1.587765772E1,5.277370453E1,-5.810670853E0,6.792924404E0
1.589432366E1,3.130529785E1,-1.238883877E1,8.615358353E0
1.591098960E1,1.252403355E1,-1.525514126E1,9.338289261E0
1.592765553E1,2.601297379E0,-1.933370781E1,6.054140568E0
1.594432147E1,-2.835195780E0,-2.437059975E1,1.131206870E0
1.596098741E1,-9.945767403E0,-2.923760033E1,-1.738684773E0
1.597765335E1,-2.046999931E1,-3.380490112E1,-5.049154758E0
1.599431928E1,-2.814467812E1,-3.779642868E1,-8.030312538E0
1.601098522E1,-2.684059143E1,-4.094059753E1,-7.939385414E0
1.602765116E1,-1.387837124E1,-4.401806641E1,-4.621138573E0
1.604431710E1,-1.778465390E0,-4.265445709E1,-4.608277321E0
1.606098303E1,3.889832258E0,-3.940021896E1,-8.848658562E0
1.607764897E1,1.457647705E1,-3.663202286E1,-7.885247707E0
1.609431491E1,3.541317749E1,-3.394727325E1,-1.589731574E0
1.611098085E1,6.314898300E1,-3.144288635E1,9.938887596E0
1.612764678E1,7.756962585E1,-2.057917213E1,1.886022758E1
1.614431272E1,7.811249542E1,-5.414957523E0,2.033659935E1
1.616097866E1,6.772645569E1,6.248258114E0,2.042004967E1
1.617764460E1,4.028496552E1,1.209153080E1,1.632204056E1
1.619431053E1,1.278664589E1,1.460399437E1,7.449754238E0
1.621097647E1,-1.852941990E0,1.536880112E1,2.038984060E0
1.622764241E1,-5.174180031E0,1.538076496E1,3.045764208E0
1.624430835E1,-6.275775433E0,1.568525124E1,6.740581512E0
1.626097428E1,-5.225027561E0,1.470718575E1,1.055773163E1
1.627764022E1,-5.057829022E-1,1.449272823E1,1.317099285E1
1.629430616E1,4.142873287E0,1.412722492E1,1.357119274E1
1.631097210E1,5.909972668E0,1.313749409E1,1.209123230E1
1.632763803E1,7.932506084E0,1.163779163E1,1.002861881E1
1.634430397E1,9.620044708E0,9.872187614E0,5.869294643E0
1.636096991E1,9.941879272E0,7.994121552E0,-2.560320199E-1
1.637763585E1,7.575676441E0,4.496711731E0,-4.335495472E0
1.639430178E1,4.472484589E0,1.821536273E-1,-2.627917528E0
1.641096772E1,3.194119215E0,-5.868397713E0,3.437887907E0
1.642763366E1,1.972882271E0,-1.347159195E1,1.905584097E0
1.644429960E1,3.056830883E0,-2.134936142E1,-5.988935947E0
1.646096553E1,1.578096485E1,-2.800380135E1,-1.154237843E1
1.647763147E1,2.632882500E1,-2.992344284E1,-8.921639442E0
1.649429741E1,2.531875610E1,-2.655315208E1,5.150550842E0
1.651096335E1,1.581536102E1,-1.800389671E1,1.310698509E1
1.652762928E1,3.611068487E0,-9.411270142E0,4.918447018E0
1.654429522E1,-2.605783939E0,-3.107977629E0,-7.240382195E0
1.656096116E1,-9.511470199E-1,-1.609472275E0,-1.243250847E1
1.657762710E1,2.856431901E-1,-2.799303293E0,-1.201047421E1
1.659429303E1,2.260320187E0,-8.973085321E-3,-3.700799227E0
1.661095897E1,1.387837124E1,1.415653706E0,9.140283585E0
1.662762491E1,3.473092270E1,6.032904387E-1,1.804936028E1
1.664429085E1,4.721338272E1,3.486641645E0,1.741047668E1
1.666095678E1,3.734747314E1,2.448754787E0,9.098110199E0
1.667762272E1,1.172931767E1,1.794616938E0,-6.150750637E0
1.669428866E1,-5.934200287E-1,4.462614059E0,-1.627418518E1
1.671095460E1,4.037888050E0,7.298109055E0,-1.434437370E1
1.672762053E1,1.305434322E1,6.516553402E0,-4.480560303E0
1.674428647E1,1.880728722E1,3.426223040E0,8.986544609E0
1.676095241E1,1.578844166E1,-1.229312643E-1,1.651765442E1
1.677761835E1,1.168026447E1,-2.711965322E0,1.608605003E1
1.679428428E1,1.400309753E1,-5.868995667E0,1.421725464E1
1.681095022E1,1.727049637E1,-8.831010818E0,1.392203999E1
1.682761616E1,2.026720810E1,-1.160010529E1,1.095823002E1
1.684428210E1,2.124407768E1,-1.137817097E1,5.852545261E0
1.686094803E1,2.007099724E1,-1.220698452E1,1.854138494E0
1.687761397E1,1.467189121E1,-1.426929855E1,2.282154560E-1
1.689427991E1,8.491230011E0,-1.716551208E1,-1.170688510E0
1.691094585E1,-9.212367237E-2,-1.928794479E1,-6.393921375E0
1.692761178E1,-6.776473522E0,-1.974975967E1,-1.373061466E1
1.694427772E1,-9.006584167E0,-1.956730652E1,-1.831197166E1
1.696094366E1,-8.422137260E0,-1.827937126E1,-1.780260086E1
1.697760960E1,-3.935894251E0,-1.521386528E1,-1.134347439E1
1.699427553E1,3.887140274E0,-1.262243843E1,-9.511470050E-2
1.701094147E1,1.632084465E1,-7.164111137E0,1.241037464E1
1.702760741E1,3.342832947E1,-5.401797295E-1,2.017568207E1
1.704427335E1,5.085166931E1,4.204488277E0,1.772184181E1
1.706093928E1,4.742335129E1,9.245866776E0,8.700901031E0
1.707760522E1,2.632972336E1,9.378668785E0,3.571886063E0
1.709427116E1,9.335597992E0,8.061419487E0,2.150549412E0
1.711093710E1,4.104289055E0,8.097012520E0,2.784647465E0
1.712760303E1,4.132404804E0,7.501499176E0,2.077867270E0
1.714426897E1,3.860819340E0,7.146762848E0,1.060917735E0
1.716093491E1,1.319043517E0,7.481160164E0,6.601199508E-1
1.717760085E1,-1.479960799E0,7.576573849E0,2.670090914E0
1.719426678E1,-3.451347589E0,7.872087479E0,6.871289253E0
1.721093272E1,-3.765106440E0,7.675277710E0,1.087268734E1
1.722759866E1,-1.433599830E0,6.809374809E0,1.386730480E1
1.724426460E1,4.200301170E0,4.856233597E0,1.339472198E1
1.726093053E1,7.062117100E0,3.641277790E0,1.019641590E1
1.727759647E1,6.907779694E0,4.670490742E0,7.567899704E0
1.729426241E1,1.356401443E1,4.995017052E0,1.034357452E1
1.731092835E1,2.751117897E1,6.329315186E0,1.419512081E1
1.732759428E1,4.170689774E1,8.698807716E0,1.180977631E1
1.734426022E1,4.664957428E1,8.845368385E0,7.687839985E0
1.736092616E1,4.396392822E1,6.696912289E0,9.739087105E0
1.737759210E1,3.807489395E1,1.501496196E0,1.293859005E1
1.739425803E1,2.700240517E1,-3.010469913E0,1.411047554E1
1.741092397E1,1.569213104E1,-6.140880108E0,1.586949921E1
1.742758991E1,9.283852577E0,-7.538587570E0,1.732164383E1
1.744425585E1,5.752943993E0,-8.638388634E0,1.534397507E1
1.746092178E1,3.061317444E0,-8.942875862E0,1.111226845E1
1.747758772E1,1.655833244E0,-9.416654587E0,7.054639339E0
1.749425366E1,1.528415531E-1,-9.892228127E0,2.499901533E0
1.751091960E1,-1.220040441E0,-1.017996502E1,-6.128616929E-1
1.752758553E1,-2.015055656E0,-1.080568790E1,-1.093819022E0
1.754425147E1,-2.224726915E0,-1.113858986E1,-5.850451589E-1
1.756091741E1,-1.018146038E0,-1.127527905E1,-1.805982947E0
1.757758335E1,-8.464609832E-2,-1.056520939E1,-5.525625706E0
1.759424928E1,-8.614161611E-1,-9.650253296E0,-8.365009308E0
1.761091522E1,-2.337488651E0,-8.662615776E0,-7.836793423E0
1.762758116E1,-2.012064695E0,-8.763413429E0,-5.621039391E0
1.764424710E1,1.188933730E0,-9.419645309E0,-4.286143780E0
1.766091303E1,5.349154949E0,-9.555438042E0,-4.954339504E0
1.767757897E1,1.083500004E1,-9.105587006E0,-5.705685616E0
1.769424491E1,1.821117401E1,-9.823733330E0,-5.222933769E0
1.771091085E1,2.456471634E1,-9.074481010E0,-3.338585854E0
1.772757678E1,2.722164726E1,-6.211169243E0,-1.039980531E0
1.774424272E1,3.279662704E1,-1.272383451E0,4.322334766E0
1.776090866E1,3.963949966E1,1.561316729E0,1.348385429E1
1.777757460E1,3.789632797E1,4.097110748E0,1.562752438E1
1.779424053E1,3.002693367E1,7.274180889E0,1.103270721E1
1.781090647E1,2.247727776E1,9.640981674E0,6.512365818E0
1.782757241E1,1.659542084E1,1.112512970E1,5.965306759E0
1.784423835E1,1.125464153E1,1.197667599E1,6.780960083E0
1.786090428E1,6.627221584E0,1.314556980E1,7.813164234E0
1.787757022E1,3.875176191E0,1.347129250E1,8.690432549E0
1.789423616E1,4.445864677E0,1.240020561E1,6.745068073E0
1.791090210E1,5.046761990E0,1.136859989E1,9.062815905E-1
1.792756803E1,1.922333837E0,1.061037350E1,-2.846561670E0
1.794423397E1,-1.071386337E0,1.018415260E1,2.282154560E-1
1.796089991E1,6.894320250E-1,1.047488022E1,5.920142174E0
1.797756585E1,6.480062962E0,1.165992546E1,8.452944756E0
1.799423178E1,1.330379486E1,1.384696579E1,6.065506458E0
1.801089772E1,2.155275154E1,1.508525085E1,5.164309502E0
1.802756366E1,2.843899536E1,1.530897999E1,9.632308006E0
1.804422960E1,3.790888977E1,1.479452324E1,1.697887039E1
1.806089553E1,4.769134903E1,1.439940834E1,2.234746742E1
1.807756147E1,5.571807098E1,1.011087227E1,2.517369080E1
1.809422741E1,5.792066574E1,-1.435992718E0,2.371436882E1
1.811089335E1,4.416163635E1,-1.122024441E1,1.710389709E1
1.812755928E1,2.180788612E1,-1.493360615E1,1.265474129E1
1.814422522E1,4.094717979E0,-1.758694649E1,1.425464249E1
1.816089116E1,-8.242376328E0,-2.029173470E1,1.796650887E1
1.817755710E1,-1.415773296E1,-2.599442863E1,1.765035629E1
1.819422303E1,-1.486301804E1,-3.142733192E1,1.135125160E1
1.821088897E1,-1.220638657E1,-3.820500183E1,4.433900356E0
1.822755491E1,-1.419512081E1,-4.276422882E1,8.653044701E-1
1.824422085E1,-1.866880226E1,-4.507808685E1,-1.570289880E-1
1.826088678E1,-1.739402580E1,-4.441886520E1,2.487937450E0
1.827755272E1,-7.733303547E0,-4.225545502E1,4.171886444E0
1.829421866E1,4.916652203E0,-3.833810425E1,2.021337032E0
1.831088460E1,1.693430519E1,-3.197528839E1,-1.421934843E0
1.832755053E1,2.890350342E1,-2.394019127E1,-1.530509233E0
1.834421647E1,4.392235184E1,-1.470329666E1,1.459920883E0
1.836088241E1,6.364638901E1,-9.400203705E0,6.965207577E0
1.837754835E1,7.740122986E1,-3.839582920E0,1.211186981E1
1.839421428E1,7.597929382E1,3.647558928E0,7.123134136E0
1.841088022E1,5.518237686E1,6.192326069E0,8.838488460E-1
1.842754616E1,3.143780136E1,8.896813393E0,6.735197544E0
1.844421210E1,1.267478180E1,1.261705494E1,1.336600780E1
1.846087803E1,-3.617648840E0,1.827578163E1,1.673779488E1
1.847754397E1,-1.095793152E1,2.288854408E1,1.810170364E1
1.849420991E1,-1.064447117E1,2.522663116E1,1.723550224E1
1.851087585E1,-1.260718465E0,2.182344055E1,1.724985886E1
1.852754178E1,3.204587698E0,1.983440590E1,1.071924686E1
1.854420772E1,-4.274777889E0,2.153151512E1,5.536393523E-1
1.856087366E1,-1.037617588E1,2.426441765E1,-3.993022740E-1
1.857753960E1,-5.979364872E0,2.690669250E1,8.385646820E0
1.859420553E1,1.105095196E1,2.817219734E1,1.675574112E1
1.861087147E1,3.244368362E1,2.794697189E1,2.255265236E1
1.862753741E1,4.912225723E1,2.467239380E1,2.767688179E1
1.864420335E1,5.577101135E1,1.657388687E1,3.023720169E1
1.866086928E1,6.362964249E1,1.594218135E0,3.001466942E1
1.867753522E1,6.566622925E1,-1.630409622E1,2.400748825E1
1.869420116E1,5.485725403E1,-2.895883751E1,1.170329571E1
1.871086710E1,3.601227951E1,-3.385365295E1,5.053641319E0
1.872753303E1,1.596910000E1,-3.417518997E1,8.816354752E0
1.874419897E1,-2.458027124E0,-3.281756210E1,1.113500023E1
1.876086491E1,-1.783759499E1,-2.975953484E1,2.960819006E0
1.877753085E1,-2.915444946E1,-2.590290260E1,-5.669793129E0
1.879419678E1,-2.857837868E1,-2.938087082E1,5.679962635E-1
1.881086272E1,-2.277697945E1,-3.673221970E1,1.154387379E1
1.882752866E1,-2.149442673E1,-4.230001831E1,1.143559837E1
1.884419460E1,-1.908634949E1,-4.533501434E1,3.897010803E0
1.886086053E1,-9.109476089E0,-4.476044083E1,5.427819252E0
1.887752647E1,2.863909483E0,-4.259194565E1,8.242376328E0
1.889419241E1,1.506730461E1,-3.949084473E1,6.771090031E0
1.891085835E1,3.635654831E1,-3.631526947E1,7.748558044E0
1.892752428E1,6.274280167E1,-3.028087234E1,1.353799248E1
1.894419022E1,7.827730560E1,-2.004258156E1,9.244371414E0
1.896085616E1,7.839843750E1,-3.026322365E0,8.402695656E0
1.897752210E1,6.520590973E1,3.270988464E0,2.611496735E1
1.899418803E1,2.557149696E1,9.446265221E0,3.053510857E1
1.901085397E1,7.133303165E0,1.442243958E1,1.612014771E1
1.902751991E1,8.353942037E-1,1.838854218E1,7.510172844E0
1.904418585E1,-1.329811215E0,1.923500443E1,1.317189026E1
1.906085178E1,-1.951645970E0,1.781217194E1,2.826940536E1
1.907751772E1,-4.280460835E0,1.659751511E1,3.431517029E1
1.909418366E1,-1.264427280E1,1.787378693E1,2.199572372E1
1.911084960E1,-1.622244072E1,2.076850319E1,3.830310822E0
1.912751553E1,-1.261944771E1,2.230469704E1,-2.271686077E0
1.914418147E1,-1.043031406E1,2.291007996E1,7.536494255E0
1.916084741E1,-5.487041473E0,2.286551476E1,1.774068642E1
1.917751335E1,2.041675806E0,2.439363098E1,1.646590996E1
1.919417928E1,1.725314903E1,2.722613335E1,9.766305923E0
1.921084522E1,3.766781235E1,2.892115021E1,1.527428436E1
1.922751116E1,6.051478195E1,2.093301010E1,2.667369080E1
1.924417710E1,7.016593170E1,4.430909157E0,2.970001411E1
1.926084303E1,5.893312836E1,-1.315693569E1,2.304318047E1
1.927750897E1,4.130310822E1,-2.212403870E1,1.296790218E1
1.929417491E1,2.355225372E1,-2.752822876E1,8.095517159E0
1.931084085E1,4.133900166E0,-2.844766998E1,3.992125511E0
1.932750678E1,-1.026401234E1,-2.644936371E1,-6.168098450E0
1.934417272E1,-1.779871178E1,-2.785574532E1,-1.016560745E1
1.936083866E1,-2.006471443E1,-3.605564880E1,-5.991927147E0
1.937750460E1,-2.660280418E1,-4.367260361E1,-9.720842242E-1
1.939417053E1,-3.231895828E1,-5.039912415E1,-2.112264156E0
1.941083647E1,-2.313261223E1,-5.632375336E1,-2.358425856E0
1.942750241E1,1.191326618E0,-5.705894852E1,2.264208317E0
1.944416835E1,1.670668793E1,-5.082534790E1,3.013760090E0
1.946083428E1,2.885893631E1,-4.446193314E1,4.005585194E0
1.947750022E1,4.492913437E1,-3.649114227E1,2.015474510E1
1.949416616E1,6.890760803E1,-2.327408791E1,2.832324409E1
1.951083210E1,7.838169098E1,-6.062216282E0,1.022632599E1
1.952749803E1,7.661429596E1,6.064310074E0,3.921238184E-1
1.954416397E1,5.145077133E1,1.063519955E1,1.904597092E1
1.956082991E1,2.802713203E1,1.446341610E1,3.199712372E1
1.957749585E1,2.049602127E1,1.768415642E1,1.839392662E1
1.959416178E1,1.366211987E1,1.952124596E1,4.724628448E0
1.961082772E1,9.047262192E0,1.753520203E1,3.620041609E0
1.962749366E1,5.411966801E0,1.386162186E1,7.832306862E0
1.964415960E1,1.432702541E0,1.100818062E1,6.280261993E0
1.966082553E1,-3.925724745E0,1.148136139E1,-2.691925503E-2
1.967749147E1,-5.959922791E0,1.403420353E1,-5.752943993E0
1.969415741E1,-2.850749016E0,1.509512138E1,-7.400402069E0
1.971082335E1,5.682953633E-3,1.598285866E1,-4.683651447E0
1.972748928E1,1.795514345E0,1.699950981E1,2.168495506E-1
1.974415522E1,7.285845757E0,1.817169380E1,7.036394119E0
1.976082116E1,1.604866219E1,1.991935158E1,9.967302322E0
1.977748710E1,2.547010231E1,2.080918121E1,1.172034454E1
1.979415303E1,3.537967682E1,1.790160370E1,1.630768394E1
1.981081897E1,4.429354095E1,9.211469650E0,2.394557381E1
1.982748491E1,4.586502457E1,-9.224331379E-1,2.680290413E1
1.984415085E1,4.629094696E1,-9.880862236E0,2.373919296E1
1.986081678E1,4.232334900E1,-1.566491222E1,1.556471348E1
1.987748272E1,3.088296509E1,-1.855484390E1,9.646664619E0
1.989414866E1,1.494915962E1,-1.860030746E1,8.322834969E0
1.991081460E1,1.654935956E0,-1.956431580E1,7.098906517E0
1.992748053E1,-6.504589081E0,-2.419353104E1,4.318147659E0
1.994414647E1,-1.308245850E1,-2.972783089E1,9.224331379E-1
1.996081241E1,-2.148874283E1,-3.154697418E1,-4.878366947E0
1.997747835E1,-2.974816895E1,-3.565006638E1,-1.083769226E1
1.999414428E1,-3.245475006E1,-4.036153412E1,-8.711668968E0
2.001081022E1,-2.256880379E1,-4.442903519E1,1.654038668E0
2.002747616E1,-7.295716286E0,-4.456243515E1,8.371290207E0
2.004414210E1,1.439581871E0,-4.043092728E1,2.949453115E0
2.006080803E1,1.078534889E1,-3.751437378E1,-2.384447813E0
2.007747397E1,2.294657135E1,-3.385335541E1,-8.952147961E-1
2.009413991E1,3.952045822E1,-2.866960526E1,8.772686005E0
2.011080585E1,5.813392639E1,-2.207049942E1,2.607578468E1
2.012747178E1,7.315307617E1,-1.218844032E1,2.746302414E1
2.014413772E1,7.378388214E1,2.691925503E-2,1.552044582E1
2.016080366E1,5.936413574E1,5.972485542E0,1.306331635E1
2.017746960E1,3.860101318E1,6.823432922E0,1.669203186E1
2.019413553E1,1.873161316E1,9.458528519E0,1.414158154E1
2.021080147E1,9.510572433E0,1.019192886E1,7.734799385E0
2.022746741E1,7.950751305E0,9.797711372E0,2.855833769E0
2.024413335E1,6.394220352E0,8.649754524E0,-1.842473447E-1
2.026079928E1,2.709871531E0,7.632505894E0,-1.362413406E0
2.027746522E1,-1.505384564E0,8.049455643E0,-1.638186216E0
2.029413116E1,-4.145565033E0,9.470193863E0,-7.851449251E-1
2.031079710E1,-4.973781109E0,1.069711399E1,-9.870393202E-3
2.032746303E1,-3.531806231E0,1.192104244E1,1.737787426E-1
2.034412897E1,1.836491346E0,1.227248859E1,1.271187067E-1
2.036079491E1,9.171988487E0,1.183250809E1,1.626820326E0
2.037746085E1,1.366182041E1,1.080329514E1,3.934398651E0
2.039412678E1,1.293260860E1,9.245567322E0,5.192724228E0
2.041079272E1,9.623334885E0,7.958229065E0,3.967299938E0
2.042745866E1,6.412465572E0,6.684051037E0,1.272981644E0
2.044412460E1,5.050351143E0,5.786144257E0,2.308475733E0
2.046079053E1,4.332803726E0,5.021936417E0,7.567301750E0
2.047745647E1,4.025026798E0,5.152345181E0,1.209990597E1
2.049412241E1,7.117451191E0,-2.090728730E-1,1.516541100E1
2.051078835E1,2.388455772E1,-8.760422707E0,2.487189674E1
2.052745428E1,5.274409103E1,-1.435932827E1,3.163730240E1
2.054412022E1,6.067480469E1,-2.132842445E1,2.798286438E1
2.056078616E1,4.530570221E1,-2.473939323E1,1.485733509E1
2.057745210E1,2.783899689E1,-2.211057854E1,1.215852976E0
2.059411803E1,1.535444355E1,-1.988944054E1,-4.844568729E0
2.061078397E1,3.538386583E0,-1.986132431E1,-4.021138668E0
2.062744991E1,-6.567101955E0,-1.983620071E1,-6.418746710E-1
2.064411585E1,-1.181695461E1,-2.038056755E1,7.178468257E-2
2.066078178E1,-1.547558022E1,-2.188445663E1,-4.960919380E0
2.067744772E1,-1.693849182E1,-2.280240250E1,-1.202692509E1
2.069411366E1,-1.649253082E1,-2.203580284E1,-1.819382668E1
2.071077960E1,-1.514925957E1,-2.166910362E1,-2.027049828E1
2.072744553E1,-1.335703468E1,-2.110738754E1,-1.630499268E1
2.074411147E1,-8.502895355E0,-2.103171539E1,-7.996813297E0
2.076077741E1,1.319641709E0,-1.932383728E1,2.589333296E0
2.077744335E1,1.816062737E1,-1.486451340E1,9.379864693E0
2.079410928E1,3.744139481E1,-1.333549976E1,8.250751495E0
2.081077522E1,5.164458847E1,-9.621240616E0,6.613462448E0
2.082744116E1,5.282006454E1,-1.674078584E0,1.062502956E1
2.084410710E1,4.488875580E1,1.449153185E0,2.039342880E1
2.086077303E1,2.858525658E1,5.870790482E0,2.263011932E1
2.087743897E1,8.549854279E0,9.812666893E0,1.564158249E1
2.089410491E1,-1.971386790E0,1.049013424E1,6.556035042E0
2.091077085E1,-2.175374985E0,1.155793190E1,1.124028444E0
2.092743678E1,-3.984049559E-1,1.295324612E1,-2.386840582E0
2.094410272E1,3.951148391E-1,1.216959667E1,-4.034298897E0
2.096076866E1,-2.650051117E-1,1.161565876E1,-3.622135162E0
2.097743460E1,-1.187438250E0,1.040249729E1,-2.123031855E0
2.099410053E1,-6.726822853E-1,9.355637550E0,1.141675472E0
2.101076647E1,5.641079545E-1,7.613064289E0,4.844269276E0
2.102743241E1,1.824527264E0,4.492524624E0,7.933702469E0
2.104409835E1,5.076971531E0,-1.058824062E0,9.743274689E0
2.106076428E1,9.343074799E0,-1.082154083E1,8.880661964E0
2.107743022E1,1.644915962E1,-2.184168434E1,3.206980467E0
2.109409616E1,2.641287422E1,-2.168405724E1,9.499505758E-1
2.111076210E1,3.605923843E1,-1.977578163E1,6.841379166E0
2.112742803E1,3.375225830E1,-1.716610909E1,9.341579437E0
2.114409397E1,1.914975929E1,-1.441526127E1,5.712863922E0
2.116075991E1,5.892325878E0,-1.236431313E1,-1.541276932E0
2.117742585E1,-2.721835852E0,-9.941879272E0,-8.772088051E0
2.119409178E1,-6.459723949E0,-8.769395828E0,-1.233589840E1
2.121075772E1,-6.240780354E0,-1.052303600E1,-1.263410378E1
2.122742366E1,-4.345664978E0,-1.258295727E1,-8.834898949E0
2.124408960E1,8.374879509E-2,-1.356401443E1,-5.602195859E-1
2.126075553E1,1.073779202E1,-1.374915886E1,1.031904793E1
2.127742147E1,2.564567566E1,-1.262752342E1,2.045923233E1
2.129408741E1,3.600749588E1,-1.131027412E1,1.992623138E1
2.131075335E1,3.639184189E1,-8.444869041E0,9.634401321E0
2.132741928E1,2.538485718E1,-4.423730850E0,-1.686042666E0
2.134408522E1,1.266102314E1,-2.045564175E0,-8.954540253E0
2.136075116E1,6.703492641E0,4.372883439E-1,-1.078744221E1
2.137741710E1,6.611069679E0,2.435295343E0,-9.109774590E0
2.139408303E1,6.846762657E0,3.534198999E0,-5.588736534E0
2.141074897E1,6.151648045E0,4.025325775E0,-2.251047850E0
2.142741491E1,5.100301266E0,4.211966038E0,5.333003402E-1
2.144408085E1,4.179962158E0,4.282853603E0,2.036292076E0
2.146074678E1,3.564408541E0,4.344468594E0,2.279462576E0
2.147741272E1,3.672683716E0,4.023531437E0,1.411765337E0
2.149407866E1,4.534996986E0,3.323331594E0,1.022333503E0
2.151074460E1,5.168197632E0,2.503191471E0,1.417747378E0
2.152741053E1,6.367899418E0,7.902296782E-1,1.209870934E0
2.154407647E1,7.421638489E0,-2.511566401E0,2.018944025E0
2.156074241E1,1.010130119E1,-7.997112274E0,4.353142738E0
2.157740835E1,1.862124443E1,-1.416132259E1,5.915655613E0
2.159407428E1,2.899682236E1,-1.502393532E1,4.114757538E0
2.161074022E1,3.311786270E1,-1.320658684E1,2.099402666E0
2.162740616E1,3.108725357E1,-1.328016567E1,2.536391973E0
2.164407210E1,2.312543488E1,-1.306720448E1,6.255436420E0
2.166073803E1,1.397109318E1,-1.126630592E1,9.076275826E0
2.167740397E1,8.146065712E0,-9.136096001E0,8.329116821E0
2.169406991E1,4.870889664E0,-7.527221680E0,4.399204254E0
2.171073585E1,2.561516523E0,-6.090332031E0,-1.279262781E0
2.172740178E1,1.292722464E0,-4.356133461E0,-5.358128071E0
2.174406772E1,7.088737190E-2,-3.107977629E0,-6.682256222E0
2.176073366E1,-1.296012521E0,-2.268096685E0,-5.071886539E0
2.177739960E1,-1.861915112E0,-1.438385487E0,-3.270091295E0
2.179406553E1,-2.547757864E0,-6.930212379E-1,-1.642074585E0
2.181073147E1,-2.331805706E0,-8.584251255E-2,-1.021137118E0
2.182739741E1,-8.883354068E-1,-2.006980032E-1,-1.168295622E0
2.184406335E1,1.019940674E-1,-8.060821295E-1,-8.644071817E-1
2.186072928E1,1.421635747E0,-1.060319543E0,-7.845467329E-1
2.187739522E1,3.058625460E0,-1.351944804E0,-7.680960894E-1
2.189406116E1,5.496912003E0,-7.971090674E-1,-5.503492355E-1
2.191072710E1,9.287740707E0,-1.519442350E-1,-1.196411322E-3
2.192739303E1,1.303190994E1,3.828516304E-1,1.412363529E0
2.194405897E1,1.627538109E1,-3.290131316E-2,3.511467218E0
2.196072491E1,1.979941177E1,-2.369492531E0,4.920839787E0
2.197739085E1,2.048166466E1,-3.947559118E0,6.542874336E0
2.199405678E1,1.795813370E1,-3.961616993E0,1.161625671E1
2.201072272E1,1.348415375E1,-2.449951172E0,1.960319901E1
2.202738866E1,1.058495045E1,-2.767598391E0,2.539113808E1
2.204405460E1,7.466504097E0,-2.403291225E0,2.756262398E1
2.206072053E1,6.226722717E0,-9.131609201E-1,2.223889351E1
2.207738647E1,6.291029930E0,7.031907439E-1,1.339741421E1
2.209405241E1,7.191628456E0,2.045265198E0,5.618048668E0
2.211071835E1,7.702496052E0,2.751147747E0,9.987043738E-1
2.212738428E1,6.965806007E0,2.933301449E0,2.841476910E-2
2.214405022E1,5.804389477E0,2.332104683E0,1.870888233E0
2.216071616E1,4.594219685E0,1.700698733E0,4.728516579E0
2.217738210E1,3.640978813E0,1.501197100E0,6.316752911E0
2.219404803E1,3.246163130E0,1.466202021E0,5.341079235E0
2.221071397E1,2.566003084E0,1.621735573E0,3.878167391E0
2.222737991E1,1.952543259E0,1.740479350E0,3.116053343E0
2.224404585E1,1.256531000E0,1.642672777E0,3.219841957E0
2.226071178E1,1.171286702E0,1.374975681E0,4.463810444E0
2.227737772E1,7.878368497E-1,1.316949725E0,4.201497555E0
2.229404366E1,4.980062246E-1,1.249352574E0,2.616252422E0
2.231070960E1,1.046859939E-2,2.266302109E0,4.843671322E0
2.232737553E1,-1.654038578E-1,2.393420935E0,5.765207291E0
2.234404147E1,-9.272187948E-3,2.307578325E0,7.596912861E0
2.236070741E1,2.904288471E-1,2.794218540E0,8.124829292E0
2.237737335E1,8.380861282E-1,3.989134550E0,7.787740231E0
2.239403928E1,2.890828848E0,5.507380486E0,8.257032394E0
2.241070522E1,4.698606491E0,5.593223095E0,1.016919708E1
2.242737116E1,6.151947021E0,4.889134884E0,1.254586792E1
2.244403710E1,7.919345856E0,4.959722996E0,1.473410416E1
2.246070303E1,9.107083321E0,5.637789249E0,1.494826221E1
2.247736897E1,7.737790108E0,5.393123150E0,1.050658512E1
2.249403491E1,5.271687508E0,5.200500965E0,7.939086437E0
2.251070085E1,2.659921408E0,4.605884552E0,6.956234455E0
2.252736678E1,2.274078846E0,3.611965895E0,6.993921280E0
2.254403272E1,1.655534148E0,3.902394533E0,8.265108109E0
2.256069866E1,1.255633712E0,3.466003656E0,6.755237579E0
2.257736460E1,3.891327679E-1,3.538386583E0,6.900003433E0
2.259403053E1,-1.033699393E0,3.275774240E0,7.435696602E0
2.261069647E1,-2.126621008E0,2.595315218E0,6.591030121E0
2.262736241E1,-2.635095835E0,2.695514679E0,3.870988846E0
2.264402835E1,-1.595414519E0,3.320938826E0,4.188635826E0
2.266069428E1,-1.311864972E0,3.278765202E0,8.065009117E0
2.267736022E1,-1.232004523E0,8.273184299E-1,1.071894836E1
2.269402616E1,1.880459547E0,3.960121572E-1,7.669594765E0
2.271069210E1,1.024457073E1,6.518647194E0,5.105685234E0
2.272735803E1,7.764410496E0,8.952746391E0,6.617351055E0
2.274402397E1,6.817749977E0,6.897610188E0,8.381459236E0
2.276068991E1,4.200600147E0,4.683950424E0,7.367500782E0
2.277735585E1,3.195614576E0,3.081656456E0,6.086144447E0
2.279402178E1,3.488137245E0,2.747857809E0,6.008676529E0
2.281068772E1,3.129513025E0,3.069393158E0,6.646663189E0
2.282735366E1,2.479861498E0,5.748157978E0,1.361097336E1
2.284401960E1,1.252343535E0,6.778866768E0,1.556261921E1
2.286068553E1,-5.527420044E-1,5.864509106E0,1.405723476E1
2.287735147E1,-2.473879576E0,3.435495138E0,1.517348671E1
2.289401741E1,-3.355634689E0,3.205485106E0,1.455284786E1
2.291068335E1,-2.354836702E0,3.746861219E0,1.120887852E1
2.292734928E1,-7.019943595E-1,2.803490877E0,9.296415329E0
2.294401522E1,-5.880361795E-1,2.121237278E0,8.773583412E0
2.296068116E1,-2.779263496E0,2.660220623E0,9.343074799E0
2.297734710E1,-4.901697159E0,3.193521023E0,9.874580383E0
2.299401303E1,-4.306183338E0,2.954836845E0,8.903991699E0
2.301067897E1,-2.702095032E0,3.279961586E0,8.015955925E0
2.302734491E1,-1.623231053E0,3.532404423E0,7.596613884E0
2.304401085E1,-2.213660002E0,4.000201225E0,7.289135933E0
2.306067678E1,-3.111267567E0,4.256532192E0,7.309773922E0
2.307734272E1,-2.546561480E0,3.595216036E0,8.199305534E0
2.309400866E1,-1.769492388E0,3.457628727E0,9.337391853E0
2.311067460E1,-1.615454435E0,3.855435371E0,9.540482521E0
2.312734053E1,-2.204986095E0,4.375575542E0,8.757431984E0
2.314400647E1,-3.225824118E0,4.490729809E0,8.051548958E0
2.316067241E1,-3.633800268E0,3.918546200E0,8.681758881E0
2.317733835E1,-2.533999205E0,3.285943747E0,9.384351730E0
2.319400428E1,-1.313061476E0,3.627219915E0,1.034357452E1
2.321067022E1,-1.028315544E0,4.495814800E0,1.115474129E1
2.322733616E1,-1.992323995E0,5.402096272E0,1.123280716E1
2.324400210E1,-2.723032236E0,5.022235394E0,1.031635571E1
2.326066803E1,-2.410768747E0,4.541876316E0,9.447462082E0
2.327733397E1,-2.158625126E0,3.838685751E0,8.911170959E0
2.329399991E1,-1.977368832E0,2.667398930E0,8.634500504E0
2.331066585E1,-2.367398977E0,3.167199850E0,7.985746384E0
2.332733178E1,-2.254637241E0,4.405784607E0,8.639585495E0
2.334399772E1,-1.520638824E0,4.817350388E0,9.090332985E0
