"Time (s)","Gyroscope x (rad/s)","Gyroscope y (rad/s)","Gyroscope z (rad/s)"
2.835115900E-2,-1.220584154E0,-8.751401305E-1,-4.305069447E-1
4.501709600E-2,-1.031674266E0,-1.152396441E0,-4.708240330E-1
6.168303400E-2,-5.771908760E-1,-7.682388425E-1,-5.975021124E-1
7.834897100E-2,-1.569922417E-1,-1.216384470E-1,-6.612611413E-1
9.501490900E-2,-1.371391416E-1,3.180314898E-1,-6.248382926E-1
1.116808460E-1,-5.948295593E-1,3.311650753E-1,-7.199041247E-1
1.283467840E-1,-1.352836370E0,5.940660089E-2,-1.081612468E0
1.450127210E-1,-2.114890337E0,-4.198931754E-1,-1.476460218E0
1.616786590E-1,-2.436968565E0,-7.121156454E-1,-1.368108034E0
1.783445960E-1,-1.484325051E0,-1.475085735E0,-7.454841137E-1
1.950105340E-1,-7.918334752E-2,-1.126434684E0,-3.016908467E-1
2.116764710E-1,4.772381112E-2,-9.353867173E-1,-1.276707351E-1
2.283424090E-1,-7.547997832E-1,-1.788306594E0,-7.246383280E-2
2.450083460E-1,-1.208672285E0,-3.367162943E0,-4.207331315E-2
2.616742840E-1,-1.241582632E0,-2.328082085E0,-7.628174126E-2
2.783402210E-1,-1.660712242E0,-9.987639189E-1,-7.400626540E-1
2.950061590E-1,-2.242484570E0,-1.788993835E0,-1.371620536E0
3.116720960E-1,-2.509203434E0,-1.653763652E0,-1.521893263E0
3.283380340E-1,-2.209727049E0,-2.365421057E0,-1.195309639E0
3.450039710E-1,-1.518762589E0,-1.765322804E0,-8.756746650E-1
3.616699090E-1,-5.739074349E-1,-8.843795061E-1,-2.512181364E-2
3.783358460E-1,-4.021017551E-1,-8.471167088E-1,8.636100590E-2
3.950017840E-1,-7.139481902E-1,-2.541961074E-1,-5.524508357E-1
4.116677210E-1,-1.040455461E0,-3.702604175E-1,-8.842267394E-1
4.283336590E-1,-1.941786408E-1,-8.687260747E-1,-5.778780580E-1
4.449995960E-1,9.584468603E-1,-1.502116442E0,-2.693150043E-1
4.616655340E-1,1.333823204E0,-1.494633436E0,-4.837285578E-1
4.783314710E-1,2.147953212E-1,-1.456683397E0,-6.433933377E-1
4.949974090E-1,-1.140179157E0,-1.446298718E0,-5.647444725E-1
5.116633460E-1,-1.133154154E0,-1.311984777E0,-6.165152788E-1
5.283292840E-1,-4.017963111E-1,-1.701182008E0,-5.918515921E-1
5.449952210E-1,-4.546361268E-1,-1.502116442E0,-9.195805788E-1
5.616611590E-1,-1.686903119E0,-7.774781585E-1,-1.416137218E0
5.783270960E-1,-2.407570839E0,-2.591593862E-1,-1.326951027E0
5.949930340E-1,-2.150167704E0,4.106538594E-1,-9.218713045E-1
6.116589710E-1,-1.062981129E0,5.901717544E-1,-2.808450758E-1
6.283249090E-1,-2.792415619E-1,3.123809695E-1,4.203513265E-1
6.449908460E-1,-1.762344837E-1,6.436223984E-1,7.177661061E-1
6.616567840E-1,3.535379842E-2,1.467144489E0,4.476875365E-1
6.783227210E-1,3.546833694E-1,2.551200390E0,2.551124096E-1
6.949886590E-1,9.962440729E-1,3.599368095E0,8.754456043E-1
7.116545960E-1,1.492877126E0,3.564548731E0,1.582368851E0
7.283205340E-1,1.553887248E0,1.322369576E0,1.777540207E0
7.449864710E-1,2.297004223E0,-1.263192058E0,1.957516193E0
7.616524090E-1,3.520490170E0,-2.630689144E0,2.504316568E0
7.783183460E-1,4.375242710E0,-1.881158113E0,2.842812061E0
7.949842840E-1,3.356396437E0,-4.946477413E-1,2.133903503E0
8.116502210E-1,1.589241028E0,-2.848920524E-1,1.362075686E0
8.283161590E-1,9.225585461E-1,-1.056643367E0,8.452841640E-1
8.449820960E-1,1.121013284E0,-1.911319494E0,5.750528574E-1
8.616480340E-1,1.398193121E0,-2.216370106E0,7.005855441E-1
8.783139710E-1,1.293048024E0,-1.322293162E0,8.930079341E-1
8.949799090E-1,6.619483232E-1,-1.463021189E-1,9.861648083E-1
9.116458460E-1,-2.813032269E-1,-3.642281145E-2,6.910407543E-1
9.283117840E-1,-9.345467687E-1,-2.244928032E-1,2.506836355E-1
9.449777210E-1,-1.046945930E0,-1.715002805E-1,1.416442692E-1
9.616436590E-1,-5.875755548E-1,1.306487024E-1,9.669225812E-1
9.783095960E-1,1.359174121E-2,2.223547846E-1,1.321224213E0
9.949755340E-1,2.427423894E-1,-1.752418280E-1,1.089324594E0
1.011641471E0,3.512472510E-1,-7.302888632E-1,9.740238786E-1
1.028307409E0,4.902189970E-1,-1.013424635E0,5.821541548E-1
1.044973346E0,4.111883640E-1,-9.213368297E-1,4.902189970E-2
1.061639284E0,6.711876392E-2,-1.357494235E0,-4.843394160E-1
1.078305221E0,2.266308367E-1,-2.106261730E0,-7.960331440E-1
1.094971159E0,5.213730931E-1,-2.070755243E0,-9.292780161E-1
1.111637096E0,-1.901316643E-1,-1.394986033E0,-2.961930633E-1
1.128303034E0,-1.328859925E0,-1.651854753E0,-2.061668597E-2
1.144968971E0,-3.160003424E0,-1.448054910E0,-1.366809964E0
1.161634909E0,-4.104247570E0,-1.464548349E0,-2.346102476E0
1.178300846E0,-3.378082275E0,-6.000219584E-1,-2.255160093E0
1.194966784E0,-2.098625898E0,6.369792223E-1,-1.585804939E0
1.211632721E0,-1.081383348E0,1.216460824E0,-9.679915905E-1
1.228298659E0,-4.996110201E-1,1.073671222E0,-6.036871076E-1
1.244964596E0,-3.987419903E-1,5.967385173E-1,-5.411498547E-1
1.261630534E0,-4.222602844E-1,2.096029818E-1,-5.351175666E-1
1.278296471E0,-2.328158319E-1,1.931859925E-2,-2.295324355E-1
1.294962409E0,2.244164497E-1,-4.617374241E-1,4.665479660E-1
1.311628346E0,1.360319495E0,-9.544762373E-1,9.051488638E-1
1.328294284E0,2.484005213E0,-9.046907425E-1,8.545234799E-1
1.344960221E0,2.705291033E0,-6.588176489E-1,6.461422443E-1
1.361626159E0,2.242637396E0,-2.162461281E-1,7.999274135E-1
1.378292096E0,1.983554244E0,8.704823256E-2,1.248225808E0
1.394958034E0,2.361984968E0,6.330086291E-2,1.573893070E0
1.411623971E0,3.166570187E0,-2.412915789E-2,1.622915030E0
1.428289909E0,4.100658894E0,-1.298087686E-1,1.637423038E0
1.444955846E0,4.849960804E0,-1.141553521E-1,1.677816510E0
1.461621784E0,5.125537395E0,2.687804960E-2,1.775020361E0
1.478287721E0,5.155240536E0,4.075995386E-1,1.925369382E0
1.494953659E0,5.353771687E0,1.089935541E0,2.244240761E0
1.511619596E0,5.550164700E0,1.666744590E0,2.548527956E0
1.528285534E0,4.569268703E0,5.814669132E-1,2.639852047E0
1.544951471E0,3.324097157E0,-1.466075420E0,2.100000381E0
1.561617409E0,2.463541269E0,-1.238604665E0,1.409875870E0
1.578283346E0,2.147876978E0,4.604393244E-1,1.700418472E0
1.594949284E0,2.784627199E0,1.502269268E0,2.177580118E0
1.611615221E0,3.585165501E0,7.542653084E-1,1.760283232E0
1.628281159E0,3.157254696E0,-6.702713966E-1,9.498183727E-1
1.644947096E0,1.437288523E0,-7.425061464E-1,2.835939825E-1
1.661613034E0,-1.120936871E-1,7.385355234E-1,-2.781725526E-1
1.678278971E0,-9.919680357E-1,2.396575212E0,-5.656607747E-1
1.694944909E0,-1.272813082E0,3.186347008E0,-5.150353909E-1
1.711610846E0,-1.086346626E0,2.657261848E0,-3.513999581E-1
1.728276784E0,-7.558687925E-1,1.331990600E0,-3.083339930E-1
1.744942721E0,-7.405208349E-1,3.184132576E-1,-2.693150043E-1
1.761608659E0,-1.082452416E0,1.369100660E-1,-2.467130125E-1
1.778274596E0,-1.357646942E0,5.033525825E-1,-3.359756172E-1
1.794940534E0,-1.392924428E0,9.931897521E-1,-5.603920817E-1
1.811606471E0,-1.259908557E0,1.292055368E0,-7.192932963E-1
1.828272409E0,-1.011973858E0,1.292742610E0,-6.905062795E-1
1.844938346E0,-6.924152374E-1,9.921207428E-1,-4.263836145E-1
1.861604284E0,-1.613446623E-1,6.528617144E-1,-2.603811212E-2
1.878270221E0,4.880045950E-1,2.037997693E-1,3.494910002E-1
1.894936159E0,1.015180945E0,-3.837758005E-1,6.431642771E-1
1.911602096E0,1.128572702E0,-8.365029693E-1,6.619483232E-1
1.928268034E0,4.462367296E-1,-7.318923473E-1,3.023017049E-1
1.944933971E0,-8.336013556E-1,-3.103956580E-1,-2.006690800E-1
1.961599909E0,-1.880928993E0,-1.196531355E-1,-3.701077104E-1
1.978265846E0,-2.049069643E0,-5.862011313E-1,-1.382845193E-1
1.994931784E0,-1.467297196E0,-1.251661897E0,1.331685185E-1
2.011597721E0,-8.377246857E-1,-1.173394918E0,4.337139800E-2
2.028263659E0,-7.366265655E-1,-7.521272451E-2,-3.009272516E-1
2.044929596E0,-1.300225735E0,1.197371364E0,-5.704713464E-1
2.061595534E0,-1.831830740E0,1.873904109E0,-7.001274228E-1
2.078261471E0,-1.872987747E0,1.585270405E0,-7.368556261E-1
2.094927409E0,-1.617493629E0,8.278744817E-1,-6.905062795E-1
2.111593346E0,-1.262199402E0,7.971785218E-2,-5.836812854E-1
2.128259284E0,-5.792525411E-1,-2.351065874E-1,-4.570795596E-1
2.144925221E0,5.192350596E-3,-1.000291109E-1,-4.287507236E-1
2.161591159E0,1.784488708E-1,2.180787325E-1,-3.968330324E-1
2.178257096E0,1.652389169E-1,4.473057389E-1,-2.855029404E-1
2.194923034E0,1.959348768E-1,5.322159529E-1,-1.608101577E-1
2.211588971E0,3.206276596E-1,4.974730015E-1,-2.672533318E-2
2.228254909E0,5.204567909E-1,5.490147471E-1,9.292780608E-2
2.244920846E0,7.215840220E-1,7.483857274E-1,1.168278903E-1
2.261586784E0,8.280271888E-1,1.098487616E0,1.726456583E-1
2.278252721E0,7.460185885E-1,1.641928196E0,3.688096106E-1
2.294918659E0,4.810560048E-1,2.001651049E0,5.731438994E-1
2.311584596E0,2.183841541E-2,1.394604325E0,7.348703146E-1
2.328250534E0,-3.700313270E-1,-2.338848561E-1,9.001092315E-1
2.344916471E0,-1.043815166E-1,-1.586034060E0,9.643264413E-1
2.361582409E0,9.334014058E-1,-1.398193121E0,9.468404055E-1
2.378248346E0,1.485852242E0,-2.531270981E-1,9.186642766E-1
2.394914284E0,1.204548955E0,8.649845123E-1,7.489202023E-1
2.411580221E0,4.868592322E-1,1.387808442E0,4.008800089E-1
2.428246159E0,-1.467602700E-1,1.059163213E0,-6.719512399E-3
2.444912096E0,-3.215439618E-1,3.876700699E-1,-2.078467458E-1
2.461578034E0,-6.650790572E-2,-2.359465137E-2,-1.672242284E-1
2.478243971E0,2.600756884E-1,1.321758628E-1,-1.908952487E-3
2.494909909E0,1.918115467E-1,5.202277303E-1,-5.199986324E-2
2.511575846E0,-3.413206935E-1,8.999565244E-1,-4.296670258E-1
2.528241784E0,-9.746347666E-1,7.948877811E-1,-9.563851953E-1
2.544907721E0,-1.288008332E0,5.736020207E-1,-9.885319471E-1
2.561573659E0,-7.234929800E-1,9.149990678E-1,-5.691732764E-1
2.578239596E0,4.963276442E-3,8.529199362E-1,-2.310595959E-1
2.594905534E0,2.832885385E-1,4.851793647E-1,-3.629300296E-1
2.611571471E0,1.378263682E-1,1.229365394E-1,-6.557633281E-1
2.628237409E0,-3.055851161E-1,-4.993819445E-2,-9.040798545E-1
2.644903346E0,-7.057015300E-1,2.050214857E-1,-7.573196292E-1
2.661569284E0,-8.576541543E-1,4.059196413E-1,-6.717985272E-1
2.678235221E0,-6.498837471E-1,4.528035223E-1,-6.829468012E-1
2.694901159E0,-4.176024497E-1,2.164752036E-1,-6.886736751E-1
2.711567096E0,-2.714530230E-1,-1.963930279E-1,-7.665589452E-1
2.728233034E0,-1.855501831E-1,-6.256018877E-1,-8.915571570E-1
2.744898971E0,-3.092502989E-2,-9.511927962E-1,-1.002887249E0
2.761564909E0,2.001345754E-1,-1.136437535E0,-1.139110088E0
2.778230846E0,4.203513265E-1,-1.243109822E0,-1.291139126E0
2.794896784E0,7.379246354E-1,-1.505170822E0,-1.324202180E0
2.811562721E0,1.005788803E0,-1.684994102E0,-1.242727995E0
2.828228659E0,9.728021622E-1,-1.752418280E0,-1.440953612E0
2.844894596E0,6.595812440E-1,-1.687666655E0,-1.791742802E0
2.861560534E0,2.163224965E-1,-1.519602537E0,-1.659643292E0
2.878226471E0,-2.971093655E-1,-9.563088417E-1,-1.135139465E0
2.894892409E0,-8.081740737E-1,5.330559015E-1,-5.865828991E-1
2.911558346E0,-9.695187807E-1,1.832594395E0,1.618791744E-2
2.928224284E0,-1.018235207E0,1.406134367E0,-3.295615613E-1
2.944890221E0,-6.801216006E-1,4.970148504E-1,-5.583304167E-1
2.961556159E0,2.881754637E-1,4.809796512E-1,-3.469711840E-1
2.978222096E0,1.226921916E0,-5.966621637E-1,-1.899789423E-1
2.994888034E0,1.515402794E0,-1.586110353E0,-1.051450968E-1
3.011553971E0,1.324736595E0,-9.608902931E-1,3.947713599E-2
3.028219909E0,8.510873318E-1,9.498947114E-2,2.910770774E-1
3.044885846E0,1.362228394E-1,7.510582209E-1,4.103484154E-1
3.061551784E0,-4.311941862E-1,1.037553787E0,2.819140851E-1
3.078217721E0,-3.653734922E-1,1.144607902E0,-1.256854236E-1
3.094883659E0,2.886336111E-2,5.823832154E-1,-3.836230934E-1
3.111549596E0,2.661843300E-1,-8.323032409E-3,-4.103484154E-1
3.128215534E0,2.678641975E-1,-1.092684343E-1,-4.559341967E-1
3.144881471E0,2.364810258E-1,2.008217946E-2,-4.214966893E-1
3.161547409E0,8.636100590E-2,8.414662629E-2,-4.253909588E-1
3.178213346E0,-1.108719558E-1,1.029307172E-1,-4.561632872E-1
3.194879284E0,-3.337612450E-1,2.929860055E-1,-3.988946974E-1
3.211545221E0,-3.288743198E-1,3.042870164E-1,-3.927860558E-1
3.228211159E0,-6.566796452E-2,2.443459183E-1,-3.960694373E-1
3.244877096E0,2.361755967E-1,4.049269855E-1,-3.510945439E-1
3.261543034E0,4.333322048E-1,4.995346665E-1,-1.828776449E-1
3.278208971E0,4.618901312E-1,6.020072699E-1,-1.272125840E-1
3.294874909E0,3.989710510E-1,8.585704565E-1,-2.071595192E-1
3.311540846E0,2.964221239E-1,1.042593479E0,-2.325867712E-1
3.328206784E0,2.495382577E-1,9.095013142E-1,-2.054796368E-1
3.344872721E0,3.159697950E-1,3.904953003E-1,-1.324812919E-1
3.361538659E0,4.258491099E-1,-2.582430840E-1,-9.162971983E-4
3.378204596E0,4.729620516E-1,-7.290670872E-1,7.673988491E-2
3.394870534E0,3.921751976E-1,-7.192932963E-1,9.399681538E-2
3.411536471E0,2.182314396E-1,-3.568213880E-1,3.619373962E-2
3.428202409E0,4.199695215E-2,-2.435059696E-1,-7.185296714E-2
3.444868346E0,-1.266017258E-1,-3.416261375E-1,-1.860083193E-1
3.461534284E0,-2.530507445E-1,-3.565159440E-1,-1.716530025E-1
3.478200221E0,-1.428660005E-1,-2.810741663E-1,-8.796452731E-2
3.494866159E0,1.052214578E-1,-3.546833694E-1,-2.580903657E-2
3.511532096E0,2.225074917E-1,-6.381246448E-1,-3.252854943E-2
3.528198034E0,1.698967665E-1,-6.952404976E-1,-1.049160287E-1
3.544863971E0,7.047852129E-2,-3.057378232E-1,-1.992182732E-1
3.561529909E0,-1.603520103E-2,1.853974611E-1,-3.692677617E-1
3.578195846E0,9.926552884E-3,4.628064334E-1,-5.306124091E-1
3.594861784E0,1.013271958E-1,2.515235841E-1,-5.358047485E-1
3.611527721E0,2.022725940E-1,-2.033416182E-1,-3.624718785E-1
3.628193659E0,2.053269297E-1,-5.825359225E-1,-2.076940238E-1
3.644859596E0,5.711585656E-2,-7.464767694E-1,-1.848629564E-1
3.661525534E0,-1.135444939E-1,-7.360156775E-1,-4.093557596E-1
3.678191471E0,-2.417497337E-1,-6.708822250E-1,-8.319214582E-1
3.694857409E0,-3.733910918E-1,-7.037925720E-1,-1.144302487E0
3.711523346E0,-5.229002237E-1,-8.030580878E-1,-1.156901479E0
3.728189284E0,-6.343830824E-1,-9.240093231E-1,-9.215658903E-1
3.744855221E0,-6.954695582E-1,-8.971312642E-1,-5.006036758E-1
3.761521159E0,-7.072287202E-1,-6.272817850E-1,-9.789107740E-2
3.778187096E0,-7.296016216E-1,-4.501309991E-1,2.070067972E-1
3.794853034E0,-7.914516926E-1,-2.940550447E-1,4.267654121E-1
3.811518971E0,-8.555161357E-1,1.572976820E-2,4.312705398E-1
3.828184909E0,-1.047251344E0,-3.375028074E-2,9.621120058E-3
3.844850846E0,-1.079474449E0,-4.848739132E-2,-1.657734364E-1
3.861516784E0,-8.349757791E-1,3.185659945E-1,-5.879573524E-2
3.878182721E0,-5.091558099E-1,6.275108457E-1,2.748127878E-1
3.894848659E0,-2.832885459E-2,4.148535430E-1,3.114646673E-1
3.911514596E0,3.383427262E-1,-6.128500700E-1,-2.282343507E-1
3.928180534E0,8.277217746E-1,-8.962913752E-1,-2.486983240E-1
3.944846471E0,1.141248107E0,-9.030871987E-1,-2.175442129E-1
3.961512409E0,8.910226226E-1,-9.401972294E-1,-2.122755051E-1
3.978178346E0,3.178787529E-1,-9.837977290E-1,-1.609628648E-1
3.994844284E0,-1.731801629E-1,-9.574542046E-1,-3.064250350E-1
4.011510221E0,-5.300015807E-1,-9.078977704E-1,-5.106829405E-1
4.028176159E0,-7.220421433E-1,-8.754456043E-1,-5.203040838E-1
4.044842096E0,-7.667880058E-1,-6.629409790E-1,-4.147008359E-1
4.061508034E0,-7.285326123E-1,-3.145190179E-1,-2.797760665E-1
4.078173971E0,-7.459422350E-1,2.283107117E-2,-1.853974611E-1
4.094839909E0,-7.442623973E-1,1.223256737E-1,-2.064722925E-1
4.111505846E0,-7.344885468E-1,1.481347084E-1,-3.591884971E-1
4.128171784E0,-6.600393653E-1,2.201403975E-1,-6.573668718E-1
4.144837721E0,-4.272999167E-1,2.709185183E-1,-7.683151960E-1
4.161503659E0,-3.786598146E-1,1.688277572E-1,-5.307651162E-1
4.178169596E0,-5.646681190E-1,4.352411721E-3,-2.696968019E-1
4.194835534E0,-8.044325709E-1,6.185005978E-2,-1.519526094E-1
4.211501471E0,-1.203250885E0,4.805978537E-1,-1.001054645E-1
4.228167409E0,-1.222951293E0,8.500946760E-1,-6.948586553E-2
4.244833346E0,-1.033583164E0,8.100066781E-1,-1.640172005E-1
4.261499284E0,-7.711403966E-1,1.143080741E-1,-1.858556122E-1
4.278165221E0,-6.508000493E-1,-3.191768527E-1,-6.360629201E-2
4.294831159E0,-6.036107540E-1,-4.486801922E-1,3.978256881E-2
4.311497096E0,-4.197404683E-1,-5.996401310E-1,1.267544460E-2
4.328163034E0,-2.966512144E-1,-8.919389248E-1,4.805978537E-1
4.344828971E0,-4.035525322E-1,-3.840048611E-1,2.588539571E-2
4.361494909E0,-6.155226231E-1,-5.734493211E-2,1.927278340E-1
4.378160846E0,-6.703477502E-1,-4.873937368E-1,4.295142889E-1
4.394826784E0,-7.793107629E-1,-6.722567081E-1,4.481456876E-1
4.411492721E0,-9.699769020E-1,-1.605810821E-1,9.781472385E-2
4.428158659E0,-1.043891549E0,2.005163580E-1,-2.312123179E-1
4.444824596E0,-9.324087501E-1,-2.401462197E-1,-3.979783952E-1
4.461490534E0,-6.275108457E-1,-9.001092315E-1,-2.975675166E-1
4.478156471E0,-6.504182816E-1,-1.295338750E0,-2.919933498E-1
4.494822409E0,-7.698423266E-1,-1.187979221E0,-2.402989268E-1
4.511488346E0,-6.201041341E-1,-1.409875870E0,9.040798992E-2
4.528154284E0,9.491311759E-2,-2.226296663E0,-3.092502989E-2
4.544820221E0,8.118392825E-1,-2.735757828E0,-2.470184416E-1
4.561486159E0,9.127846956E-1,-2.287841320E0,-4.475347996E-1
4.578152096E0,9.582940936E-1,-1.883754253E0,-2.134208828E-1
4.594818034E0,1.770209789E0,-2.078849316E0,-2.687041461E-1
4.611483971E0,2.831434727E0,-2.675664186E0,-9.020945430E-1
4.628149909E0,2.780656576E0,-1.794109821E0,-1.317482591E0
4.644815846E0,1.950185776E0,-5.721512437E-1,-1.581605315E0
4.661481784E0,2.445520878E0,-1.559461474E0,-1.794262528E0
4.678147721E0,3.720242977E0,-3.017901182E0,-2.036852360E0
4.694813659E0,4.182896614E0,-3.534998178E0,-1.968588114E0
4.711479596E0,3.441612244E0,-2.883587122E0,-1.836412191E0
4.728145534E0,2.640691996E0,-1.872147799E0,-1.686444998E0
4.744811471E0,3.124038935E0,-2.087172270E0,-1.442633510E0
4.761477409E0,4.326755047E0,-3.130605698E0,-1.160566688E0
4.778143346E0,4.795212269E0,-3.496513605E0,-6.762273312E-1
4.794809284E0,3.620671988E0,-1.587255716E0,1.874591261E-1
4.811475221E0,2.020206213E0,7.922152877E-1,1.453705430E0
4.828141159E0,1.288084745E0,1.382539749E0,3.043786526E0
4.844807096E0,1.336419463E0,-1.020907760E-1,4.638678074E0
4.861473034E0,1.424002171E0,-2.209345102E0,5.717159748E0
4.878138971E0,-3.512472659E-2,-1.252272844E0,6.509527683E0
4.894804909E0,-2.976285934E0,1.391397238E0,7.228133678E0
4.911470846E0,-5.271152020E0,1.855272651E0,8.035315514E0
4.928136784E0,-5.426235676E0,-7.289907336E-1,8.589598656E0
4.944802721E0,-3.981998444E0,-2.672915220E0,8.801340103E0
4.961468659E0,-2.176740170E0,-2.783863544E0,9.173356056E0
4.978134596E0,-1.598251343E0,-1.133383274E0,8.502703667E0
4.994800534E0,-4.437169075E0,1.477987289E0,5.523668289E0
5.011466471E0,-8.016530991E0,3.602193356E0,1.622838616E0
5.028132409E0,-7.617712975E0,2.182619810E0,9.369138628E-2
5.044798346E0,-4.256276608E0,-9.773836732E-1,2.435823344E-2
5.061464284E0,-2.005545378E0,-2.417573690E0,-2.122755051E-1
5.078130221E0,-2.956891060E0,-9.398154616E-1,-1.007468700E0
5.094796159E0,-4.266966820E0,3.756818548E-2,-1.222340465E0
5.111462096E0,-2.826624155E0,-1.826256633E0,2.970330045E-2
5.128128034E0,-6.688969582E-2,-2.897026300E0,1.109177709E0
5.144793971E0,1.097494960E0,-5.584067702E-1,6.750056148E-2
5.161459909E0,5.131264329E-1,3.146335363E0,-2.243248224E0
5.178125846E0,-3.293324709E-1,5.148826599E0,-3.548742533E0
5.194791784E0,-6.170498133E-1,4.683729172E0,-3.791408539E0
5.211457721E0,3.536143601E-1,2.870988131E0,-3.140608549E0
5.228123659E0,2.538143158E0,3.236743450E0,-4.433732986E0
5.244789596E0,5.020697594E0,4.700528145E0,-6.680799007E0
5.261455534E0,7.368861675E0,3.996659279E0,-7.445143700E0
5.278121471E0,1.056857109E1,3.603033304E0,-9.339817047E0
5.294787409E0,1.141049576E1,2.370384455E0,-1.046785545E1
5.311453346E0,6.905444622E0,2.031812668E0,-9.413350105E0
5.328119284E0,3.388161421E0,3.025460482E0,-7.597783566E0
5.344785221E0,5.007335186E0,1.732870698E0,-4.773984432E0
5.361451159E0,7.622370720E0,-4.373791814E-1,-2.047847748E0
5.378117096E0,6.608335018E0,-1.321300507E0,4.399753511E-1
5.394783034E0,1.974544048E0,1.133154184E-1,3.342270374E0
5.411448971E0,-1.039768219E0,8.036689758E-1,5.876213551E0
5.428114909E0,-6.531671882E-1,1.619555205E-1,6.943776131E0
5.444780846E0,-1.903607398E-1,-4.909825698E-2,7.116651058E0
5.461446784E0,-1.755549073E0,4.271472096E-1,7.603586674E0
5.478112721E0,-3.760178089E0,1.274645686E0,7.987896919E0
5.494778659E0,-4.591565132E0,9.456950426E-1,8.276759148E0
5.511444596E0,-4.364323616E0,-9.591340423E-1,8.383813858E0
5.528110534E0,-2.452851057E0,-2.719035387E0,7.106037140E0
5.544776471E0,-1.772424102E0,-2.231412649E0,6.301604748E0
5.561442409E0,-4.650666237E0,1.094211563E-1,5.909582138E0
5.578108346E0,-8.286075592E0,2.136881351E0,3.548818827E0
5.594774284E0,-7.938111305E0,1.764177442E0,1.681634426E0
5.611440221E0,-4.579882145E0,-1.088255644E0,1.392389894E0
5.628106159E0,-3.248349905E0,-2.151389360E0,1.327180147E0
5.644772096E0,-4.108371258E0,-1.189964533E0,1.211039424E0
5.661438034E0,-3.989023447E0,-1.774562150E-1,2.430478185E-1
5.678103971E0,-1.186528444E0,1.416748166E0,-1.611079454E0
5.694769909E0,1.961486816E0,1.965915561E0,-2.666195631E0
5.711435846E0,2.884885311E0,2.919933558E0,-3.226893187E0
5.728101784E0,2.195295334E0,4.481304169E0,-3.643121243E0
5.744767721E0,2.310443401E0,4.390208721E0,-4.599200726E0
5.761433659E0,3.422064543E0,3.176802397E0,-5.709829330E0
5.778099596E0,5.176315308E0,1.771584272E0,-6.778232098E0
5.794765534E0,6.190503597E0,1.695913315E0,-7.485460758E0
5.811431471E0,6.438667297E0,2.569602728E0,-8.576923370E0
5.828097409E0,6.610244274E0,2.401156664E0,-8.871971130E0
5.844763346E0,5.739609241E0,7.325795889E-1,-7.843885422E0
5.861429284E0,4.018115997E0,8.577305079E-1,-6.402626514E0
5.878095221E0,4.036823750E0,8.902590871E-1,-4.064236164E0
5.894761159E0,5.021003246E0,-5.310705900E-1,-1.658268809E0
5.911427096E0,3.710927248E0,-5.045742989E-1,4.838049114E-1
5.928093034E0,1.267086267E0,5.070941448E-1,2.757061720E0
5.944758971E0,5.743656158E-1,7.877864838E-1,4.675635338E0
5.961424909E0,3.603338599E-1,5.122864842E-1,6.277170181E0
5.978090846E0,-8.445205688E-1,7.111229897E-1,7.929788589E0
5.994756784E0,-1.963243008E0,1.415679097E0,8.815923691E0
6.011422721E0,-2.714606762E0,1.523496747E0,8.816763878E0
6.028088659E0,-3.358458281E0,3.346011937E-1,8.550580025E0
6.044754596E0,-3.503920317E0,-4.957931340E-1,7.264938354E0
6.061420534E0,-3.680460215E0,2.883281708E-1,5.364385605E0
6.078086471E0,-4.891728878E0,7.414371371E-1,3.928624153E0
6.094752409E0,-6.655829906E0,9.252310395E-1,2.494237185E0
6.111418346E0,-6.877039433E0,1.203403592E0,5.759691000E-1
6.128084284E0,-5.638052940E0,6.203331947E-1,-7.861065865E-1
6.144750221E0,-4.578736782E0,-2.706131041E-1,-1.378187299E0
6.161416159E0,-3.729558468E0,-8.287907839E-1,-1.331914306E0
6.178082096E0,-2.825707674E0,-1.134910345E0,-1.706221700E0
6.194748034E0,-1.857639790E0,-4.935787320E-1,-2.317544699E0
6.211413971E0,-1.182557821E0,5.322159529E-1,-2.299905777E0
6.228079909E0,-1.996000707E-1,8.862120509E-1,-1.969351649E0
6.244745846E0,1.098487616E0,4.980838597E-1,-1.731572628E0
6.261411784E0,2.188804865E0,4.012618065E-1,-1.898644090E0
6.278077721E0,2.323042393E0,1.238833785E0,-2.626260519E0
6.294743659E0,1.786626816E0,3.266675711E0,-3.538357973E0
6.311409596E0,1.912617683E0,4.254215240E0,-4.391736031E0
6.328075534E0,3.595931768E0,2.938641310E0,-5.426999092E0
6.344741471E0,5.749154091E0,1.067638874E0,-6.034275055E0
6.361407409E0,6.599095821E0,6.362156868E-1,-6.357498646E0
6.378073346E0,5.912636757E0,1.309159636E0,-5.707157135E0
6.394739284E0,4.334849358E0,8.399390578E-1,-4.842477798E0
6.411405221E0,2.669479132E0,8.567378521E-1,-4.241158009E0
6.428071159E0,2.461785078E0,1.225929260E0,-3.331045628E0
6.444737096E0,3.013548613E0,1.023122191E0,-1.897727847E0
6.461403034E0,3.287674189E0,6.710349321E-1,-3.145190179E-1
6.478068971E0,2.790430307E0,3.381900191E-1,9.319505692E-1
6.494734909E0,1.591226339E0,4.468475878E-1,2.076024055E0
6.511400846E0,-8.445205539E-2,3.958403766E-1,4.417697906E0
6.528066784E0,-1.376889229E0,-4.864010960E-2,7.391081810E0
6.544732721E0,-9.789871573E-1,-1.929569095E-1,8.544089317E0
6.561398659E0,-1.456148922E-1,-6.185005885E-3,7.834722519E0
6.578064596E0,-1.150411129E0,-7.811433077E-2,8.100831032E0
6.594730534E0,-3.955425739E0,1.353981733E0,9.054237366E0
6.611396471E0,-6.625362873E0,2.537608624E0,8.144965172E0
6.628062409E0,-6.312371254E0,4.654789567E-1,5.954099178E0
6.644728346E0,-4.397080898E0,-1.071991324E0,3.944201231E0
6.661394284E0,-5.156538486E0,1.359174103E-1,2.516075611E0
6.678060221E0,-7.127799511E0,2.499429703E0,4.439459741E-1
6.694726159E0,-6.919876099E0,2.617555618E0,-1.004032612E0
6.711392096E0,-5.251451969E0,1.397735000E0,-1.695226073E0
6.728058034E0,-3.554927588E0,5.022072196E-1,-1.744095325E0
6.744723971E0,-2.116875648E0,-2.153298408E-1,-1.843131781E0
6.761389909E0,-1.189888239E0,-4.948768318E-1,-2.203083754E0
6.778055846E0,-5.940660238E-1,-2.134208828E-1,-2.157192707E0
6.794721784E0,-9.766200930E-2,9.934188426E-2,-1.658726931E0
6.811387721E0,7.739656568E-1,1.133154184E-1,-1.305265307E0
6.828053659E0,2.022726059E0,3.504836559E-2,-1.452636480E0
6.844719596E0,2.726671219E0,5.527562499E-1,-2.316475630E0
6.861385534E0,2.126878500E0,2.250654936E0,-3.196502686E0
6.878051471E0,1.632994294E0,3.761399984E0,-3.845775604E0
6.894717409E0,3.357160091E0,2.711017847E0,-4.632645607E0
6.911383346E0,6.183784008E0,8.635337353E-1,-5.517178059E0
6.928049284E0,7.688649654E0,2.794706449E-2,-5.990750790E0
6.944715221E0,6.633075237E0,2.906189263E-1,-5.198077679E0
6.961381159E0,4.088136196E0,1.393535256E0,-4.363178253E0
6.978047096E0,2.935510635E0,1.570533395E0,-4.080729485E0
6.994713034E0,2.841208458E0,1.435837626E0,-3.862345219E0
7.011378971E0,3.025842428E0,1.705458164E0,-2.914817572E0
7.028044909E0,3.393811941E0,1.326951027E0,-1.572213173E0
7.044710846E0,3.675115347E0,6.201041341E-1,-5.054142475E-1
7.061376784E0,3.139921427E0,7.668643594E-1,3.169624507E-1
7.078042721E0,1.238375664E0,9.660826325E-1,2.212094069E0
7.094708659E0,-9.987639189E-1,6.439278126E-1,5.543521404E0
7.111374596E0,-1.139720917E0,9.995274991E-2,8.007139206E0
7.128040534E0,3.363574147E-1,-5.481747985E-1,8.088460922E0
7.144706471E0,2.897026241E-1,-5.564214587E-1,7.619698048E0
7.161372409E0,-2.366566420E0,1.219744205E0,8.059215546E0
7.178038346E0,-5.799168587E0,3.293553829E0,8.454063416E0
7.194704284E0,-6.884904385E0,1.916130066E0,7.030290127E0
7.211370221E0,-4.358749390E0,-1.130252600E0,4.681896687E0
7.228036159E0,-2.274784088E0,-8.810960650E-1,1.891924620E0
7.244702096E0,-3.579514980E0,1.004185319E0,1.908188909E-1
7.261368034E0,-6.124377728E0,2.904967546E0,-1.844506145E0
7.278033971E0,-6.270068645E0,2.977889538E0,-2.662835836E0
7.294699909E0,-4.020101070E0,1.267697096E0,-2.850371361E0
7.311365846E0,-2.039143085E0,2.112828493E-1,-2.695288181E0
7.328031784E0,-1.191033602E0,-2.959639728E-1,-2.298073292E0
7.344697721E0,-9.556216002E-1,-4.621955752E-1,-1.871460557E0
7.361363659E0,-6.717221737E-1,-3.491855860E-1,-1.621387839E0
7.378029596E0,-1.989891976E-1,-3.451386094E-1,-1.515326500E0
7.394695534E0,2.218966335E-1,-5.457313061E-1,-1.215315461E0
7.411361471E0,3.373500705E-1,-5.719221383E-2,-6.319395900E-1
7.428027409E0,6.025417447E-1,1.209817648E0,-3.031416535E-1
7.444693346E0,1.674685836E0,1.316031814E0,-9.821178317E-1
7.461359284E0,3.099527836E0,5.741365552E-1,-2.176129341E0
7.478025221E0,3.537976027E0,1.395902395E0,-2.717966557E0
7.494691159E0,3.348531723E0,3.208490849E0,-3.117013931E0
7.511357096E0,4.028347969E0,3.170922756E0,-3.662745237E0
7.528023034E0,5.379199028E0,1.023962140E0,-4.659982204E0
7.544688971E0,6.375671864E0,2.072358727E-1,-5.575820923E0
7.561354909E0,6.354597092E0,-5.077813566E-2,-4.755582333E0
7.578020846E0,4.339965343E0,-3.233001828E-1,-4.504898548E0
7.594686784E0,7.674752474E-1,1.040379047E0,-4.792768478E0
7.611352721E0,-6.195695996E-1,2.708956242E0,-4.442743301E0
7.628018659E0,9.341649413E-1,2.000963926E0,-3.286834240E0
7.644684596E0,3.363268852E0,6.940187216E-1,-2.183001757E0
7.661350534E0,4.029035091E0,5.290852785E-1,-9.883792400E-1
7.678016471E0,2.074649572E0,1.428660035E0,1.081001639E0
7.694682409E0,-9.653190970E-1,1.641011834E0,4.175413609E0
7.711348346E0,-2.191324711E0,2.184605151E-1,6.998295784E0
7.728014284E0,-1.007621408E0,-1.387426615E0,7.620843410E0
7.744680221E0,-6.296488643E-1,-9.976949096E-1,7.276850224E0
7.761346159E0,-3.174740553E0,1.239902735E0,7.658258915E0
7.778012096E0,-6.376817226E0,2.823569775E0,7.907415390E0
7.794678034E0,-6.879330158E0,6.456840634E-1,7.474846840E0
7.811343971E0,-4.676780701E0,-1.905898094E0,6.441034794E0
7.828009909E0,-3.558439970E0,-1.470122457E0,4.660058498E0
7.844675846E0,-5.752971649E0,8.374956250E-1,3.148473501E0
7.861341784E0,-7.629624844E0,2.297996998E0,1.706145287E0
7.878007721E0,-5.708683968E0,1.641317248E0,-1.737146676E-1
7.894673659E0,-2.590448380E0,4.724275470E-1,-1.818697214E0
7.911339596E0,-1.376507401E0,-1.409570426E-1,-2.232328892E0
7.928005534E0,-1.527238250E0,-2.636645138E-1,-2.060446978E0
7.944671471E0,-1.559919596E0,-4.977020919E-1,-1.843971729E0
7.961337409E0,-9.234748483E-1,-7.570905089E-1,-1.601229310E0
7.978003346E0,-5.513054505E-2,-1.206381559E0,-1.278387308E0
7.994669284E0,6.562978625E-1,-1.550603867E0,-8.029053807E-1
8.011335221E0,1.002658129E0,-1.062752008E0,-3.945422769E-1
8.028001159E0,1.145524144E0,-9.132428467E-2,-6.992111206E-1
8.044667096E0,1.597716808E0,6.884446144E-1,-1.702098370E0
8.061333034E0,2.059836149E0,1.693699002E0,-2.585256100E0
8.077998971E0,2.586096048E0,2.442008257E0,-3.178100348E0
8.094664909E0,3.908541918E0,2.327165842E0,-4.151818752E0
8.111330846E0,5.328420639E0,1.712483048E0,-5.116450787E0
8.127996784E0,6.025493622E0,1.001054645E0,-4.811553001E0
8.144662721E0,5.331933022E0,4.231765866E-1,-3.950844288E0
8.161328659E0,3.021718979E0,1.299920201E0,-4.204123974E0
8.177994596E0,1.456530690E0,2.600374937E0,-4.951899052E0
8.194660534E0,1.847025990E0,2.735146999E0,-4.408534527E0
8.211326471E0,3.412672520E0,1.297095060E0,-2.863276005E0
8.227992409E0,4.359742165E0,5.105302334E-1,-2.111988544E0
8.244658346E0,3.814850569E0,1.123914838E0,-2.026772976E0
8.261324284E0,2.286237717E0,1.897956848E0,-1.114828229E0
8.277990221E0,7.182242870E-1,1.477300167E0,1.262810230E0
8.294656159E0,-4.647153914E-1,-1.708130687E-1,4.516199589E0
8.311322096E0,-7.268527150E-1,-1.661170363E0,6.757615089E0
8.327988034E0,-3.344484791E-2,-1.555643559E0,6.665527344E0
8.344653971E0,-2.825249732E-1,-2.165515572E-1,6.163473129E0
8.361319909E0,-2.701473236E0,8.173370957E-1,6.742801666E0
8.377985846E0,-5.611403942E0,1.474856615E0,7.603815556E0
8.394651784E0,-6.770367146E0,4.088976085E-1,8.046005249E0
8.411317721E0,-6.097652435E0,-1.090622663E0,7.279522896E0
8.427983659E0,-5.110952854E0,-4.269181192E-1,5.580173492E0
8.444649596E0,-6.196917534E0,1.204167247E0,4.255283833E0
8.461315534E0,-7.276315689E0,1.766849995E0,2.449949503E0
8.477981471E0,-5.826962948E0,2.680474758E0,-6.082686186E-1
8.494647409E0,-3.526751518E0,2.728961945E0,-2.924744129E0
8.511313346E0,-2.443611860E0,1.742568135E0,-2.977736712E0
8.527979284E0,-2.262032270E0,8.018363714E-1,-2.072435141E0
8.544645221E0,-2.080070972E0,-1.404988952E-2,-1.471649647E0
8.561311159E0,-1.531208873E0,-6.355284452E-1,-1.164231896E0
8.577977096E0,-7.958804369E-1,-8.980475664E-1,-1.066417217E0
8.594643034E0,-2.731329203E-1,-8.824705482E-1,-1.002505422E0
8.611308971E0,-2.492328286E-1,-5.607738495E-1,-5.017490387E-1
8.627974909E0,-5.574141163E-3,-5.974257588E-1,2.039524764E-1
8.644640846E0,7.414371371E-1,-9.014837146E-1,1.075885594E-1
8.661306784E0,1.390099168E0,-6.837867498E-1,-1.223562121E0
8.677972721E0,1.205236197E0,3.737728894E-1,-2.789819479E0
8.694638659E0,5.781835318E-1,1.746462345E0,-3.166646719E0
8.711304596E0,9.835686684E-1,1.851225734E0,-2.582049131E0
8.727970534E0,2.958418131E0,4.848739207E-1,-2.270889759E0
8.744636471E0,5.059640408E0,4.541779757E-1,-3.078223944E0
8.761302409E0,5.921723366E0,1.726838350E0,-4.401509762E0
8.777968346E0,6.285569668E0,1.937586665E0,-3.930304050E0
8.794634284E0,6.866272926E0,6.708058715E-1,-3.055927515E0
8.811300221E0,6.942860126E0,-3.446041048E-1,-3.437794209E0
8.827966159E0,5.351709843E0,2.171624303E-1,-4.109134674E0
8.844632096E0,3.480173111E0,1.520136952E0,-4.081492901E0
8.861298034E0,3.131140232E0,1.585117698E0,-3.133049011E0
8.877963971E0,3.716730356E0,8.123738170E-1,-2.108781576E0
8.894629909E0,3.861734390E0,2.091448307E-1,-1.151251078E0
8.911295846E0,2.860908747E0,4.988474548E-1,-1.591302752E-1
8.927961784E0,7.318923473E-1,1.171104193E0,1.314810038E0
8.944627721E0,-1.370246053E0,9.397391081E-1,3.258581877E0
8.961293659E0,-2.426584005E0,3.519344628E-1,4.520170212E0
8.977959596E0,-3.533852816E0,-3.843866587E-1,5.486863613E0
8.994625534E0,-5.434940338E0,-5.590940118E-1,6.014039993E0
9.011291471E0,-7.381308079E0,3.901135325E-1,5.938903809E0
9.027957409E0,-8.390533447E0,1.413082957E0,5.886369228E0
9.044623346E0,-7.389478683E0,2.782489061E-1,4.885467529E0
9.061289284E0,-6.261440277E0,-2.080987215E0,4.246731758E0
9.077955221E0,-6.406291485E0,-6.496546865E-1,3.705123901E0
9.094621159E0,-6.487154961E0,3.168402910E0,1.501734734E0
9.111287096E0,-4.098215580E0,3.807291031E0,-1.168966055E0
9.127953034E0,1.029307172E-1,8.471167088E-1,-1.817475438E0
9.144618971E0,2.822653532E0,-2.087783098E0,-5.017490387E-1
9.161284909E0,3.208796263E0,-2.394131899E0,7.920625210E-1
9.177950846E0,2.284176111E0,-1.003803492E0,1.289611936E0
9.194616784E0,1.627954602E0,-3.096320927E-1,1.217377186E0
9.211282721E0,1.925674915E0,-8.845322132E-1,7.386118770E-1
9.227948659E0,2.547000647E0,-1.194622397E0,1.676060259E-1
9.244614596E0,2.867170095E0,-4.922806621E-1,-7.293725610E-1
9.261280534E0,3.196655273E0,4.329504073E-2,-1.963777542E0
9.277946471E0,3.762163401E0,-3.830122054E-1,-2.921460867E0
9.294612409E0,4.213516235E0,-1.391397238E0,-3.598909855E0
9.311278346E0,2.938870430E0,-2.192699194E0,-2.883739948E0
9.327944284E0,-9.786817431E-1,-1.768148065E0,-1.173165798E0
9.344610221E0,-3.794539213E0,1.377423763E0,-2.337626696E0
9.361276159E0,-3.462228775E0,3.515221357E0,-3.670151949E0
9.377942096E0,-1.634063244E0,2.049298525E0,-3.639074326E0
9.394608034E0,-5.068650246E-1,5.980366468E-1,-2.723158836E0
9.411273971E0,-3.503309488E-1,4.851793647E-1,-1.745622516E0
9.427939909E0,-9.298889041E-1,6.349939108E-1,-1.557705164E0
9.444605846E0,-2.753396749E0,-1.775325835E-1,-1.217758894E0
9.461271784E0,-4.364094257E0,-1.189735532E0,2.958876193E-1
9.477937721E0,-2.788979530E0,-1.477147341E0,4.076071739E0
9.494603659E0,1.914984703E0,-9.476039559E-2,4.853168011E0
9.511269596E0,4.290943146E0,6.892082095E-1,-7.031053901E-1
9.527935534E0,3.652436972E0,3.229947388E-1,-4.555066109E0
9.544601471E0,2.372369766E0,6.941714883E-1,-4.040412426E0
9.561267409E0,2.153145552E0,1.448513120E-1,-2.052505732E0
9.577933346E0,3.349524260E0,-1.428889036E0,-1.681099892E0
9.594599284E0,4.658225536E0,-2.914512157E0,-2.377256632E0
9.611265221E0,3.243081093E0,-3.332343817E0,-2.203007460E0
9.627931159E0,-7.467821985E-2,-8.425352573E-1,-2.016388178E0
9.644597096E0,-1.640630126E0,1.673693180E0,-2.360305071E0
9.661263034E0,-1.165988147E-1,1.233030558E0,-2.316475630E0
9.677928971E0,2.667799234E0,-7.431169748E-1,-1.528307319E0
9.694594909E0,4.030027866E0,-1.204778075E0,-9.211840630E-1
9.711260846E0,3.364948750E0,2.906189263E-1,-7.008909583E-1
9.727926784E0,1.933310628E0,1.805029035E0,1.870773360E-2
9.744592721E0,1.362762928E0,1.447825909E0,1.274798393E0
9.761258659E0,2.239430189E0,3.588830587E-3,2.238055944E0
9.777924596E0,3.138699532E0,-1.231503367E0,2.910159826E0
9.794590534E0,2.165286541E0,-1.896276951E0,3.301571369E0
9.811256471E0,-8.762091398E-1,-1.203785419E0,3.945270061E0
9.827922409E0,-3.345019102E0,2.295324355E-1,4.916010857E0
9.844588346E0,-3.364566803E0,1.059850380E-1,5.570781231E0
9.861254284E0,-1.050458312E0,-1.061224818E0,5.311927319E0
9.877920221E0,1.740277410E0,-1.261893868E0,4.420904636E0
9.894586159E0,2.688492298E0,-3.720930219E-1,3.277671337E0
9.911252096E0,1.986761332E0,3.184132650E-2,2.626107693E0
9.927918034E0,1.485088587E0,-7.779362798E-1,2.754312992E0
9.944583971E0,1.773951292E0,-1.279379964E0,2.631376505E0
9.961249909E0,2.026391268E0,-1.420566082E0,2.078543663E0
9.977915846E0,1.764788389E0,-1.691102743E0,1.540753722E0
9.994581784E0,1.463402987E0,-2.028834581E0,8.295543790E-1
1.001124772E1,1.467679024E0,-1.831830740E0,-3.216966689E-1
1.002791366E1,1.727143764E0,-1.023351192E0,-1.866344571E0
1.004457960E1,2.507065296E0,-9.453132749E-1,-3.043710232E0
1.006124553E1,3.232390881E0,-1.913457513E0,-3.251556873E0
1.007791147E1,3.462610722E0,-2.551964045E0,-2.943146467E0
1.009457741E1,3.359679937E0,-1.877263784E0,-2.970788240E0
1.011124335E1,3.129154921E0,-5.877282619E-1,-3.185049057E0
1.012790928E1,3.368919373E0,-2.738201320E-1,-3.394422770E0
1.014457522E1,3.936030865E0,-9.229403138E-1,-3.599978924E0
1.016124116E1,4.110890865E0,-1.090088248E0,-3.377318621E0
1.017790710E1,3.470933676E0,4.153880477E-2,-3.048597097E0
1.019457303E1,2.752251148E0,1.244026065E0,-2.771417141E0
1.021123897E1,3.072726250E0,7.602975965E-1,-2.754312992E0
1.022790491E1,4.022621155E0,-8.940769434E-1,-2.725144148E0
1.024457085E1,3.886474371E0,-1.245476961E0,-2.559141636E0
1.026123678E1,3.173824310E0,-2.335030586E-1,-2.154443741E0
1.027790272E1,3.571726322E0,6.607266068E-1,-1.967977285E0
1.029456866E1,4.362414360E0,8.036689758E-1,-3.054934740E0
1.031123460E1,4.050568104E0,1.179808974E0,-4.197557449E0
1.032790053E1,3.158781767E0,2.180176497E0,-3.670304775E0
1.034456647E1,2.938717842E0,1.810068727E0,-2.214308500E0
1.036123241E1,3.588219643E0,7.244856358E-1,-1.171944022E0
1.037789835E1,4.402884483E0,-6.803506613E-2,-1.687513888E-1
1.039456428E1,4.632721901E0,-9.763146043E-1,2.008981556E-1
1.041123022E1,3.663814306E0,-2.060981512E0,4.789179862E-1
1.042789616E1,7.652608752E-1,-3.669617414E0,1.914908409E0
1.044456210E1,-1.858937860E0,-4.011930943E0,3.631972790E0
1.046122803E1,-2.893666506E0,-2.597244263E0,4.878442287E0
1.047789397E1,-2.607399940E0,-1.543884397E0,5.828871727E0
1.049455991E1,-1.200654745E0,-2.644204617E0,6.838096619E0
1.051122585E1,-1.394757032E0,-4.473744392E0,8.953521729E0
1.052789178E1,-4.422431946E0,-5.336056709E0,1.216124916E1
1.054455772E1,-7.091681957E0,-4.981907845E0,1.394764614E1
1.056122366E1,-7.103975773E0,-4.879206181E0,1.214147186E1
1.057788960E1,-5.854299068E0,-4.957854748E0,1.079543114E1
1.059455553E1,-4.251466274E0,-3.042412043E0,1.164919090E1
1.061122147E1,-3.142364740E0,-1.931325316E0,1.173700333E1
1.062788741E1,-2.172769547E0,-5.062236309E0,1.047831631E1
1.064455335E1,-1.168966055E0,-5.455938816E0,8.723835945E0
1.066121928E1,-2.085950613E0,-6.709585786E-1,6.087343693E0
1.067788522E1,-2.513174057E0,3.300273418E0,3.869446516E0
1.069455116E1,-6.016254425E-1,3.363803148E0,1.882685304E0
1.071121710E1,1.418046236E0,2.027765751E0,-6.936369538E-1
1.072788303E1,2.619540930E0,1.573282242E0,-2.964755774E0
1.074454897E1,3.745364666E0,1.479972601E0,-4.290103436E0
1.076121491E1,6.300764561E0,7.915280461E-1,-5.432038784E0
1.077788085E1,9.757495880E0,-4.691441655E-1,-7.001350403E0
1.079454678E1,1.041784096E1,-3.635408878E-1,-8.352659225E0
1.081121272E1,9.009873390E0,-2.944368124E-1,-9.405103683E0
1.082787866E1,7.951168537E0,-1.334663153E0,-9.902041435E0
1.084454460E1,7.019599915E0,-2.490648508E0,-9.706336021E0
1.086121053E1,5.463651180E0,-1.713781118E0,-9.962059021E0
1.087787647E1,3.909229040E0,6.826413870E-1,-1.088729000E1
1.089454241E1,5.078653336E0,5.998691916E-1,-1.092363644E1
1.091120835E1,8.381370544E0,-2.717202902E0,-9.024763107E0
1.092787428E1,9.973665237E0,-4.307131290E0,-8.240260124E0
1.094454022E1,7.412996769E0,-1.772958636E0,-8.912287712E0
1.096120616E1,4.248869896E0,1.548618555E0,-8.962225914E0
1.097787210E1,4.813003540E0,1.082757831E0,-7.560291767E0
1.099453803E1,7.396656036E0,-2.228969336E0,-5.912789345E0
1.101120397E1,8.186199188E0,-4.138914108E0,-4.482296467E0
1.102786991E1,5.840172768E0,-2.650695086E0,-3.584020138E0
1.104453585E1,2.303342104E0,6.999746561E-1,-2.609003544E0
1.106120178E1,1.937204897E-1,1.747455001E0,-1.235168576E0
1.107786772E1,-3.895026445E-1,3.672060966E-1,2.379318327E-1
1.109453366E1,2.207512558E-1,-1.249752998E0,1.721798778E0
1.111119960E1,8.197805285E-1,-7.902299762E-1,2.497215271E0
1.112786553E1,1.184314117E-1,9.159153700E-1,2.971933603E0
1.114453147E1,-1.356196165E0,2.758130789E0,3.249647856E0
1.116119741E1,-2.412763119E0,3.731009245E0,3.669388294E0
1.117786335E1,-3.069900990E0,2.870300770E0,4.468552113E0
1.119452928E1,-2.704985619E0,7.484620810E-1,5.233736515E0
1.121119522E1,-9.446260333E-1,-3.330740333E-1,5.661189556E0
1.122786116E1,-2.554178238E-1,2.848156989E-1,5.046048641E0
1.124452710E1,-1.711032271E0,2.215224743E0,3.436114311E0
1.126119303E1,-3.576155186E0,3.509265423E0,1.372765899E0
1.127785897E1,-4.525133610E0,3.527591467E0,-1.999054998E-1
1.129452491E1,-3.485899925E0,1.372842193E0,-7.677043080E-1
1.131119085E1,-1.793880820E0,-1.192178965E0,-1.505934358E0
1.132785678E1,-1.677358270E0,-1.558850527E0,-2.079765558E0
1.134452272E1,-2.437885046E0,-7.489202023E-1,-2.075184107E0
1.136118866E1,-1.953927398E0,-8.828523159E-1,-1.062293887E0
1.137785460E1,4.703658819E-1,-2.043648005E0,5.596284866E-1
1.139452053E1,4.208094597E0,-2.090226650E0,5.765799880E-1
1.141118647E1,6.503266335E0,-6.365211010E-1,-1.895589709E0
1.142785241E1,5.273061275E0,1.230892539E0,-4.089663506E0
1.144451835E1,2.248516798E0,3.165959358E0,-4.713890553E0
1.146118428E1,2.950477004E-1,2.658483505E0,-4.234438419E0
1.147785022E1,1.125900149E0,6.188060045E-1,-3.763690710E0
1.149451616E1,3.476736784E0,-5.193877816E-1,-4.516581535E0
1.151118210E1,4.403342247E0,3.895790279E-1,-6.111244202E0
1.152784803E1,3.356014729E0,1.724394917E0,-7.032428265E0
1.154451397E1,2.553491116E0,2.158185244E0,-6.853902817E0
1.156117991E1,3.209407091E0,1.924911261E0,-6.263807297E0
1.157784585E1,4.385398388E0,1.025718331E0,-5.853077412E0
1.159451178E1,4.719541073E0,1.162933856E-1,-5.515803337E0
1.161117772E1,3.993070364E0,9.453132749E-2,-4.628369808E0
1.162784366E1,3.108461857E0,5.458076596E-1,-3.457800150E0
1.164450960E1,2.447658777E0,9.853248596E-1,-1.669340730E0
1.166117553E1,2.020511627E0,2.112064958E-1,5.576431751E-1
1.167784147E1,1.146593213E0,-8.648318052E-1,2.497826099E0
1.169450741E1,3.880518377E-1,-6.191878319E-1,3.673511744E0
1.171117335E1,1.928042024E-1,9.144645929E-1,3.574856997E0
1.172783928E1,-2.306014597E-1,2.124053240E0,3.770410061E0
1.174450522E1,-1.632841587E0,2.341139317E0,4.796281338E0
1.176117116E1,-3.091663122E0,1.261664867E0,6.009611130E0
1.177783710E1,-3.528660297E0,-5.374082923E-1,6.427213669E0
1.179450303E1,-3.711079836E0,-1.451338410E0,6.376206398E0
1.181116897E1,-4.674337387E0,-5.758927464E-1,6.126362801E0
1.182783491E1,-5.889423847E0,7.657189965E-1,5.644695759E0
1.184450085E1,-6.941561699E0,9.790635109E-1,4.609051228E0
1.186116678E1,-6.781133652E0,1.863137633E-2,3.120755434E0
1.187783272E1,-5.530235291E0,6.085740402E-2,1.490204573E0
1.189449866E1,-4.439459801E0,8.915571570E-1,-1.392771751E-1
1.191116460E1,-3.793775797E0,1.169729710E0,-1.365588188E0
1.192783053E1,-3.305465698E0,6.616429090E-1,-1.929416418E0
1.194449647E1,-3.101284027E0,-2.149480432E-1,-1.730503559E0
1.196116241E1,-2.737895966E0,-8.192460537E-1,-1.683848739E0
1.197782835E1,-1.913763046E0,-5.794052482E-1,-1.883983374E0
1.199449428E1,-7.254019380E-2,-7.437278330E-2,-2.381608963E0
1.201116022E1,1.715537429E0,-6.643154472E-2,-2.909472704E0
1.202782616E1,1.878714681E0,-2.848157100E-2,-2.727969408E0
1.204449210E1,9.035453796E-1,8.061888218E-1,-2.107712507E0
1.206115803E1,5.451968312E-2,2.019977093E0,-1.679649115E0
1.207782397E1,5.375609994E-1,2.225533009E0,-1.895437002E0
1.209448991E1,1.893298984E0,1.395673275E0,-2.664744854E0
1.211115585E1,2.623206139E0,1.323133111E0,-3.159010887E0
1.212782178E1,2.327089310E0,2.297615051E0,-2.629696608E0
1.214448772E1,2.308458090E0,2.113744736E0,-1.499062181E0
1.216115366E1,3.476965904E0,4.281398654E-1,-1.051527381E0
1.217781960E1,4.707476616E0,-3.940077871E-2,-2.385503292E0
1.219448553E1,5.140885353E0,1.217377186E0,-4.327671528E0
1.221115147E1,5.381718636E0,1.667660832E0,-4.468628407E0
1.222781741E1,5.280314922E0,4.753291607E-1,-3.040426731E0
1.224448335E1,4.788034439E0,-5.709294677E-1,-1.746844172E0
1.226114928E1,3.651673317E0,-8.005383015E-1,-8.574250937E-1
1.227781522E1,2.290208340E0,-8.185588121E-1,-2.023489587E-2
1.229448116E1,1.924987674E0,-6.208676696E-1,3.533089161E-1
1.231114710E1,2.174144030E0,7.276926935E-2,1.158581376E0
1.232781303E1,1.202334642E0,3.021489978E-1,3.637928724E0
1.234447897E1,-6.604211926E-1,-6.948586553E-2,6.610244274E0
1.236114491E1,-1.459890485E0,-1.075961947E0,7.769207478E0
1.237781085E1,-1.367573500E0,-1.299156666E0,7.392991066E0
1.239447678E1,-2.419711828E0,2.621373534E-1,7.357255459E0
1.241114272E1,-4.877755165E0,2.342819214E0,7.627639294E0
1.242780866E1,-6.587336540E0,2.817461014E0,7.600914001E0
1.244447460E1,-5.968683243E0,8.345940113E-1,6.723330498E0
1.246114053E1,-5.106371403E0,-1.153999925E0,5.488390923E0
1.247780647E1,-5.867508888E0,4.004982114E-1,5.457084179E0
1.249447241E1,-6.435995102E0,5.160432816E0,3.557065725E0
1.251113835E1,-4.831100464E0,6.375671864E0,5.340485573E-1
1.252780428E1,-1.973398685E0,3.497964382E0,-7.451786995E-1
1.254447022E1,-4.357756674E-1,1.267162681E0,-8.032108545E-1
1.256113616E1,-4.402044415E-1,8.826996088E-1,-4.275289774E-1
1.257780210E1,-4.830413163E-1,1.110628486E0,-1.559232324E-1
1.259446803E1,-4.329504073E-2,9.120974541E-1,-8.552107215E-2
1.261113397E1,5.970439911E-1,-3.291033953E-2,8.849903196E-2
1.262779991E1,1.268689752E0,-1.266093612E0,7.559451461E-2
1.264446585E1,1.762039423E0,-2.022573233E0,-1.897498667E-1
1.266113178E1,1.762268543E0,-1.984317899E0,-2.929096520E-1
1.267779772E1,1.274722099E0,-1.263039231E0,-3.845393658E-1
1.269446366E1,1.103374481E0,-7.929024696E-1,-9.302706718E-1
1.271112960E1,1.748905897E0,-1.243109822E0,-1.731343508E0
1.272779553E1,2.643059254E0,-1.910174131E0,-2.292804480E0
1.274446147E1,3.181612730E0,-2.023642302E0,-2.497978687E0
1.276112741E1,3.104185820E0,-1.485165000E0,-2.617402792E0
1.277779335E1,2.746295214E0,-1.151938200E0,-2.873049736E0
1.279445928E1,2.379165649E0,-1.371009588E0,-3.253771305E0
1.281112522E1,1.344971538E0,-1.730885386E0,-2.427271128E0
1.282779116E1,-5.578722358E-1,-2.104810953E0,-9.340122342E-1
1.284445710E1,-1.414304733E0,-5.182424188E-1,-1.723554969E0
1.286112303E1,-1.489211917E0,2.074649572E0,-3.235979795E0
1.287778897E1,-1.672013283E0,3.423591614E0,-3.465970516E0
1.289445491E1,-1.387808442E0,3.665112257E0,-2.882441759E0
1.291112085E1,-1.973704100E0,3.433365583E0,-1.695455194E0
1.292778678E1,-3.552026033E0,2.698953390E0,-2.317468226E-1
1.294445272E1,-4.581409454E0,1.685757756E0,6.247619390E-1
1.296111866E1,-6.287249565E0,6.097957492E-1,1.996611476E0
1.297778460E1,-7.603891850E0,-2.901607752E-2,3.985663652E0
1.299445053E1,-6.586267471E0,1.424078494E-1,4.613937855E0
1.301111647E1,-3.600971460E0,9.053779840E-1,4.314538002E0
1.302778241E1,-5.241983533E-1,1.483561516E0,3.142899275E0
1.304444835E1,1.165606380E0,6.729438901E-1,1.618944407E0
1.306111428E1,1.135139465E0,-5.497782957E-3,6.603448391E-1
1.307778022E1,5.849030241E-2,1.810450554E-1,5.668824911E-1
1.309444616E1,-8.733075857E-1,1.053970814E0,4.899899065E-1
1.311111210E1,-8.883501291E-1,1.359097719E0,2.706894577E-1
1.312777803E1,-1.659261435E-1,9.714277387E-1,1.508072466E-1
1.314444397E1,5.653553605E-1,4.880809486E-1,1.015562713E-1
1.316110991E1,9.385937452E-1,2.577849329E-1,3.802633286E-2
1.317777585E1,5.138136148E-1,-1.114828214E-1,5.854375362E-1
1.319444178E1,-8.514691591E-1,-5.260309577E-1,1.621540546E0
1.321110772E1,-2.211712360E0,8.353576064E-2,1.530674458E0
1.322777366E1,-2.938717842E0,1.852371097E0,2.582430840E-1
1.324443960E1,-2.616181135E0,3.312414169E0,-1.059850335E0
1.326110553E1,-1.419420719E0,3.326769590E0,-1.647807717E0
1.327777147E1,-5.188532472E-1,2.131001711E0,-1.710726857E0
1.329443741E1,-1.615126491E0,8.949168921E-1,-1.126358271E0
1.331110335E1,-3.745212078E0,1.023580313E0,-2.700785995E-1
1.332776928E1,-4.139754295E0,2.245004416E0,4.195113778E-1
1.334443522E1,-2.256152630E0,2.835634232E0,8.342122436E-1
1.336110116E1,1.880699992E-1,2.062737703E0,6.394227147E-1
1.337776710E1,1.397047758E0,1.038622856E0,4.306596518E-2
1.339443303E1,1.210123181E0,5.357283950E-1,-4.917461574E-1
1.341109897E1,4.366919696E-1,8.033635616E-1,-9.256128669E-1
1.342776491E1,-3.497200906E-1,1.505018115E0,-1.290604591E0
1.344443085E1,-8.147408962E-1,2.371835232E0,-1.869551659E0
1.346109678E1,-7.158571482E-1,3.014617682E0,-2.818377495E0
1.347776272E1,-2.620609999E-1,2.896644354E0,-3.737728834E0
1.349442866E1,-2.113592178E-1,1.361999393E0,-3.726504326E0
1.351109460E1,-9.007964730E-1,-6.781362891E-1,-2.595869780E0
1.352776053E1,-1.844964385E0,-1.506392598E0,-1.274263978E0
1.354442647E1,-2.653443813E0,-4.995346665E-1,-8.881210089E-1
1.356109241E1,-3.321271896E0,1.293124437E0,-1.590233684E0
1.357775835E1,-3.769952059E0,2.459494352E0,-2.640310287E0
1.359442428E1,-3.889528751E0,2.330678225E0,-2.716515779E0
1.361109022E1,-4.092259407E0,7.496074438E-1,-1.598709464E0
1.362775616E1,-5.086900234E0,-7.428879142E-1,4.276053607E-2
1.364442210E1,-6.239602089E0,-1.592066288E-1,1.284190536E0
1.366108803E1,-7.202324867E0,2.490190268E0,1.773645878E0
1.367775397E1,-6.610320568E0,4.648070335E0,1.925522089E0
1.369441991E1,-3.605629444E0,3.478264093E0,2.574031353E0
1.371108585E1,-3.894263133E-2,3.573558852E-2,3.143892050E0
1.372775178E1,1.208137870E0,-2.490801096E0,2.608392715E0
1.374441772E1,-8.040507436E-1,-1.599320292E0,1.417358994E0
1.376108366E1,-4.476951599E0,1.580918074E0,5.203040838E-1
1.377774960E1,-6.351237297E0,3.398622513E0,3.695731983E-2
1.379441553E1,-5.055135250E0,2.621068001E0,-1.018617004E-1
1.381108147E1,-1.904065490E0,5.541307330E-1,-4.158461988E-1
1.382774741E1,4.984656572E-1,-7.013491392E-1,-1.152701855E0
1.384441335E1,1.129183531E0,-4.682278633E-1,-1.876729369E0
1.386107928E1,5.580250025E-1,9.669989347E-1,-2.484310627E0
1.387774522E1,-1.512653977E-1,2.410090685E0,-3.156338215E0
1.389441116E1,-4.524980783E-1,2.692310095E0,-3.730398417E0
1.391107710E1,-4.682278633E-1,2.252411127E0,-4.087983608E0
1.392774303E1,-2.297615111E-1,1.669722557E0,-4.432358265E0
1.394440897E1,7.544180006E-2,1.375743866E0,-4.716334343E0
1.396107491E1,1.880699992E-1,1.436448574E0,-4.916926861E0
1.397774085E1,3.812559843E-1,1.125671029E0,-5.203728199E0
1.399440678E1,9.521090984E-1,1.976911128E-1,-5.497630119E0
1.401107272E1,1.465693712E0,-1.882227063E-1,-5.371639252E0
1.402773866E1,1.466075420E0,1.975383908E-1,-5.045437813E0
1.404440460E1,1.442251801E0,3.165806830E-1,-4.906847477E0
1.406107053E1,2.343200922E0,-4.755582213E-1,-5.112938404E0
1.407773647E1,3.595397472E0,-1.176678300E0,-5.252062798E0
1.409440241E1,4.081111431E0,-1.467220783E0,-5.184332848E0
1.411106835E1,3.712836027E0,-1.517464519E0,-4.579576969E0
1.412773428E1,3.163897753E0,-1.686444998E0,-3.326387882E0
1.414440022E1,2.848767996E0,-2.030896425E0,-1.884594202E0
1.416106616E1,2.231641769E0,-1.921780586E0,-4.479929507E-1
1.417773210E1,1.386052132E0,-1.100091100E0,8.890373111E-1
1.419439803E1,5.524508357E-1,2.649625950E-2,2.034637928E0
1.421106397E1,-3.294088244E-1,1.030528903E0,2.643593788E0
1.422772991E1,-7.263945937E-1,1.403003693E0,2.896949768E0
1.424439585E1,-1.531743407E-1,8.562797308E-1,3.550269842E0
1.426106178E1,3.536143601E-1,-6.444623321E-2,4.686783791E0
1.427772772E1,-6.531671882E-1,2.371682525E-1,5.973112106E0
1.429439366E1,-3.068984747E0,2.127260208E0,6.258004189E0
1.431105960E1,-5.412414551E0,3.225594997E0,5.310247421E0
1.432772553E1,-5.981435299E0,9.150754213E-1,4.486572742E0
1.434439147E1,-4.657080173E0,-1.143920660E0,4.801473618E0
1.436105741E1,-3.823326349E0,-5.161807537E-1,6.024119377E0
1.437772335E1,-4.770548344E0,-1.216384470E-1,6.749826908E0
1.439438928E1,-6.640405655E0,7.095194459E-1,4.239172459E0
1.441105522E1,-6.940340042E0,2.311665058E0,8.362739086E-1
1.442772116E1,-4.693121433E0,2.313268661E0,-6.562978625E-1
1.444438710E1,-1.966679215E0,1.720348001E-1,-7.155517340E-1
1.446105303E1,-1.118188024E0,-1.193706155E0,-5.981893539E-1
1.447771897E1,-2.165362835E0,-4.980838597E-1,-7.586940527E-1
1.449438491E1,-3.190012217E0,2.929096520E-1,-5.410735011E-1
1.451105085E1,-3.208414555E0,8.605557680E-2,-2.073122412E-1
1.452771678E1,-2.058156252E0,-4.810560029E-3,-1.286633909E-1
1.454438272E1,5.016727000E-2,6.138427258E-1,-5.190060139E-1
1.456104866E1,1.418657064E0,1.173929334E0,-1.331685185E0
1.457771460E1,1.418886185E0,1.874362230E0,-2.108247042E0
1.459438053E1,1.479438186E0,2.365115643E0,-2.323882341E0
1.461104647E1,2.513708591E0,1.949498534E0,-2.426202297E0
1.462771241E1,2.579300165E0,1.784641504E0,-3.528202295E0
1.464437835E1,1.465541005E0,2.463235855E0,-6.975159645E0
1.466104428E1,1.947895050E0,3.370293617E0,-1.037622547E1
1.467771022E1,4.523301125E0,2.935510635E0,-1.044868946E1
1.469437616E1,6.833133221E0,1.575725675E0,-9.889824867E0
1.471104210E1,6.193023682E0,6.203331947E-1,-9.257273674E0
1.472770803E1,3.888154268E0,1.536019444E0,-8.356095314E0
1.474437397E1,3.305847406E0,1.998215079E0,-6.939270973E0
1.476103991E1,3.871966362E0,1.574733019E0,-4.579042435E0
1.477770585E1,4.575453758E0,7.046325207E-1,-1.333594203E0
1.479437178E1,3.965886831E0,-1.263573766E0,2.142455578E0
1.481103772E1,1.476307511E0,-1.749974847E0,4.705415249E0
1.482770366E1,-8.447496295E-1,1.102610901E-1,5.738387585E0
1.484436960E1,-9.591340423E-1,1.210581303E0,6.137663841E0
1.486103553E1,-3.420079052E-1,1.103145480E0,7.434071541E0
1.487770147E1,-1.331379771E0,8.837686181E-1,9.266207695E0
1.489436741E1,-3.349982500E0,3.504073024E-1,1.067379284E1
1.491103335E1,-4.929220676E0,7.572432756E-1,1.121318626E1
1.492769928E1,-5.913705349E0,1.007239699E0,1.056635761E1
1.494436522E1,-4.931511402E0,-4.967857897E-1,9.129298210E0
1.496103116E1,-3.049589634E0,-9.046907425E-1,8.365640640E0
1.497769710E1,-3.561341763E0,1.165606380E0,6.607571602E0
1.499436303E1,-6.564581871E0,3.965046883E0,2.471864223E0
1.501102897E1,-7.823803425E0,3.874486208E0,2.133445293E-1
1.502769491E1,-5.666610718E0,1.104290843E0,-5.367974192E-2
1.504436085E1,-3.490863085E0,-5.623773932E-1,-6.021599770E-1
1.506102678E1,-2.736674309E0,-2.598465979E-1,-1.528001904E0
1.507769272E1,-2.549444199E0,2.757290900E-1,-2.412381411E0
1.509435866E1,-1.301752806E0,2.926805913E-1,-3.188790560E0
1.511102460E1,5.083158612E-1,5.096902847E-1,-3.685729027E0
1.512769053E1,1.908570647E0,9.717331529E-1,-3.682903767E0
1.514435647E1,2.391306639E0,1.361541271E0,-3.944888353E0
1.516102241E1,2.079841852E0,1.810450435E0,-4.341645241E0
1.517768835E1,2.011272192E0,2.673602343E0,-4.613556385E0
1.519435428E1,2.490190268E0,3.108538151E0,-4.475424290E0
1.521102022E1,3.130452871E0,3.198029757E0,-4.627835274E0
1.522768616E1,4.293386936E0,3.349295139E0,-6.389034748E0
1.524435210E1,6.255866051E0,2.598542452E0,-8.323414803E0
1.526101803E1,7.647874355E0,1.422169566E0,-9.419305801E0
1.527768397E1,7.286395073E0,6.299543381E-2,-8.927712440E0
1.529434991E1,4.282085896E0,-5.366446972E-1,-7.306095600E0
1.531101585E1,1.038622856E0,9.274454713E-1,-5.868119717E0
1.532768178E1,9.375247359E-1,1.622533202E0,-4.447859287E0
1.534434772E1,3.186652422E0,4.531089365E-1,-2.212475777E0
1.536101366E1,4.693350315E0,-4.288270772E-1,-1.366809942E-2
1.537767960E1,4.178238869E0,-1.416442692E-1,1.988212109E0
1.539434553E1,2.426813126E0,8.447496295E-1,4.471683025E0
1.541101147E1,-3.042870164E-1,1.392771721E0,7.828461170E0
1.542767741E1,-2.340223074E0,4.871646762E-1,1.056131744E1
1.544434335E1,-2.196516991E0,-4.379900396E-1,1.107956028E1
1.546100928E1,-1.498909473E0,-1.555414498E-1,1.043906784E1
1.547767522E1,-2.716362953E0,1.013501048E0,1.036309147E1
1.549434116E1,-4.954876900E0,1.459050536E0,1.038431931E1
1.551100710E1,-5.181736946E0,-4.856374860E-2,8.857768059E0
1.552767303E1,-4.137921810E0,-2.652680278E-1,6.073294163E0
1.554433897E1,-5.204415321E0,1.551596522E0,2.960250616E0
1.556100491E1,-7.240351200E0,3.084179878E0,2.012799382E-1
1.557767085E1,-7.488056660E0,2.887557745E0,-1.364213824E0
1.559433678E1,-5.932336807E0,1.556636214E0,-1.968740821E0
1.561100272E1,-4.179689407E0,8.263473511E-1,-2.477362156E0
1.562766866E1,-2.864803076E0,4.320341051E-1,-2.794782639E0
1.564433460E1,-2.070373535E0,-1.340848207E-1,-2.916344881E0
1.566100053E1,-1.359403253E0,-2.619846463E-1,-2.940244913E0
1.567766647E1,-3.720930219E-1,-3.474293277E-2,-2.787223339E0
1.569433241E1,8.590285778E-1,-2.164752036E-1,-2.209345102E0
1.571099835E1,1.659261465E0,-7.266236544E-1,-1.400636554E0
1.572766428E1,2.154672861E0,-1.036408424E0,-8.730784655E-1
1.574433022E1,2.591746569E0,-8.976657987E-1,-1.474169374E0
1.576099616E1,2.652298450E0,1.322522312E-1,-2.413145065E0
1.577766210E1,2.203236580E0,1.869475245E0,-3.111897945E0
1.579432803E1,2.415359259E0,2.715752125E0,-3.466428518E0
1.581099397E1,3.914803267E0,1.436982989E0,-3.255909204E0
1.582765991E1,5.608502388E0,-2.158643454E-1,-3.258352757E0
1.584432585E1,5.803062916E0,-4.221839309E-1,-3.659461737E0
1.586099178E1,4.186790943E0,7.657189965E-1,-4.554607868E0
1.587765772E1,2.611141443E0,2.086561441E0,-5.566505432E0
1.589432366E1,2.142608166E0,2.588386774E0,-5.776337147E0
1.591098960E1,2.701854944E0,2.459188938E0,-4.803611755E0
1.592765553E1,3.651444197E0,1.476536512E0,-3.440848589E0
1.594432147E1,3.801869631E0,1.022740364E0,-2.363054037E0
1.596098741E1,3.436038017E0,1.778609157E0,-1.669340730E0
1.597765335E1,2.973384380E0,2.366413832E0,-7.358629704E-1
1.599431928E1,2.044869900E0,2.125580311E0,1.266704440E0
1.601098522E1,6.467530727E-1,1.600771189E0,4.053164005E0
1.602765116E1,-6.039925218E-1,4.932733178E-1,6.357193470E0
1.604431710E1,-1.336343050E0,-6.831759214E-1,6.866501808E0
1.606098303E1,-2.882900000E0,-8.406262994E-1,6.883835316E0
1.607764897E1,-5.570857525E0,3.372737169E-1,7.652455807E0
1.609431491E1,-7.885424137E0,1.313893795E0,8.673897743E0
1.611098085E1,-8.799964905E0,-6.562978625E-1,8.040659904E0
1.612764678E1,-8.098005295E0,-2.555781841E0,6.767007351E0
1.614431272E1,-6.535336971E0,-3.956113160E-1,4.988627434E0
1.616097866E1,-4.634096622E0,2.198273182E0,2.103054762E0
1.617764460E1,-2.434067011E0,1.692324519E0,-8.156571984E-1
1.619431053E1,-1.112461090E0,-4.938841760E-1,-1.791437268E0
1.621097647E1,-1.255021691E0,-2.036317825E0,-8.423825502E-1
1.622764241E1,-1.790673733E0,-2.283794403E0,3.583485484E-1
1.624430835E1,-1.913075805E0,-1.737986684E0,1.050534725E0
1.626097428E1,-1.512577534E0,-1.551214695E0,1.564424753E0
1.627764022E1,-6.058251262E-1,-1.571144223E0,1.616042733E0
1.629430616E1,6.285798550E-1,-1.160566688E0,1.107726932E0
1.631097210E1,1.857868910E0,-8.323032409E-2,6.973021626E-1
1.632763803E1,2.950324059E0,1.505781710E-1,4.401280880E-1
1.634430397E1,3.791866779E0,-4.482983947E-1,-1.422551423E-1
1.636096991E1,3.850662470E0,-9.125556350E-1,-1.029001713E0
1.637763585E1,2.891833782E0,-3.217730224E-1,-1.932470679E0
1.639430178E1,1.613446593E0,1.128038168E0,-2.330067396E0
1.641096772E1,1.458821416E0,1.593593478E0,-2.397033453E0
1.642763366E1,2.529591084E0,1.425605714E-1,-2.461403370E0
1.644429960E1,2.119013548E0,-2.309908867E0,-1.593058944E0
1.646096553E1,-1.073747516E0,-2.943986416E0,2.721402645E-1
1.647763147E1,-4.920821190E0,1.439579248E0,7.623592615E-1
1.649429741E1,-6.537856579E0,4.945103168E0,-3.293324709E-1
1.651096335E1,-4.397386551E0,3.471926451E0,-1.798920393E0
1.652762928E1,-1.249447584E0,6.756164432E-1,-2.171242476E0
1.654429522E1,-9.040798992E-2,-8.277218044E-2,-1.721493363E0
1.656096116E1,-7.300597429E-1,5.106065869E-1,-1.238375664E0
1.657762710E1,-1.878256440E0,1.019838691E0,-8.310051560E-1
1.659429303E1,-3.289430380E0,2.889390290E-1,4.173733592E-1
1.661095897E1,-3.701076984E0,-9.782999158E-1,2.236757755E0
1.662762491E1,-1.633681536E0,3.934732676E-1,3.429776669E0
1.664429085E1,2.292957306E0,2.412075996E0,1.554803610E0
1.666095678E1,6.028777122E0,2.969566286E-1,-2.511035919E0
1.667762272E1,7.332210064E0,-3.841117620E0,-4.697779179E0
1.669428866E1,5.105378628E0,-4.227871418E0,-3.872424603E0
1.671095460E1,1.595273376E0,-1.376660109E0,-2.661079645E0
1.672762053E1,-9.814306498E-1,1.345582366E0,-2.710788727E0
1.674428647E1,-1.233717799E0,2.010966778E0,-4.030180454E0
1.676095241E1,4.359283745E-1,9.046907425E-1,-5.304826260E0
1.677761835E1,2.092135429E0,7.559451740E-3,-5.017643452E0
1.679428428E1,2.815323114E0,4.269944727E-1,-3.850127935E0
1.681095022E1,3.437717915E0,1.411937594E0,-2.766453981E0
1.682761616E1,4.028653145E0,9.107993841E-1,-1.664606571E0
1.684428210E1,3.911214352E0,-8.654426932E-1,-8.957568407E-1
1.686094803E1,3.223380804E0,-9.211840630E-1,-8.019127250E-1
1.687761397E1,2.427423954E0,5.723039508E-1,-9.111047983E-1
1.689427991E1,2.175976753E0,1.613599300E0,-9.789871573E-1
1.691094585E1,2.454912901E0,1.581452608E0,-8.779653907E-1
1.692761178E1,2.137339592E0,4.035525322E-1,-1.818086356E-1
1.694427772E1,7.184533477E-1,-1.117042661E0,8.803325295E-1
1.696094366E1,-1.342298985E0,-1.479743600E0,2.086408615E0
1.697760960E1,-3.502774954E0,-7.214313149E-1,3.170311928E0
1.699427553E1,-4.610120296E0,-1.538615674E-1,3.850509882E0
1.701094147E1,-3.998491764E0,-9.318742156E-1,4.418003082E0
1.702760741E1,-1.960417747E0,-2.100458622E0,4.909749508E0
1.704427335E1,3.691150546E-1,-1.807930708E0,4.132041931E0
1.706093928E1,1.484859586E0,-1.702785492E-2,9.651663303E-1
1.707760522E1,1.257617831E0,1.238299251E0,-1.404836297E0
1.709427116E1,9.004910588E-1,1.327943683E0,-1.532430649E0
1.711093710E1,9.615775347E-1,3.261254430E-1,-6.514872909E-1
1.712760303E1,1.265024543E0,-4.953349829E-1,-2.356410921E-1
1.714426897E1,1.327027321E0,-3.316995800E-1,-3.878227770E-1
1.716093491E1,1.075961947E0,4.231002033E-1,-7.175370455E-1
1.717760085E1,6.461422443E-1,1.124907494E0,-8.874338269E-1
1.719426678E1,6.368265152E-1,1.497229576E0,-8.174134493E-1
1.721093272E1,1.261053920E0,1.542739034E0,-5.704713464E-1
1.722759866E1,2.421849728E0,1.357570648E0,-3.352120519E-1
1.724426460E1,3.818668365E0,1.390862703E0,-5.484038591E-1
1.726093053E1,4.857291222E0,1.753945470E0,-1.180801630E0
1.727759647E1,5.173566341E0,2.172846079E0,-1.308243275E0
1.729426241E1,5.268708706E0,2.260428667E0,-4.683042169E-1
1.731092835E1,5.981587887E0,7.862593532E-1,9.010255337E-3
1.732759428E1,6.381780624E0,-4.722748399E-1,-6.275871992E-1
1.734426022E1,5.437459946E0,1.384372264E-1,-1.946291566E0
1.736092616E1,3.870133877E0,8.600975871E-1,-2.785467148E0
1.737759210E1,2.694677353E0,8.736129999E-1,-3.279274940E0
1.739425803E1,1.892459035E0,9.012545943E-1,-3.550193310E0
1.741092397E1,1.497993112E0,1.283503294E0,-3.101895094E0
1.742758991E1,1.855119944E0,1.388724685E0,-2.037310362E0
1.744425585E1,2.717508316E0,1.162246585E0,-9.973130822E-1
1.746092178E1,3.493535757E0,1.086270332E0,-1.072831303E-1
1.747758772E1,4.033540249E0,9.850194454E-1,5.779544115E-1
1.749425366E1,4.228329659E0,8.213077188E-1,9.660826325E-1
1.751091960E1,3.911596298E0,9.433279634E-1,1.277318239E0
1.752758553E1,3.479867458E0,1.186452150E0,1.625663877E0
1.754425147E1,3.412672520E0,9.958623052E-1,2.029598236E0
1.756091741E1,3.642586708E0,3.016908467E-1,2.306930780E0
1.757758335E1,3.537670612E0,-1.999054998E-1,2.267071962E0
1.759424928E1,2.749884129E0,2.181550860E-1,2.165591955E0
1.761091522E1,1.732565284E0,1.004719853E0,2.323500633E0
1.762758116E1,1.126434684E0,1.000061989E0,2.773631573E0
1.764424710E1,1.014646411E0,2.711476088E-1,3.228496790E0
1.766091303E1,1.041600823E0,-3.126100600E-1,3.508578300E0
1.767757897E1,7.673225403E-1,-2.244928032E-1,3.632965565E0
1.769424491E1,4.023308158E-1,4.437932670E-1,3.560119867E0
1.771091085E1,2.680169232E-2,3.835467100E-1,3.087921381E0
1.772757678E1,-3.997346461E-1,-7.294489145E-1,2.831205606E0
1.774424272E1,-1.072296739E0,-1.112995625E0,3.088608742E0
1.776090866E1,-7.700713873E-1,-1.234710455E0,2.648404360E0
1.777757460E1,5.901717544E-1,-1.311068535E0,1.448818564E0
1.779424053E1,1.691026449E0,-1.060537577E0,4.666243196E-1
1.781090647E1,1.875889421E0,-7.907644510E-1,-2.871064469E-2
1.782757241E1,1.633681536E0,-5.862774849E-1,-2.369391769E-1
1.784423835E1,1.654985428E0,-2.946659029E-1,-3.989710510E-1
1.786090428E1,2.030514479E0,-9.896009415E-2,-4.131736755E-1
1.787757022E1,2.893742800E0,-3.055851161E-1,-3.520871997E-1
1.789423616E1,3.971537352E0,-8.100830317E-1,-5.009090900E-1
1.791090210E1,4.393874168E0,-7.477748394E-1,-1.357341528E0
1.792756803E1,3.675955057E0,3.168861195E-2,-2.228358269E0
1.794423397E1,2.779969215E0,8.080213666E-1,-2.436739683E0
1.796089991E1,2.890153885E0,1.093677044E0,-2.207665205E0
1.797756585E1,3.931525707E0,5.397753716E-1,-2.242866278E0
1.799423178E1,4.540863514E0,-2.924515009E-1,-2.570900679E0
1.801089772E1,4.108065605E0,-1.266017258E-1,-3.211239815E0
1.802756366E1,3.515985012E0,5.490147471E-1,-3.878456831E0
1.804422960E1,3.581652880E0,5.520690680E-1,-4.031173229E0
1.806089553E1,4.250473499E0,4.520399496E-2,-4.648833752E0
1.807756147E1,5.070864677E0,-4.547124803E-1,-5.441888809E0
1.809422741E1,5.636678219E0,-1.128801703E0,-6.323442936E0
1.811089335E1,5.213425636E0,-1.010981202E0,-7.089314938E0
1.812755928E1,3.887848854E0,-1.103374511E-1,-6.638496399E0
1.814422522E1,2.679023743E0,6.278162599E-1,-5.153636932E0
1.816089116E1,2.620151758E0,4.371501207E-1,-3.166188478E0
1.817755710E1,3.469712019E0,-6.357575059E-1,-1.020220518E0
1.819422303E1,3.971079111E0,-6.680569649E-1,8.415426016E-1
1.821088897E1,3.196502686E0,1.115362763E0,1.947513223E0
1.822755491E1,1.517617226E0,3.248731613E0,2.560286999E0
1.824422085E1,-8.407026529E-2,4.391201496E0,3.757734776E0
1.826088678E1,-1.235397696E0,3.242699385E0,5.803596973E0
1.827755272E1,-1.736230373E0,1.347262263E0,7.544561863E0
1.829421866E1,-2.130314589E0,1.002810836E0,8.228425026E0
1.831088460E1,-2.950247765E0,1.846262455E0,8.070592880E0
1.832755053E1,-4.016588688E0,2.352822065E0,7.489812851E0
1.834421647E1,-4.877907753E0,1.672089577E0,7.306935310E0
1.836088241E1,-5.246641159E0,1.402774572E0,6.749673843E0
1.837754835E1,-4.372722626E0,1.167820692E0,5.009625912E0
1.839421428E1,-3.292637587E0,1.166064501E0,1.822667837E0
1.841088022E1,-3.634492636E0,2.042960882E0,-1.133077860E0
1.842754616E1,-4.307971001E0,2.662148714E0,-1.954385519E0
1.844421210E1,-3.817828417E0,2.139782906E0,-1.872682333E0
1.846087803E1,-2.528369427E0,3.429242074E-1,-1.211115837E0
1.847754397E1,-9.776890874E-1,-1.458592415E0,-3.180314898E-1
1.849420991E1,3.501018882E-1,-2.074420452E0,3.333030939E-1
1.851087585E1,1.854050994E0,-1.521435142E0,1.963930279E-1
1.852754178E1,3.662668943E0,-3.050506115E-1,-1.317711711E0
1.854420772E1,3.974973440E0,1.337641120E0,-2.751411438E0
1.856087366E1,2.943604708E0,1.785634160E0,-2.941390276E0
1.857753960E1,2.179947376E0,5.299251676E-1,-2.297462463E0
1.859420553E1,2.524780512E0,-4.665479660E-1,-2.128863811E0
1.861087147E1,3.208261728E0,2.603811026E-1,-3.172984362E0
1.862753741E1,3.904876709E0,1.231350660E0,-4.822242737E0
1.864420335E1,4.793837547E0,9.669225812E-1,-6.132776737E0
1.866086928E1,5.646299362E0,4.415025115E-1,-6.463942051E0
1.867753522E1,6.945761681E0,2.929096520E-1,-7.005397320E0
1.869420116E1,7.364585876E0,-5.879573524E-3,-6.817403793E0
1.871086710E1,5.956618786E0,-1.817322671E-1,-5.731973171E0
1.872753303E1,4.439307213E0,-3.787361458E-2,-4.062632561E0
1.874419897E1,4.250626087E0,-5.562687516E-1,-2.215453863E0
1.876086491E1,4.451676846E0,-7.292198539E-1,-5.364919901E-1
1.877753085E1,2.898247957E0,1.179732606E-1,1.333288789E0
1.879419678E1,3.365865052E-1,7.438042164E-1,3.527056932E0
1.881086272E1,-4.431824088E-1,4.205803871E-1,4.537121773E0
1.882752866E1,4.197404683E-1,6.902772188E-2,4.668076038E0
1.884419460E1,-2.711476088E-1,7.966440320E-1,5.595292091E0
1.886086053E1,-2.457050800E0,2.909930706E0,7.000357628E0
1.887752647E1,-3.880365849E0,4.519559383E0,7.508597374E0
1.889419241E1,-4.590801716E0,3.742157698E0,7.590453148E0
1.891085835E1,-4.915628910E0,2.100153208E0,7.407498837E0
1.892752428E1,-4.431976795E0,6.205622554E-1,6.686755180E0
1.894419022E1,-4.649826527E0,1.453781843E0,5.003975391E0
1.896085616E1,-7.402306557E0,6.868487358E0,1.279685378E0
1.897752210E1,-8.244078636E0,8.310509682E0,-3.433518171E0
1.899418803E1,-4.825297356E0,2.859152555E0,-4.656622410E0
1.901085397E1,-2.379700184E0,-2.161697626E0,-2.690630198E0
1.902751991E1,-2.901302338E0,-3.627315044E0,-1.483408809E0
1.904418585E1,-4.821555614E0,-2.217210054E0,-1.373529434E0
1.906085178E1,-4.830642223E0,-8.947641850E-1,-1.750662088E0
1.907751772E1,-1.418580770E0,-1.008843184E0,-2.309450626E0
1.909418366E1,2.435059786E0,-1.464090109E0,-2.672686100E0
1.911084960E1,2.941084862E0,-9.608902931E-1,-2.493168354E0
1.912751553E1,3.736965358E-1,1.593975306E0,-2.497826099E0
1.914418147E1,-1.005712509E0,4.364246845E0,-2.811810493E0
1.916084741E1,5.608502030E-1,4.059502125E0,-3.274998903E0
1.917751335E1,3.003774881E0,2.600451469E0,-3.420613766E0
1.919417928E1,3.430769205E0,3.036379814E0,-3.408167362E0
1.921084522E1,2.662988663E0,4.379671574E0,-3.946415663E0
1.922751116E1,3.113883257E0,3.869751930E0,-4.780398846E0
1.924417710E1,4.769174099E0,3.658927202E0,-5.885071278E0
1.926084303E1,6.713174820E0,3.230787516E0,-6.281675339E0
1.927750897E1,7.141161919E0,1.322827697E0,-5.281460762E0
1.929417491E1,6.636053085E0,3.042870164E-1,-3.718868494E0
1.931084085E1,6.562596798E0,-9.709695578E-1,-1.902003884E0
1.932750678E1,5.874075890E0,-1.483485103E0,-5.940660089E-2
1.934417272E1,3.831343889E0,-8.602503538E-1,1.601229310E0
1.936083866E1,1.796935081E0,-3.940077871E-2,2.833267212E0
1.937750460E1,1.350774765E0,3.788125217E-1,3.865705013E0
1.939417053E1,1.426751018E0,-5.493201613E-1,6.047637463E0
1.941083647E1,3.322340846E-1,-1.662163019E0,9.194278717E0
1.942750241E1,-1.247920394E0,-7.655662894E-1,1.060308552E1
1.944416835E1,-2.544099092E0,1.456225276E0,9.831486702E0
1.946083428E1,-4.437779903E0,2.982547283E0,9.402889252E0
1.947750022E1,-5.177460670E0,2.010661364E0,9.465196609E0
1.949416616E1,-3.220402718E0,-1.507537961E0,9.523382187E0
1.951083210E1,-2.406272650E0,-8.232930303E-1,7.067399979E0
1.952749803E1,-5.989300251E0,4.028805733E0,3.068450212E0
1.954416397E1,-8.388319016E0,6.365058422E0,-5.025126338E-1
1.956082991E1,-5.906451702E0,3.376173258E0,-1.363526583E0
1.957749585E1,-2.711017847E0,8.532254100E-1,-1.269606113E0
1.959416178E1,-2.285550594E0,8.313106298E-1,-1.756923437E0
1.961082772E1,-3.062875986E0,1.712330341E0,-2.331594467E0
1.962749366E1,-2.662072420E0,1.778532863E0,-2.789895773E0
1.964415960E1,-9.840267897E-1,9.380592108E-1,-3.034241676E0
1.966082553E1,4.712058306E-1,1.971566081E-1,-2.922758818E0
1.967749147E1,8.426879644E-1,1.393535286E-1,-2.636645079E0
1.969415741E1,4.049269855E-1,6.475166678E-1,-2.641913891E0
1.971082335E1,4.268417507E-2,1.272049546E0,-3.123809814E0
1.972748928E1,2.855029404E-1,1.441106319E0,-3.389917850E0
1.974415522E1,1.111468434E0,1.281212568E0,-3.330663919E0
1.976082116E1,2.227671146E0,1.347720385E0,-3.549658775E0
1.977748710E1,2.691852093E0,1.789604783E0,-4.025140762E0
1.979415303E1,2.901225805E0,1.714850187E0,-4.519788265E0
1.981081897E1,3.583256483E0,9.394336939E-1,-5.083464146E0
1.982748491E1,4.894324780E0,3.681223989E-1,-5.289401531E0
1.984415085E1,5.911262035E0,7.452550530E-2,-4.778795242E0
1.986081678E1,5.960665703E0,-8.513928205E-2,-4.316752434E0
1.987748272E1,5.058265686E0,1.003345400E-1,-4.028653145E0
1.989414866E1,4.335994720E0,4.675406218E-1,-3.464137793E0
1.991081460E1,4.438925266E0,4.735729098E-1,-2.423453331E0
1.992748053E1,4.673192024E0,1.612683088E-1,-1.267849803E0
1.994414647E1,4.691059589E0,9.315688163E-3,-4.304305911E-1
1.996081241E1,4.268188477E0,3.562105298E-1,8.208495378E-2
1.997747835E1,2.672838926E0,1.392924428E0,1.027779937E0
1.999414428E1,1.415679157E-1,2.402302027E0,3.407021999E0
2.001081022E1,-1.619937062E0,2.076176643E0,6.439125538E0
2.002747616E1,-1.363297462E0,5.122101307E-1,7.928337574E0
2.004414210E1,-9.403499961E-1,-2.577849329E-1,8.006146431E0
2.006080803E1,-2.449720383E0,1.062446594E0,8.078152657E0
2.007747397E1,-5.114770889E0,3.436801672E0,8.028214455E0
2.009413991E1,-7.556473732E0,4.635623932E0,7.765923977E0
2.011080585E1,-7.517683983E0,1.468595266E0,6.846037865E0
2.012747178E1,-5.351099014E0,-2.258290768E0,5.945394039E0
2.014413772E1,-4.545291901E0,4.768563211E-1,3.734140158E0
2.016080366E1,-5.314752579E0,5.061243534E0,7.650317550E-1
2.017746960E1,-4.960909367E0,5.557723999E0,-1.543884397E0
2.019413553E1,-3.513388872E0,3.605324030E0,-2.378249407E0
2.021080147E1,-2.370384455E0,1.508606911E0,-2.007378101E0
2.022746741E1,-2.024787664E0,5.157225728E-1,-1.648647666E0
2.024413335E1,-2.142226458E0,5.924624801E-1,-1.684154153E0
2.026079928E1,-2.341521025E0,8.743002415E-1,-1.762421250E0
2.027746522E1,-2.267759085E0,6.324741244E-1,-1.636048555E0
2.029413116E1,-1.825416684E0,-6.032289471E-3,-1.271667719E0
2.031079710E1,-1.094898701E0,-7.157044411E-1,-7.464004159E-1
2.032746303E1,-3.816377819E-1,-9.436333776E-1,-1.140026376E-1
2.034412897E1,1.116355360E-1,-7.533490062E-1,3.220784664E-1
2.036079491E1,5.690969229E-1,-2.501491308E-1,1.440113783E-1
2.037746085E1,1.372842193E0,-5.864302069E-2,-7.763327956E-1
2.039412678E1,2.408334494E0,-6.143009067E-1,-1.802738309E0
2.041079272E1,3.236819744E0,-1.433012366E0,-2.488281250E0
2.042745866E1,3.276831388E0,-1.516319156E0,-2.713003159E0
2.044412460E1,2.650313139E0,-5.705476999E-1,-2.769584656E0
2.046079053E1,2.268064499E0,-2.909243479E-2,-2.919933558E0
2.047745647E1,2.330219984E0,-1.580612548E-2,-2.932532787E0
2.049412241E1,2.541044712E0,5.016726851E-1,-2.478660107E0
2.051078835E1,2.770653486E0,-3.529271185E-1,1.966221035E-1
2.052745428E1,3.677558661E0,-8.134428263E-1,1.512730241E0
2.054412022E1,5.515498161E0,-1.567631811E-1,-5.951350331E-1
2.056078616E1,6.462872982E0,-3.171151876E-1,-2.423147917E0
2.057745210E1,5.765112877E0,2.614501119E-1,-2.849913359E0
2.059411803E1,4.101040840E0,1.216002703E0,-3.031645536E0
2.061078397E1,2.650160551E0,1.773874998E0,-3.124344349E0
2.062744991E1,2.109316111E0,1.821598768E0,-2.586019754E0
2.064411585E1,2.542342901E0,1.305799842E0,-1.704312682E0
2.066078178E1,3.065166712E0,9.157626629E-1,-8.713222742E-1
2.067744772E1,2.602207661E0,9.009491801E-1,-5.421424750E-3
2.069411366E1,1.165911794E0,8.748347163E-1,4.862483740E-1
2.071077960E1,-1.033964992E0,6.598866582E-1,7.166207433E-1
2.072744553E1,-3.489870548E0,3.312414289E-1,1.046487689E0
2.074411147E1,-5.386682034E0,5.887209252E-2,1.598327637E0
2.076077741E1,-6.026104927E0,-6.895136237E-1,2.392375469E0
2.077744335E1,-5.360109329E0,-2.238361359E0,3.070970058E0
2.079410928E1,-4.792463303E0,-2.961472511E0,3.352349520E0
2.081077522E1,-5.810316563E0,-1.745927930E0,3.307451010E0
2.082744116E1,-7.244092941E0,1.391779065E0,1.996153355E0
2.084410710E1,-7.025326729E0,3.898844481E0,4.237110913E-1
2.086077303E1,-4.745502949E0,3.251098633E0,-8.793398738E-1
2.087743897E1,-1.755014539E0,1.308625102E0,-1.263039231E0
2.089410491E1,2.387717664E-1,-4.084394574E-1,-2.457203567E-1
2.091077085E1,1.125900149E0,-1.400560260E0,7.543416619E-1
2.092743678E1,1.465006471E0,-1.491120934E0,9.588286281E-1
2.094410272E1,1.357494235E0,-1.181259751E0,6.954695582E-1
2.096076866E1,1.114980936E0,-1.141019106E0,2.561814189E-1
2.097743460E1,8.048906922E-1,-1.019915104E0,-2.703076601E-2
2.099410053E1,5.540543795E-1,-5.833758712E-1,-1.515708268E-1
2.101076647E1,7.123447061E-1,-1.278998107E-1,-3.765217662E-1
2.102743241E1,1.321758628E0,1.511890292E-1,-6.556106210E-1
2.104409835E1,2.339612007E0,6.444623321E-2,-9.000328779E-1
2.106076428E1,3.536754370E0,-8.455132246E-1,-8.688787818E-1
2.107743022E1,3.482921839E0,-1.873522282E0,3.932442069E-1
2.109409616E1,1.404378176E0,-2.142226458E0,1.847865939E0
2.111076210E1,-5.546652079E-1,-1.315497279E0,1.851683855E0
2.112742803E1,-8.021417856E-1,2.953531146E-1,-9.300415963E-2
2.114409397E1,-3.259727061E-1,1.428889036E0,-1.835114121E0
2.116075991E1,1.007926930E-2,1.505170822E0,-2.217820883E0
2.117742585E1,-3.123809695E-1,1.096425891E0,-2.013562918E0
2.119409178E1,-1.264566422E0,6.414080262E-1,-1.653229117E0
2.121075772E1,-2.494695425E0,3.253618479E-1,-1.192789793E0
2.122742366E1,-3.861658096E0,3.214675784E-1,-3.524689674E-1
2.124408960E1,-4.846295834E0,2.354120165E-1,1.092226267E0
2.126075553E1,-4.886689186E0,9.697478265E-3,2.884121656E0
2.127742147E1,-3.016679287E0,1.910479665E-1,3.764530659E0
2.129408741E1,3.890444934E-1,8.045089245E-1,3.405952930E0
2.131075335E1,3.306458235E0,9.250019789E-1,1.839771986E0
2.132741928E1,4.377991676E0,-3.176496923E-1,1.001818255E-1
2.134408522E1,3.609905481E0,-1.087644696E0,-3.848448098E-1
2.136075116E1,1.977216601E0,-6.314051151E-1,1.474474818E-1
2.137741710E1,3.798051775E-1,3.100138903E-1,5.500074029E-1
2.139408303E1,-6.081159115E-1,1.096960425E0,4.291325212E-1
2.141074897E1,-9.055306911E-1,1.285870314E0,1.061377525E-1
2.142741491E1,-6.411789656E-1,8.128319383E-1,-1.983019859E-1
2.144408085E1,-3.306305781E-2,4.780016840E-2,-3.980547488E-1
2.146074678E1,6.466767192E-1,-4.182133079E-1,-5.086212754E-1
2.147741272E1,1.135368586E0,-4.592176080E-1,-5.998691916E-1
2.149407866E1,1.369329810E0,-1.155297980E-1,-7.897717953E-1
2.151074460E1,1.567402720E0,2.384663373E-1,-1.102763653E0
2.152741053E1,1.751120210E0,3.223838806E-1,-1.405141711E0
2.154407647E1,1.894444346E0,1.380554438E-1,-1.578856349E0
2.156074241E1,2.285168886E0,-3.997346461E-1,-1.144684196E0
2.157740835E1,2.739804983E0,-1.633986950E0,1.808923334E-1
2.159407428E1,2.446055412E0,-3.338910580E0,8.073341846E-1
2.161074022E1,1.158734083E0,-3.683209181E0,1.702785641E-1
2.162740616E1,-4.793761373E-1,-1.410715818E0,-8.306997418E-1
2.164407210E1,-1.392924428E0,1.539837360E0,-1.625740290E0
2.166073803E1,-9.357684851E-1,2.603200197E0,-1.686826706E0
2.167740397E1,2.797760665E-1,1.481347084E0,-1.208366871E0
2.169406991E1,1.477987289E0,-3.300960660E-1,-7.356339097E-1
2.171073585E1,1.890779257E0,-1.286252141E0,-4.295142889E-1
2.172740178E1,1.281136155E0,-8.770490885E-1,-2.809214294E-1
2.174406772E1,1.199585721E-1,4.856374860E-1,-2.807687223E-1
2.176073366E1,-9.346994758E-1,1.818926215E0,-2.807687223E-1
2.177739960E1,-1.460959435E0,2.442466497E0,-3.423133492E-1
2.179406553E1,-1.498374939E0,2.106719971E0,-3.940077722E-1
2.181073147E1,-1.256854296E0,1.171333194E0,-3.270417452E-1
2.182739741E1,-1.029612541E0,5.105302334E-1,-2.997818887E-1
2.184406335E1,-9.017891288E-1,2.584721744E-1,-3.339903057E-1
2.186072928E1,-8.652899861E-1,3.704894781E-1,-4.329504073E-1
2.187739522E1,-9.177479744E-1,8.232166767E-1,-6.656898856E-1
2.189406116E1,-1.022663951E0,1.281670690E0,-9.954805374E-1
2.191072710E1,-1.193248034E0,1.901927471E0,-1.339244723E0
2.192739303E1,-1.428812742E0,2.709567070E0,-1.684841394E0
2.194405897E1,-1.714544773E0,3.856771231E0,-1.963930249E0
2.196072491E1,-2.296546221E0,5.209531307E0,-2.431394577E0
2.197739085E1,-3.481776476E0,6.616047382E0,-3.063792229E0
2.199405678E1,-4.887987137E0,7.217520237E0,-3.712683439E0
2.201072272E1,-5.620490551E0,6.655371666E0,-3.960083723E0
2.202738866E1,-5.031158447E0,6.150339127E0,-3.681376696E0
2.204405460E1,-2.972773552E0,5.804284573E0,-3.180009365E0
2.206072053E1,-2.278525680E-1,4.838048935E0,-2.302273035E0
2.207738647E1,1.634597778E0,3.258199930E0,-1.632077932E0
2.209405241E1,2.098015070E0,1.792277217E0,-1.389717340E0
2.211071835E1,1.544953346E0,1.020831347E0,-1.594204307E0
2.212738428E1,5.836812854E-1,8.210022449E-1,-1.993633509E0
2.214405022E1,-1.954767257E-1,7.266236544E-1,-2.369162798E0
2.216071616E1,-3.949240744E-1,5.190823674E-1,-2.615570307E0
2.217738210E1,-5.299251899E-2,1.754709035E-1,-2.690935612E0
2.219404803E1,3.572795391E-1,-5.940660089E-2,-2.664439440E0
2.221071397E1,4.782307744E-1,-1.039997265E-1,-2.668410063E0
2.222737991E1,3.709476292E-1,-2.112064958E-1,-2.662225008E0
2.224404585E1,2.566395700E-1,-2.505309284E-1,-2.628016710E0
2.226071178E1,3.048215210E-1,-3.274998665E-1,-2.504927397E0
2.227737772E1,5.001455545E-1,-5.332849622E-1,-2.419940710E0
2.229404366E1,4.264599681E-1,-1.122464016E-1,-2.489197731E0
2.231070960E1,3.019962609E-1,-9.987638891E-2,-2.173075199E0
2.232737553E1,3.270417452E-1,-8.252019882E-1,-1.839771986E0
2.234404147E1,2.251800299E-1,-1.386128545E0,-1.500283957E0
2.236070741E1,2.512944937E-1,-2.329151154E0,-9.837213755E-1
2.237737335E1,1.492037177E-1,-2.982394457E0,-5.742892623E-1
2.239403928E1,-3.055087626E-1,-3.284543514E0,-3.110065162E-1
2.241070522E1,-7.838158607E-1,-2.963152409E0,-4.366155863E-1
2.242737116E1,-1.072983980E0,-2.336481333E0,-8.726966977E-1
2.244403710E1,-8.982766867E-1,-2.095266104E0,-1.456912518E0
2.246070303E1,-2.904661894E-1,-2.037463188E0,-2.451629400E0
2.247736897E1,-7.254019380E-2,-1.749898553E0,-3.177871227E0
2.249403491E1,-7.781654000E-1,2.219729871E-1,-3.043710232E0
2.251070085E1,-1.331761599E0,9.249256253E-1,-1.941862822E0
2.252736678E1,-1.277929068E0,1.639026523E0,-1.548236728E0
2.254403272E1,-1.072373152E0,1.046334982E0,-1.561828494E0
2.256069866E1,-8.675043583E-1,3.597230017E-1,-1.709123254E0
2.257736460E1,-7.047852278E-1,2.755763829E-1,-1.676594734E0
2.259403053E1,-4.906771481E-1,-4.390590638E-2,-1.378721833E0
2.261069647E1,-9.445496649E-2,-3.358992636E-1,-1.020907760E0
2.262736241E1,4.169915617E-1,-2.166279256E-1,-7.312815189E-1
2.264402835E1,5.076286197E-1,1.015562657E-2,-4.138608873E-1
2.266069428E1,2.493091822E-1,-1.321835041E0,-1.611155830E-2
2.267736022E1,3.851502538E-1,-3.981234789E0,2.642753720E-1
2.269402616E1,1.139568210E0,-5.817188740E0,-2.980256677E-1
2.271069210E1,1.075885534E0,-4.247648239E0,-1.108566880E0
2.272735803E1,2.603047490E-1,-2.240193844E0,-9.313397408E-1
2.274402397E1,-6.850084662E-1,-1.179961681E0,-9.078978002E-2
2.276068991E1,-1.270293355E0,-8.017600514E-3,3.029889166E-1
2.277735585E1,-1.779296398E0,1.795789719E0,4.424951673E-1
2.279402178E1,-2.417802811E0,3.266599417E0,3.684278131E-1
2.281068772E1,-2.831281900E0,4.779558659E0,6.940951198E-2
2.282735366E1,-2.888855934E0,5.367897987E0,1.098793000E-1
2.284401960E1,-2.289979458E0,4.200459003E0,5.899426341E-1
2.286068553E1,-1.170111537E0,3.875020742E0,1.005254388E0
2.287735147E1,1.004872546E-1,4.406778336E0,7.886264324E-1
2.289401741E1,1.087186575E0,2.674136877E0,6.192641705E-2
2.291068335E1,1.455156207E0,1.010141253E0,-4.876991808E-1
2.292734928E1,1.170798659E0,2.262490392E-1,-7.419716120E-1
2.294401522E1,6.573668718E-1,5.631409883E-1,-1.103145480E0
2.296068116E1,4.829649627E-1,1.244331598E0,-1.316337228E0
2.297734710E1,6.940951347E-1,1.512730241E0,-1.086346626E0
2.299401303E1,9.803616405E-1,1.324736595E0,-5.543597937E-1
2.301067897E1,1.094058871E0,8.645263910E-1,-1.129336283E-1
2.302734491E1,1.157207012E0,2.787834108E-1,-9.422589093E-2
2.304401085E1,1.111926556E0,-3.258199990E-1,-3.626246154E-1
2.306067678E1,8.881210089E-1,-5.872701406E-1,-5.916225314E-1
2.307734272E1,5.719985366E-1,-1.889862865E-1,-6.869937778E-1
2.309400866E1,3.958403766E-1,7.423534393E-1,-7.323505282E-1
2.311067460E1,5.077813268E-1,1.211573958E0,-7.990874648E-1
2.312734053E1,7.655662894E-1,8.903354406E-1,-8.413135409E-1
2.314400647E1,8.631519079E-1,1.398116797E-1,-6.785180569E-1
2.316067241E1,8.109229803E-1,-5.589412451E-1,-3.917934000E-1
2.317733835E1,6.687442064E-1,-8.330668211E-1,-2.655734718E-1
2.319400428E1,4.530325830E-1,-4.234820008E-1,-3.336085379E-1
2.321067022E1,3.059668839E-1,5.673406646E-2,-5.847502947E-1
2.322733616E1,3.613265157E-1,1.717293561E-1,-8.305470347E-1
2.324400210E1,5.345830321E-1,-5.039634649E-3,-9.104939699E-1
2.326066803E1,6.929497123E-1,-1.274416596E-1,-8.836922646E-1
2.327733397E1,7.211259007E-1,-1.820377111E-1,-8.426879644E-1
2.329399991E1,6.301833987E-1,-1.597411335E-1,-6.501128674E-1
2.331066585E1,3.942368627E-1,-4.520399496E-2,-1.516471803E-1
2.332733178E1,2.994000912E-1,-2.192240953E-1,2.309068888E-1
2.334399772E1,5.040398240E-1,-6.384300590E-1,2.886336111E-2
