"Time (s)","Linear Acceleration x (m/s^2)","Linear Acceleration y (m/s^2)","Linear Acceleration z (m/s^2)"
4.501709600E-2,0.000000000E0,0.000000000E0,0.000000000E0
6.168303400E-2,5.556523800E-1,-1.088840961E-1,9.891605377E-2
7.834897100E-2,5.980816483E-1,-4.000256062E-1,-7.152414322E-2
9.501490900E-2,-1.328234076E-1,-4.632596970E-1,-7.000389099E-1
1.116808460E-1,-5.946967602E-1,-4.916191101E-2,-1.675328732E0
1.283467840E-1,-4.852423668E-1,1.015382290E0,-2.585005283E0
1.450127210E-1,-9.905555248E-1,1.603132963E0,-2.524569511E0
1.616786590E-1,-1.690356851E0,2.257987738E0,-1.033510685E0
1.783445960E-1,-2.986341953E0,3.028531790E0,6.117581367E0
1.950105340E-1,-2.193132639E0,2.643839598E0,7.174585819E0
2.116764710E-1,-1.931012869E-1,3.219599247E0,4.708783150E0
2.283424090E-1,-7.669759989E-1,3.371342897E0,2.757209301E0
2.450083460E-1,3.250471354E-1,1.462527990E0,2.642901897E0
2.616742840E-1,-2.000004768E0,4.619463921E0,3.148741722E0
2.783402210E-1,-2.526439667E0,5.286460400E0,5.250520706E0
2.950061590E-1,-1.058570743E0,7.093539238E-1,8.141711235E0
3.116720960E-1,-5.717333555E-1,-8.618996143E-1,6.489018440E0
3.283380340E-1,-1.094222307E0,-8.088308573E-1,8.697442055E0
3.450039710E-1,-4.142541289E-1,-1.010990024E0,6.486743927E0
3.616699090E-1,2.294710159E0,-1.133083344E0,3.698962212E0
3.783358460E-1,1.903220415E0,-5.046523571E0,2.655153275E0
3.950017840E-1,2.023933887E0,-5.578177452E0,-3.044099808E-1
4.116677210E-1,1.691070080E0,-4.762975693E0,8.110485077E-1
4.283336590E-1,3.440034151E0,-3.808946848E0,3.095855713E0
4.449995960E-1,5.740318775E0,-8.923230171E0,2.979892731E0
4.616655340E-1,6.910035610E0,-1.128104591E1,-1.559806824E0
4.783314710E-1,5.033888817E0,-6.809405804E0,-2.470467567E0
4.949974090E-1,4.097135067E-1,1.742911816E0,-2.188413620E0
5.116633460E-1,-8.468850851E-1,2.873220921E0,-1.035765648E0
5.283292840E-1,-2.416187763E0,4.532421112E0,1.101665497E0
5.449952210E-1,-4.871472359E0,5.885455608E0,3.418083191E-1
5.616611590E-1,-7.486859322E0,7.183233738E0,-1.439833641E0
5.783270960E-1,-7.115614414E0,8.502655983E0,1.307497025E-1
5.949930340E-1,-7.282462597E0,8.084374428E0,1.820729256E0
6.116589710E-1,-8.601586342E0,6.469603539E0,1.808772087E0
6.283249090E-1,-8.892850876E0,6.985182285E0,-8.039903641E-1
6.449908460E-1,-7.523355484E0,8.920710564E0,-3.698709011E0
6.616567840E-1,-6.508730888E0,7.772047520E0,-4.917920113E0
6.783227210E-1,-7.410498142E0,7.390574932E0,-3.199593544E0
6.949886590E-1,-7.665443420E0,4.325043201E0,-1.529860497E0
7.116545960E-1,-8.153422356E0,2.482467175E0,-1.472796440E0
7.283205340E-1,-8.038539886E0,2.975939751E0,-9.245500565E-1
7.449864710E-1,-7.750997543E0,1.993964672E0,3.630579948E0
7.616524090E-1,-5.624621868E0,-2.990006208E0,1.011387634E1
7.783183460E-1,-1.620124340E0,-6.056221962E0,1.320684242E1
7.949842840E-1,4.152162552E0,-6.372626305E0,1.067192173E1
8.116502210E-1,4.965686321E0,-4.563679218E0,1.037372398E1
8.283161590E-1,5.266551018E0,-8.019849777E0,1.327798176E1
8.449820960E-1,5.223835945E0,-1.188091850E1,1.325826454E1
8.616480340E-1,5.033307076E0,-1.127794456E1,9.311278343E0
8.783139710E-1,3.177344322E0,-1.185133266E1,1.842032433E0
8.949799090E-1,9.865981340E-1,-9.871172905E0,-6.432948589E0
9.116458460E-1,1.656854153E-2,-6.641085625E0,-9.176558495E0
9.283117840E-1,-1.944053173E-1,-5.295303822E0,-9.268555641E0
9.449777210E-1,-7.341105938E-1,-6.667765617E0,-8.231697083E0
9.616436590E-1,-1.010711193E0,-5.703808784E0,-8.258413315E0
9.783095960E-1,1.400599480E-1,-7.944636822E0,-9.879828453E0
9.949755340E-1,-9.536021948E-1,-1.009174156E1,-1.278327370E1
1.011641471E0,1.562125683E-1,-6.699734688E0,-1.444219971E1
1.028307409E0,1.164101601E0,-5.570754528E0,-1.451142311E1
1.044973346E0,1.327350855E0,-5.597842216E0,-1.245684147E1
1.061639284E0,1.271478653E0,-5.695453167E0,-8.043045998E0
1.078305221E0,1.192060232E0,-7.900110245E0,-5.410783768E0
1.094971159E0,3.302853107E0,-8.145018578E0,-4.641794682E0
1.111637096E0,8.368784904E0,-5.974641800E0,-2.552743912E0
1.128303034E0,1.027274704E1,-2.552011013E0,2.456315994E0
1.144968971E0,1.076918602E1,-2.608363867E0,5.052126884E0
1.161634909E0,1.139436817E1,-3.700603008E0,1.440828419E1
1.178300846E0,8.971735001E0,-5.288154602E0,2.136127472E1
1.194966784E0,4.509536743E0,-3.935678959E0,2.051416016E1
1.211632721E0,9.594388008E-1,-1.072127700E0,1.463156319E1
1.228298659E0,-1.335257530E0,1.532161713E0,8.072342873E0
1.244964596E0,-3.258914471E0,3.144024611E0,2.573946953E0
1.261630534E0,-4.785429478E0,4.022655964E0,-1.068873405E0
1.278296471E0,-6.663035393E0,3.958298206E0,-2.559345722E0
1.294962409E0,-8.143140793E0,3.874836445E0,-2.546669483E0
1.311628346E0,-8.045269012E0,3.725264549E0,-6.884584427E-1
1.328294284E0,-6.578945160E0,3.972898722E0,-2.337022305E0
1.344960221E0,-6.522203445E0,4.284605980E0,-5.519620419E0
1.361626159E0,-8.185981750E0,4.509822369E0,-8.305823326E0
1.378292096E0,-9.412615776E0,4.062071800E0,-7.460439682E0
1.394958034E0,-9.955361366E0,3.407106638E0,-4.261213779E0
1.411623971E0,-9.916497231E0,2.227248192E0,-1.639335155E0
1.428289909E0,-1.037824440E1,9.319710732E-1,1.415824890E-1
1.444955846E0,-1.080209732E1,-1.328966618E0,9.776840210E-1
1.461621784E0,-1.155602264E1,-3.134871960E0,9.504165649E-1
1.478287721E0,-1.290026474E1,-4.646007538E0,2.223520279E0
1.494953659E0,-1.395624256E1,-6.025589943E0,5.399992943E0
1.511619596E0,-1.250091267E1,-6.946131706E0,8.030188560E0
1.528285534E0,-7.675098419E0,-7.547211170E0,9.024799347E0
1.544951471E0,-2.238726616E0,-6.941990852E0,1.554589081E1
1.561617409E0,1.473080158E0,-8.395714760E0,1.990994453E1
1.578283346E0,3.111070633E0,-1.132468224E1,2.201601601E1
1.594949284E0,5.777259827E0,-1.416484833E1,2.217828941E1
1.611615221E0,9.666140556E0,-1.426059437E1,1.785171890E1
1.628281159E0,9.482305527E0,-1.270212269E1,1.086067677E1
1.644947096E0,8.240900040E0,-1.056641293E1,4.589185715E0
1.661613034E0,7.455962181E0,-9.562433243E0,2.133984089E0
1.678278971E0,5.097649574E0,-9.098455429E0,1.489631176E0
1.694944909E0,1.712336063E0,-8.084429741E0,3.782696724E-1
1.711610846E0,-4.248771667E-1,-6.789237499E0,-1.152629375E0
1.728276784E0,-1.287667513E0,-5.632816315E0,-2.735405445E0
1.744942721E0,-1.576586962E0,-4.998076916E0,-4.331511497E0
1.761608659E0,-1.358448505E0,-4.726426125E0,-5.350359440E0
1.778274596E0,-7.653682232E-1,-4.298186779E0,-4.846676826E0
1.794940534E0,-3.481066227E-1,-4.309903145E0,-4.121869087E0
1.811606471E0,-6.802427769E-1,-4.642389297E0,-3.595499992E0
1.828272409E0,-1.633518219E0,-4.693840027E0,-3.709423542E0
1.844938346E0,-2.924965143E0,-4.542588234E0,-3.801648617E0
1.861604284E0,-3.599030256E0,-4.506370544E0,-3.213148117E0
1.878270221E0,-3.300964355E0,-4.368356228E0,-2.179523468E0
1.894936159E0,-2.246801376E0,-4.298713684E0,-9.519901276E-1
1.911602096E0,8.224246502E-1,-5.045507908E0,4.125046730E-1
1.928268034E0,4.242716312E0,-6.256061077E0,6.060323715E-1
1.944933971E0,4.276132584E0,-4.988636971E0,7.851929665E-1
1.961599909E0,2.099209070E0,-3.500394344E0,3.166516781E0
1.978265846E0,1.041101694E0,-3.640602350E0,7.996032238E0
1.994931784E0,8.438081741E-1,-2.912384510E0,1.250059986E1
2.011597721E0,2.450689793E0,-1.934750319E0,1.279932117E1
2.028263659E0,3.191475868E0,-1.457777262E0,8.781802177E0
2.044929596E0,1.631389141E0,-6.295266151E-1,3.401983261E0
2.061595534E0,-4.138472080E-1,-2.891373634E-1,-1.006202698E-1
2.078261471E0,-2.312628269E0,-5.940485001E-2,-1.588344574E0
2.094927409E0,-3.520113468E0,1.291785240E-1,-2.525926590E0
2.111593346E0,-4.245657444E0,4.762194157E-1,-3.049298763E0
2.128259284E0,-4.389232635E0,4.528281689E-1,-1.959271908E0
2.144925221E0,-3.802636623E0,1.726617813E-1,-2.474816799E0
2.161591159E0,-3.519980907E0,2.831387520E-1,-4.146826267E0
2.178257096E0,-3.605814695E0,2.980146408E-1,-5.075625420E0
2.194923034E0,-3.880874157E0,1.494724751E-1,-5.162196159E0
2.211588971E0,-4.299334526E0,1.978802681E-2,-4.398326397E0
2.228254909E0,-4.322696209E0,-4.289088249E-1,-3.356735706E0
2.244920846E0,-3.788921356E0,-8.577826023E-1,-2.692850590E0
2.261586784E0,-3.483268261E0,-8.229067326E-1,-1.502419949E0
2.278252721E0,-3.562481880E0,-1.136573076E0,-1.139341354E0
2.294918659E0,-3.676479101E0,-1.218979120E0,-3.779783249E-1
2.311584596E0,-3.797540665E0,-1.303622723E0,2.137691498E0
2.328250534E0,-2.908710957E0,-2.068657875E0,6.786966324E0
2.344916471E0,-1.626263261E0,-3.164647102E0,1.241289425E1
2.361582409E0,-2.667338848E-1,-4.267558098E0,1.585962677E1
2.378248346E0,9.933211803E-1,-4.802183151E0,1.326581383E1
2.394914284E0,1.662040710E0,-4.274990559E0,7.636824608E0
2.411580221E0,2.084218264E0,-3.686022997E0,2.806059837E0
2.428246159E0,1.695185423E0,-2.685359478E0,7.326250076E-1
2.444912096E0,7.778229713E-1,-2.697917461E0,1.134407043E0
2.461578034E0,1.546684504E-1,-3.265424252E0,2.367049217E0
2.478243971E0,3.452432156E-2,-3.385040760E0,2.266543388E0
2.494909909E0,5.207746029E-1,-3.280583143E0,8.894977570E-1
2.511575846E0,1.141370058E0,-2.513856888E0,-1.697302341E0
2.528241784E0,2.399163723E0,-5.414907932E-1,-2.556769371E0
2.544907721E0,6.888688803E-1,-2.619971275E0,-2.114536762E0
2.561573659E0,-5.567218065E-1,-4.596101284E0,2.192516327E-1
2.578239596E0,-9.358238578E-1,-3.355340719E0,1.148725510E0
2.594905534E0,1.557281017E-1,-2.606344700E0,-8.124685287E-1
2.611571471E0,5.023627877E-1,-1.913970709E0,-2.349105835E0
2.628237409E0,3.188536167E-1,-2.096615314E0,-3.457706928E0
2.644903346E0,-6.959746480E-1,-1.635875940E0,-3.193091393E0
2.661569284E0,-7.341100574E-1,-1.916631699E0,-1.406688690E0
2.678235221E0,-1.707269251E-1,-2.265330315E0,6.375713348E-1
2.694901159E0,-6.193817854E-1,-1.525792837E0,1.475393295E0
2.711567096E0,-6.176369786E-1,-1.191825509E0,1.648712158E0
2.728233034E0,-7.631571889E-1,-4.556009769E-1,1.926408768E0
2.744898971E0,-9.666115046E-1,-4.653325081E-1,2.915271759E0
2.761564909E0,-8.377994299E-1,-4.678282738E-1,4.063174248E0
2.778230846E0,-6.280797720E-1,-1.776058674E-1,4.355356216E0
2.794896784E0,-7.306945920E-1,1.653015614E-1,4.292554855E0
2.811562721E0,-1.145735025E0,7.907533646E-2,3.258134842E0
2.828228659E0,4.359019995E-1,-1.330402255E0,1.862126350E0
2.844894596E0,5.745244026E-1,-1.805047989E0,8.228845596E-1
2.861560534E0,-9.737404585E-1,-9.628474712E-1,-3.432559967E-2
2.878226471E0,-1.275094271E0,-1.039639950E0,-1.266653061E0
2.894892409E0,-8.515391946E-1,-1.520944953E0,-4.456298351E0
2.911558346E0,-8.686841726E-1,1.842676640E0,-5.414510727E0
2.928224284E0,-1.551725864E-1,-8.514881134E-1,-1.618708134E0
2.944890221E0,-1.476728320E0,-1.345793366E0,1.163498878E0
2.961556159E0,-8.310516477E-1,3.785910606E-1,3.246927261E-1
2.978222096E0,-5.983898640E-1,-9.579780102E-1,1.265439987E0
2.994888034E0,-1.133448839E0,-1.512990475E0,-3.259820938E-1
3.011553971E0,8.679878712E-2,-4.849388599E-1,-2.386919498E0
3.028219909E0,9.707062244E-1,6.277987957E-1,-3.374536037E0
3.044885846E0,5.618258715E-1,7.558462620E-1,-4.093059063E0
3.061551784E0,1.128147840E-1,1.189604521E0,-3.572473049E0
3.078217721E0,1.408854961E0,1.431662560E0,-2.110188961E0
3.094883659E0,1.464139462E0,1.537615299E0,-6.123828888E-1
3.111549596E0,1.062621355E0,2.460765362E0,-1.035872459E0
3.128215534E0,-1.098960638E-1,1.557991743E0,-1.366366863E0
3.144881471E0,2.202438712E-1,1.265573025E0,-2.123432636E0
3.161547409E0,7.237508297E-1,2.130967855E0,-2.286775112E0
3.178213346E0,5.605474114E-1,2.521539450E0,-1.555499077E0
3.194879284E0,2.991175652E-1,2.568191290E0,4.494667053E-3
3.211545221E0,3.936268687E-1,1.846858740E0,1.524819374E0
3.228211159E0,3.213730454E-1,1.540267706E0,2.580567360E0
3.244877096E0,4.573492408E-1,1.007372379E0,2.522340775E0
3.261543034E0,1.794707179E-1,8.840217590E-1,1.865472794E0
3.278208971E0,2.358583808E-1,7.776832581E-1,8.792600632E-1
3.294874909E0,4.691875875E-1,7.184009552E-1,3.930091858E-2
3.311540846E0,1.271682829E-1,4.134831429E-1,-5.227012634E-1
3.328206784E0,-1.477203369E-1,-1.052186489E-1,-9.186592102E-1
3.344872721E0,-3.970313370E-1,-4.247934818E-1,-8.637962341E-1
3.361538659E0,-8.597812653E-1,-8.882782459E-1,-6.450033188E-1
3.378204596E0,-5.889440179E-1,-1.248311281E0,-6.512002945E-1
3.394870534E0,-5.385726690E-1,-1.127909422E0,-3.805789948E-1
3.411536471E0,-8.937826008E-2,-1.502947807E0,-6.656522751E-1
3.428202409E0,-1.598926187E-1,-1.243511438E0,-8.132839203E-1
3.444868346E0,-3.773665726E-1,-1.228116751E0,-7.939243317E-1
3.461534284E0,-8.064377904E-1,-1.015378952E0,-2.154216766E-1
3.478200221E0,-8.619357944E-1,-1.183500528E0,1.333250999E0
3.494866159E0,-7.402732968E-1,-1.144032955E0,2.180103302E0
3.511532096E0,-7.412863970E-1,-5.376322269E-1,1.860157967E0
3.528198034E0,-5.324156880E-1,-6.529219151E-1,1.194178581E0
3.544863971E0,-5.596014857E-2,-8.460266590E-1,1.076303482E0
3.561529909E0,3.793172836E-1,-1.195615292E0,1.367546082E0
3.578195846E0,6.387421489E-1,-1.097512007E0,1.783910751E0
3.594861784E0,6.096485257E-2,-1.475375414E0,1.840085030E0
3.611527721E0,-7.330189943E-1,-1.467133999E0,1.403990746E0
3.628193659E0,-5.909262896E-1,-1.791204453E0,6.182441711E-1
3.644859596E0,-1.329854131E-2,-2.031112432E0,-5.613231659E-2
3.661525534E0,1.272821665E0,-1.939820051E0,-3.722200394E-1
3.678191471E0,2.576717377E0,-1.689533949E0,-4.918870926E-1
3.694857409E0,2.134706974E0,-1.202190876E0,-5.789146423E-1
3.711523346E0,8.248447776E-1,-1.178933382E0,-6.650438309E-1
3.728189284E0,-3.768680692E-1,-1.352183342E0,-6.687145233E-1
3.744855221E0,-7.519184351E-1,-8.533163071E-1,-9.793834686E-1
3.761521159E0,-5.975767970E-1,-3.070127964E-1,-1.854101658E0
3.778187096E0,-6.354364753E-1,1.340901852E0,-1.536585331E0
3.794853034E0,-3.960137367E-1,2.742532492E0,-1.385757923E0
3.811518971E0,-1.240956783E-2,3.191385508E0,-1.833450794E0
3.828184909E0,1.860666275E0,1.571282625E0,-1.278646469E0
3.844850846E0,4.138503075E-1,1.454218388E0,-3.134365082E-1
3.861516784E0,-2.545056939E-1,1.682395458E0,4.598999023E-2
3.878182721E0,5.552995205E-2,2.714723825E0,-1.019046783E0
3.894848659E0,-4.624198377E-1,2.595524073E0,-5.702619553E-1
3.911514596E0,5.213648677E-1,-8.914225101E-1,1.404193878E0
3.928180534E0,6.073451042E-2,9.999480247E-1,1.392059326E-1
3.944846471E0,-8.069276810E-4,6.894264221E-1,-7.928686142E-1
3.961512409E0,-3.455950618E-1,-1.713628769E-1,-2.252126217E0
3.978178346E0,-4.810232520E-1,5.372118950E-1,-3.442255020E0
3.994844284E0,3.371896744E-1,1.017817497E0,-4.041772842E0
4.011510221E0,8.104299307E-1,1.558272600E0,-3.764990330E0
4.028176159E0,2.886725664E-1,2.002002001E0,-2.397199631E0
4.044842096E0,-2.740510702E-1,1.845375299E0,-1.500498772E0
4.061508034E0,-3.989213705E-1,1.945891380E0,-1.145614624E0
4.078173971E0,-1.732926369E-1,2.524507284E0,-1.604745388E0
4.094839909E0,1.249717474E-1,2.904671192E0,-2.391332150E0
4.111505846E0,2.599943876E-1,3.394804001E0,-2.536859035E0
4.128171784E0,-1.374099255E-1,3.341376305E0,-2.011488438E0
4.144837721E0,-3.667291403E-1,2.445042610E0,-1.832970142E0
4.161503659E0,-1.177781343E0,2.030407906E0,-2.846947670E0
4.178169596E0,-1.838390112E0,1.870423079E0,-3.449428082E0
4.194835534E0,-1.169269085E0,1.983237267E0,-3.752888203E0
4.211501471E0,-2.837201357E-1,2.607927322E0,-3.673106194E0
4.228167409E0,9.333407879E-2,2.506294966E0,-2.376805782E0
4.244833346E0,2.359863520E-1,2.733231544E0,-1.089047432E0
4.261499284E0,-1.027441025E-2,3.336276293E0,-4.256324768E-1
4.278165221E0,-5.362289548E-1,3.437759876E0,-7.067317963E-1
4.294831159E0,-9.858846664E-2,3.131427288E0,-3.864650726E-1
4.311497096E0,9.865521193E-1,3.654851437E0,6.799821854E-1
4.328163034E0,3.600337505E-1,4.647680283E0,3.495759964E-1
4.344828971E0,8.049907684E-1,1.485593677E0,-1.113523483E0
4.361494909E0,1.668787003E-2,3.061657429E0,-1.115738869E0
4.378160846E0,-4.326218367E-1,3.768276691E0,-2.574691772E-1
4.394826784E0,-4.185752869E-1,3.048712492E0,-1.032800674E0
4.411492721E0,1.171820879E0,2.507372856E0,-1.681637764E0
4.428158659E0,1.564665198E0,2.919310808E0,-9.415864944E-1
4.444824596E0,3.116282225E-1,2.124317408E0,1.211299896E-1
4.461490534E0,-1.330210924E0,2.842675686E0,5.057802200E-1
4.478156471E0,-1.505705595E0,2.778191090E0,-5.330543518E-1
4.494822409E0,-1.846486330E0,3.387326717E0,-1.035445213E0
4.511488346E0,-3.590956450E0,3.822837830E0,5.461473465E-1
4.528154284E0,-2.418282747E0,1.839232206E0,2.566778183E0
4.544820221E0,-1.782361627E0,5.016695023E0,4.368313789E0
4.561486159E0,-1.421690941E0,6.546264648E0,2.844623566E0
4.578152096E0,-1.651988745E0,6.977115154E0,2.330682755E0
4.594818034E0,-8.986694813E-1,9.383734703E0,6.190266609E0
4.611483971E0,3.354213238E0,8.375965118E0,8.794100761E0
4.628149909E0,3.816979885E0,1.099529839E1,6.702536583E0
4.644815846E0,4.894488335E0,1.196619511E1,2.846247673E0
4.661481784E0,4.469511032E0,1.343043709E1,9.110619545E0
4.678147721E0,5.972646713E0,1.333460426E1,1.452347565E1
4.694813659E0,6.207692146E0,1.271003914E1,1.375635147E1
4.711479596E0,6.675048351E0,1.201026535E1,1.002946472E1
4.728145534E0,5.646403313E0,9.901391029E0,8.578060150E0
4.744811471E0,3.264890194E0,6.516944408E0,1.150631809E1
4.761477409E0,2.573804855E-1,1.409794331E0,1.188282204E1
4.778143346E0,-4.313190460E0,-4.901807308E0,7.269759178E0
4.794809284E0,-1.016609764E1,-1.226177120E1,-2.181989670E0
4.811475221E0,-1.640412521E1,-2.022913361E1,-7.455183506E0
4.828141159E0,-2.168387413E1,-2.803663826E1,-6.069867134E0
4.844807096E0,-2.299642181E1,-3.798028564E1,-3.391987801E0
4.861473034E0,-1.834218407E1,-4.706002808E1,-1.869591713E0
4.878138971E0,-1.092208195E1,-5.062706375E1,-6.952028275E0
4.894804909E0,-5.707570076E0,-4.954206085E1,-1.186814308E1
4.911470846E0,-3.703051567E0,-4.477673340E1,-6.701741219E0
4.928136784E0,4.541883469E-1,-3.959295273E1,5.557867050E0
4.944802721E0,1.091808128E1,-3.400967789E1,1.373277664E1
4.961468659E0,2.316368866E1,-2.590635490E1,1.632217216E1
4.978134596E0,4.403908539E1,-1.463329506E1,1.305021858E1
4.994800534E0,6.632327271E1,-1.531835556E0,2.199329376E0
5.011466471E0,7.009795380E1,6.428052902E0,-1.118401289E0
5.028132409E0,6.032545471E1,8.344101906E0,1.702439690E1
5.044798346E0,4.281874084E1,1.337749100E1,3.043008041E1
5.061464284E0,3.207612610E1,2.011357880E1,2.589196587E1
5.078130221E0,1.958335876E1,2.384998894E1,9.454332352E0
5.094796159E0,-2.665943623E0,2.757590103E1,5.237540722E0
5.111462096E0,-2.580632019E1,3.540596771E1,1.766532516E1
5.128128034E0,-3.158406448E1,4.286269760E1,2.634619522E1
5.144793971E0,-2.299480820E1,4.356690216E1,2.136364174E1
5.161459909E0,-1.489918327E1,4.502927399E1,1.322079182E1
5.178125846E0,-1.668113518E1,4.745318985E1,1.227064514E1
5.194791784E0,-1.321802711E1,4.679717636E1,1.584556961E1
5.211457721E0,-4.864998341E0,4.594490814E1,2.896716690E1
5.228123659E0,2.077756500E1,3.809547424E1,4.107345963E1
5.244789596E0,4.740491104E1,2.612276077E1,4.496331787E1
5.261455534E0,6.359133148E1,1.618513298E1,4.742440796E1
5.278121471E0,6.935645294E1,-5.727764606E0,4.724761963E1
5.294787409E0,7.005635071E1,-3.207624435E1,2.819613075E1
5.311453346E0,6.354262924E1,-4.271100998E1,-5.329723358E0
5.328119284E0,3.976472855E1,-4.962409210E1,-1.019813061E1
5.344785221E0,1.454387760E1,-5.783193970E1,1.182063675E1
5.361451159E0,-3.617493629E0,-6.338385773E1,1.538154793E1
5.378117096E0,-2.001062775E1,-5.913940811E1,-2.624538898E0
5.394783034E0,-3.140052032E1,-5.229637909E1,-1.982653427E1
5.411448971E0,-2.927868652E1,-5.209979248E1,-1.397844219E1
5.428114909E0,-1.559633446E1,-5.454962921E1,1.366564989E0
5.444780846E0,-5.702250481E0,-5.147492981E1,3.518146515E0
5.461446784E0,-3.823300838E0,-4.487018204E1,-2.808126688E0
5.478112721E0,1.770187378E0,-3.879973221E1,-2.706082582E0
5.494778659E0,1.170855331E1,-3.262506104E1,3.962947369E0
5.511444596E0,2.349267578E1,-2.578590393E1,7.467381477E0
5.528110534E0,4.333829117E1,-1.972390938E1,1.387568951E1
5.544776471E0,5.307038116E1,-1.011931992E1,1.053710556E1
5.561442409E0,5.863484955E1,2.364142179E0,-4.285357952E0
5.578108346E0,6.626297760E1,1.048419857E1,-7.467569351E0
5.594774284E0,4.796837234E1,1.391865730E1,1.163082886E1
5.611440221E0,2.166885567E1,2.120187187E1,2.810704231E1
5.628106159E0,4.676916122E0,2.853668785E1,2.010582542E1
5.644772096E0,-9.839675903E0,3.915769196E1,1.366503716E1
5.661438034E0,-1.316409969E1,4.411679840E1,2.315293312E1
5.678103971E0,-1.168936729E1,4.198582077E1,3.442027283E1
5.694769909E0,-1.979224396E1,4.360971069E1,3.524863434E1
5.711435846E0,-1.985461044E1,4.334462738E1,2.373920441E1
5.728101784E0,-1.181111717E1,4.237461472E1,1.335590553E1
5.744767721E0,3.651294708E0,4.072692871E1,1.419356632E1
5.761433659E0,2.093180847E1,3.581810760E1,2.068721962E1
5.778099596E0,3.708195114E1,2.765486526E1,2.866669846E1
5.794765534E0,5.454151917E1,1.641711998E1,2.919472122E1
5.811431471E0,6.852714539E1,-1.360357285E0,2.347112465E1
5.828097409E0,6.668450928E1,-1.858099556E1,1.670694923E1
5.844763346E0,5.270324326E1,-3.314477921E1,9.358366013E0
5.861429284E0,3.585237503E1,-4.512780762E1,3.003427982E0
5.878095221E0,9.481307030E0,-4.811470032E1,7.733092308E0
5.894761159E0,-1.029862404E1,-4.845391464E1,1.051870441E1
5.911427096E0,-2.165463257E1,-4.774687576E1,-1.141901970E0
5.928093034E0,-2.765927315E1,-5.016172028E1,-7.682083607E0
5.944758971E0,-2.548910904E1,-5.620269775E1,-1.358072281E0
5.961424909E0,-2.163520622E1,-6.027237701E1,4.861835539E-1
5.978090846E0,-1.730543709E1,-5.828273773E1,-2.014667511E0
5.994756784E0,-4.720848083E0,-5.318600464E1,7.130371928E-1
6.011422721E0,1.404290867E1,-4.256437302E1,4.586242199E0
6.028088659E0,3.181034470E1,-2.956214523E1,6.183887005E0
6.044754596E0,4.714468384E1,-1.516304207E1,9.251307487E0
6.061420534E0,5.560437775E1,-1.791513205E0,7.899566650E0
6.078086471E0,5.406662369E1,1.124856186E1,3.376387596E0
6.094752409E0,4.966695786E1,1.939647102E1,1.883320332E0
6.111418346E0,4.204031754E1,2.280412483E1,9.258563995E0
6.128084284E0,2.771623039E1,2.372376251E1,1.608266449E1
6.144750221E0,1.129973030E1,2.250785255E1,1.481517887E1
6.161416159E0,-2.863628864E0,2.277240944E1,1.347969341E1
6.178082096E0,-8.017734528E0,2.030454063E1,1.345045471E1
6.194748034E0,-1.178214836E1,1.601038933E1,1.252581882E1
6.211413971E0,-1.974586868E1,1.455761719E1,9.452074051E0
6.228079909E0,-2.493406677E1,1.652441025E1,8.669025421E0
6.244745846E0,-2.547014427E1,1.854013634E1,9.511948586E0
6.261411784E0,-2.205046844E1,2.193521309E1,9.729571342E0
6.278077721E0,-1.467114830E1,2.565579224E1,7.910789013E0
6.294743659E0,-4.929780483E0,2.814569855E1,6.364052773E0
6.311409596E0,5.727123260E0,2.777787018E1,1.118021870E1
6.328075534E0,1.747978020E1,2.502369118E1,2.142103004E1
6.344741471E0,2.827867508E1,1.956659698E1,2.715248108E1
6.361407409E0,4.241278839E1,8.617170334E0,2.155004883E1
6.378073346E0,4.605902863E1,-1.529049873E0,1.152301788E1
6.394739284E0,4.604675293E1,-1.145878601E1,5.958616257E0
6.411405221E0,3.868316650E1,-2.212098694E1,2.976867914E0
6.428071159E0,2.041849327E1,-2.984591675E1,5.994717598E0
6.444737096E0,7.408761978E-1,-3.467578888E1,6.293692112E0
6.461403034E0,-1.353040695E1,-3.671152496E1,2.760178566E0
6.478068971E0,-2.019528198E1,-3.991554642E1,-1.863175631E0
6.494734909E0,-2.493025208E1,-4.506905365E1,-6.504146576E0
6.511400846E0,-3.305414200E1,-4.657907867E1,-8.099331856E0
6.528066784E0,-3.159276390E1,-4.842577362E1,-3.326504230E0
6.544732721E0,-1.429748535E1,-4.982563019E1,6.458304405E0
6.561398659E0,3.893434525E0,-4.662494659E1,8.806816101E0
6.578064596E0,7.960814476E0,-3.933315277E1,1.472146988E0
6.594730534E0,1.647339821E1,-3.185508347E1,-6.115610600E0
6.611396471E0,3.603006744E1,-2.286286926E1,-3.937866688E0
6.628062409E0,4.962445831E1,-9.428647995E0,1.271096611E1
6.644728346E0,5.706906891E1,3.578594923E0,2.306832504E1
6.661394284E0,5.573990631E1,1.446229267E1,1.375599289E1
6.678060221E0,4.726449966E1,2.177038956E1,6.463883877E0
6.694726159E0,2.982568169E1,2.279516220E1,1.439786243E1
6.711392096E0,1.389986610E1,2.103269005E1,2.004521751E1
6.728058034E0,4.541053772E-1,2.098570442E1,1.785537148E1
6.744723971E0,-5.798585415E0,1.890123749E1,1.390149879E1
6.761389909E0,-9.185834885E0,1.374655724E1,9.298342705E0
6.778055846E0,-1.667152596E1,1.262166309E1,6.306884289E0
6.794721784E0,-2.337334824E1,1.461539173E1,5.144199848E0
6.811387721E0,-2.342753029E1,1.647505188E1,6.078367233E0
6.828053659E0,-1.907893372E1,1.817384911E1,7.911935806E0
6.844719596E0,-1.267854309E1,2.121068764E1,7.113468647E0
6.861385534E0,-6.545136452E0,2.430582619E1,4.042311192E0
6.878051471E0,5.447521210E-1,2.563872528E1,5.983285427E0
6.894717409E0,1.034275913E1,2.399805641E1,1.885391617E1
6.911383346E0,2.196254349E1,1.741007042E1,2.720722198E1
6.928049284E0,3.427948380E1,5.397522926E0,2.266945267E1
6.944715221E0,4.039757156E1,-4.033544064E0,1.191886902E1
6.961381159E0,4.414630508E1,-1.317188835E1,3.779294491E0
6.978047096E0,4.052840042E1,-1.774610901E1,7.881954193E0
6.994713034E0,2.724919319E1,-2.431643486E1,1.009936428E1
7.011378971E0,8.052167892E0,-2.734574318E1,7.919885159E0
7.028044909E0,-6.354597092E0,-2.956398582E1,5.327170372E0
7.044710846E0,-1.448187256E1,-3.320298767E1,2.778924942E0
7.061376784E0,-2.178430557E1,-3.827758789E1,-2.941327095E0
7.078042721E0,-3.375592804E1,-4.139756775E1,-9.863348961E0
7.094708659E0,-4.023719788E1,-4.559178162E1,-9.625232697E0
7.111374596E0,-2.985879898E1,-4.930802536E1,1.832919836E0
7.128040534E0,-9.976146698E0,-4.990008926E1,1.046804619E1
7.144706471E0,1.768376350E0,-4.403089142E1,5.589952946E0
7.161372409E0,8.066325188E0,-3.513582230E1,-4.807816505E0
7.178038346E0,2.016249466E1,-2.546463585E1,-7.560716629E0
7.194704284E0,3.925711823E1,-1.571553993E1,4.549897194E0
7.211370221E0,5.294834137E1,-4.845118523E-1,2.412081909E1
7.228036159E0,6.044194794E1,1.116167927E1,2.260717583E1
7.244702096E0,5.494929123E1,1.726111031E1,6.480550289E0
7.261368034E0,4.311837006E1,1.854761505E1,-3.065014362E0
7.278033971E0,2.296539307E1,1.630405426E1,4.027708530E0
7.294699909E0,8.691231728E0,1.210260296E1,1.365788651E1
7.311365846E0,-2.640528202E0,1.203855419E1,1.110040283E1
7.328031784E0,-1.044483757E1,1.165102386E1,4.430537224E0
7.344697721E0,-1.447583199E1,1.070440769E1,6.400222182E-1
7.361363659E0,-1.622695923E1,9.196698189E0,-2.079442143E-1
7.378029596E0,-1.915977478E1,9.592060089E0,-3.567130566E-1
7.394695534E0,-2.328024673E1,1.105198383E1,5.274325609E-2
7.411361471E0,-2.503147125E1,1.263559341E1,5.670073032E-1
7.428027409E0,-2.193892670E1,1.475676155E1,2.089524508E0
7.444693346E0,-1.540950012E1,1.808757401E1,7.301058292E0
7.461359284E0,-8.136599541E0,1.996579742E1,1.292218113E1
7.478025221E0,-1.682456493E0,2.052732849E1,1.261170197E1
7.494691159E0,8.557784081E0,2.210731506E1,1.116314983E1
7.511357096E0,2.073151207E1,2.214802551E1,1.597141266E1
7.528023034E0,3.284769821E1,1.610672379E1,2.118354797E1
7.544688971E0,4.346363449E1,4.928153038E0,1.943807220E1
7.561354909E0,4.499799728E1,-3.462087393E0,1.360371113E1
7.578020846E0,4.915259552E1,-1.402411270E1,4.146614075E0
7.594686784E0,3.878017044E1,-2.014544106E1,-5.087719440E0
7.611352721E0,1.689451981E1,-2.464651108E1,1.230491996E-1
7.628018659E0,-2.824848175E0,-3.002587700E1,1.138506508E1
7.644684596E0,-1.320333862E1,-3.742774200E1,1.406731319E1
7.661350534E0,-2.259127045E1,-4.468739319E1,4.488978863E0
7.678016471E0,-3.467772293E1,-4.663604736E1,-9.189732552E0
7.694682409E0,-4.035896683E1,-4.765653610E1,-1.521018028E1
7.711348346E0,-3.301726532E1,-4.806968689E1,-5.619986534E0
7.728014284E0,-1.372570801E1,-4.758095169E1,6.380424976E0
7.744680221E0,-5.834856033E-1,-4.224937439E1,4.996593475E0
7.761346159E0,4.179464340E0,-3.518574524E1,-6.095494270E0
7.778012096E0,1.157247066E1,-3.054761124E1,-9.088317871E0
7.794678034E0,2.447397423E1,-2.501869774E1,5.089594364E0
7.811343971E0,3.974093246E1,-1.339181519E1,2.035668945E1
7.828009909E0,5.410402679E1,-9.916067123E-2,1.738988304E1
7.844675846E0,5.695225906E1,6.450907707E0,3.564073086E0
7.861341784E0,4.858416748E1,1.449395561E1,4.113740444E0
7.878007721E0,4.007421875E1,1.829367447E1,2.087589264E1
7.894673659E0,2.797159958E1,1.782615662E1,2.515268135E1
7.911339596E0,8.847993851E0,1.787389374E1,1.344403076E1
7.928005534E0,-3.994312763E0,1.637824821E1,3.877182722E0
7.944671471E0,-1.062512398E1,1.351124954E1,2.342909098E0
7.961337409E0,-1.599765968E1,1.169122982E1,4.166914940E0
7.978003346E0,-2.071222496E1,1.201299381E1,4.926320553E0
7.994669284E0,-2.382324982E1,1.383387089E1,5.764218330E0
8.011335221E0,-2.272700500E1,1.583712196E1,6.336169720E0
8.028001159E0,-1.662797165E1,1.782665443E1,7.096570492E0
8.044667096E0,-9.832272530E0,2.044545555E1,1.101658440E1
8.061333034E0,-4.214871407E0,2.300854492E1,1.441008091E1
8.077998971E0,2.841659546E0,2.462064552E1,1.634834290E1
8.094664909E0,1.362265015E1,2.321035385E1,2.132328415E1
8.111330846E0,2.499804878E1,1.546336365E1,2.134879112E1
8.127996784E0,3.415893936E1,4.121286869E0,1.662691116E1
8.144662721E0,4.458722687E1,-3.695024967E0,1.138106251E1
8.161328659E0,5.246331787E1,-1.258368111E1,3.008000374E0
8.177994596E0,4.497948074E1,-1.837333679E1,2.670835972E0
8.194660534E0,2.100531769E1,-2.316058731E1,6.291161060E0
8.211326471E0,3.449201584E-1,-2.436109924E1,8.931788445E0
8.227992409E0,-5.970604897E0,-2.901469612E1,4.420138836E0
8.244658346E0,-1.060021973E1,-3.496199036E1,-3.961214066E0
8.261324284E0,-2.254830742E1,-3.757716370E1,-1.100183296E1
8.277990221E0,-3.454014969E1,-3.991836548E1,-1.234885597E1
8.294656159E0,-3.749517822E1,-4.203428268E1,-8.548882484E0
8.311322096E0,-2.757210922E1,-4.248497009E1,-1.334875464E0
8.327988034E0,-1.001013947E1,-4.260763168E1,4.133424282E0
8.344653971E0,-2.595629215E0,-3.839986420E1,1.538314342E0
8.361319909E0,-3.674245358E0,-3.375990677E1,-6.341774940E0
8.377985846E0,4.443998337E-1,-3.153216743E1,-8.565421104E0
8.394651784E0,1.131104851E1,-2.828152084E1,5.668125153E-1
8.411317721E0,2.893898582E1,-2.110938454E1,1.111567020E1
8.427983659E0,4.704463196E1,-9.985213280E0,1.571073246E1
8.444649596E0,5.805467987E1,-2.845227003E0,1.118012905E1
8.461315534E0,6.063798904E1,7.963203430E0,1.421712589E1
8.477981471E0,5.675666428E1,1.346286583E1,2.422627449E1
8.494647409E0,3.643808365E1,1.272513771E1,2.426458359E1
8.511313346E0,8.189832687E0,1.256635857E1,1.452333736E1
8.527979284E0,-7.167534828E0,1.229131985E1,7.143109798E0
8.544645221E0,-1.157658005E1,1.093926525E1,5.451507092E0
8.561311159E0,-1.300044918E1,8.975051880E0,6.249261856E0
8.577977096E0,-1.396442795E1,7.746884823E0,6.182350159E0
8.594643034E0,-1.492110634E1,7.703091621E0,4.977539062E0
8.611308971E0,-1.693638802E1,8.947722435E0,2.452220201E0
8.627974909E0,-1.631699753E1,1.197458076E1,3.103725195E0
8.644640846E0,-1.121161079E1,1.582616234E1,5.006470203E0
8.661306784E0,-5.345618725E0,1.882210541E1,4.937325001E0
8.677972721E0,-3.930508137E0,1.907114029E1,2.315252304E0
8.694638659E0,-8.806562424E0,1.836392212E1,1.584435940E0
8.711304596E0,-1.158858871E1,1.821039391E1,8.101914406E0
8.727970534E0,-6.106706619E0,1.915265083E1,1.884764290E1
8.744636471E0,8.126475334E0,1.641475487E1,2.289925957E1
8.761302409E0,2.339524651E1,1.080252075E1,1.904173851E1
8.777968346E0,3.157944107E1,1.463227749E0,1.630177879E1
8.794634284E0,3.957446289E1,-9.284393311E0,1.824064827E1
8.811300221E0,4.342504120E1,-1.572746181E1,1.570969486E1
8.827966159E0,3.657821274E1,-2.004642868E1,6.750141621E0
8.844632096E0,2.041416931E1,-2.409633064E1,1.325375438E0
8.861298034E0,3.866412163E0,-2.689165878E1,5.504993916E0
8.877963971E0,-7.217109203E0,-3.095713615E1,8.449390411E0
8.894629909E0,-1.687638283E1,-3.504269028E1,5.935537338E0
8.911295846E0,-2.545728111E1,-3.807877350E1,3.075790405E-2
8.927961784E0,-3.228074265E1,-3.984037018E1,-6.495067596E0
8.944627721E0,-3.583002853E1,-3.989385986E1,-7.063649178E0
8.961293659E0,-2.995756531E1,-3.933505249E1,-4.016806126E0
8.977959596E0,-2.253659821E1,-3.746580505E1,-4.136448383E0
8.994625534E0,-1.214051914E1,-3.498216248E1,-6.023484707E0
9.011291471E0,3.169093132E0,-3.188088799E1,-4.964685440E0
9.027957409E0,1.595054436E1,-2.507045364E1,-6.111383438E-2
9.044623346E0,3.303780746E1,-1.465209484E1,1.031664944E1
9.061289284E0,4.802939987E1,-7.064324379E0,1.689232063E1
9.077955221E0,5.349667358E1,4.067228317E0,1.536210823E1
9.094621159E0,5.333369446E1,1.219739819E1,1.280346394E1
9.111287096E0,3.921471405E1,1.028275490E1,1.909357643E1
9.127953034E0,9.430919647E0,1.090083313E1,2.338539505E1
9.144618971E0,-1.541677284E1,1.310943127E1,1.499779510E1
9.161284909E0,-2.274386787E1,1.438665009E1,3.601710320E0
9.177950846E0,-1.998981667E1,1.748461723E1,-3.120027542E0
9.194616784E0,-1.456541252E1,1.884219360E1,-2.016376019E0
9.211282721E0,-8.399579048E0,1.930624199E1,3.641878843E0
9.227948659E0,-2.948753357E0,1.952537155E1,7.224935532E0
9.244614596E0,2.007967949E0,1.822306252E1,7.359552383E0
9.261280534E0,4.424388885E0,1.431424618E1,7.565004349E0
9.277946471E0,2.835086823E0,8.095945358E0,8.368427277E0
9.294612409E0,3.759893417E0,-2.183130503E0,7.742881298E0
9.311278346E0,5.185660362E0,-1.630602455E1,2.909382343E0
9.327944284E0,8.847094536E0,-2.139708519E1,-2.469267845E0
9.344610221E0,2.643093872E1,-2.859960365E1,4.935662746E-1
9.361276159E0,2.297471428E1,-3.302333450E1,8.796710968E0
9.377942096E0,5.924029350E0,-2.967886734E1,1.080896664E1
9.394608034E0,-6.860648155E0,-2.382651520E1,2.631301165E0
9.411273971E0,-1.190630054E1,-1.538395882E1,-6.241939068E0
9.427939909E0,-1.017726231E1,-1.152179050E1,-1.311415291E1
9.444605846E0,-1.332301617E1,-6.515234947E0,-1.672613144E1
9.461271784E0,-1.827408028E1,2.664894581E0,-1.121737385E1
9.477937721E0,-1.351409149E1,1.047559452E1,5.472464561E0
9.494603659E0,1.937816620E1,8.067878723E0,1.849785614E1
9.511269596E0,4.971285629E1,7.275410652E0,1.098256874E1
9.527935534E0,3.451896286E1,1.412119961E1,9.717945457E-1
9.544601471E0,5.155177116E0,1.053160477E1,-2.211558342E0
9.561267409E0,-6.965728760E0,5.965875626E0,1.954184532E0
9.577933346E0,1.449621201E0,1.746710300E0,6.806853294E0
9.594599284E0,1.388027477E1,-7.001157761E0,5.808124542E0
9.611265221E0,1.622920799E1,-1.190707588E1,-1.996208429E0
9.627931159E0,1.594449997E1,-1.145427132E1,-8.459316254E0
9.644597096E0,1.252522373E1,-1.157466698E1,-2.681217194E-1
9.661263034E0,2.115044594E0,-1.427200890E1,1.341441345E1
9.677928971E0,-7.872277737E0,-1.553855419E1,1.974146843E1
9.694594909E0,-1.215130043E1,-1.682672119E1,1.321315193E1
9.711260846E0,-1.417227554E1,-1.749153900E1,2.608989716E0
9.727926784E0,-1.898849106E1,-1.791348076E1,-3.465600014E0
9.744592721E0,-2.265060234E1,-1.903255653E1,-2.454228878E0
9.761258659E0,-2.046488571E1,-1.969943237E1,4.659235477E-1
9.777924596E0,-1.659713745E1,-1.966415024E1,-1.438212633E0
9.794590534E0,-1.252029037E1,-1.930471230E1,-8.716206551E0
9.811256471E0,-9.346435547E0,-1.815811348E1,-1.509335232E1
9.827922409E0,-5.129880905E0,-1.449728394E1,-1.033333111E1
9.844588346E0,3.801720619E0,-1.342739773E1,2.468455791E0
9.861254284E0,1.501160812E1,-1.094764423E1,1.451484776E1
9.877920221E0,2.215414429E1,-6.520576477E0,1.795813179E1
9.894586159E0,2.309592056E1,-1.735302925E0,9.794752121E0
9.911252096E0,1.841181755E1,2.567994356E0,9.767506123E-1
9.927918034E0,1.116911125E1,7.135926723E0,-7.109379768E-2
9.944583971E0,9.766551971E0,9.598356247E0,1.818628073E0
9.961249909E0,1.067657185E1,1.119734764E1,1.038536787E0
9.977915846E0,1.140413666E1,1.323667336E1,-3.951220512E-1
9.994581784E0,1.507248878E1,1.437539959E1,1.769803762E0
1.001124772E1,2.005167198E1,1.470566559E1,6.019097805E0
1.002791366E1,2.011619759E1,1.338255692E1,7.262640953E0
1.004457960E1,1.153066540E1,1.159864140E1,8.205806732E0
1.006124553E1,-8.120331764E-1,9.446606636E0,8.198895454E0
1.007791147E1,-8.401232719E0,8.561549187E0,8.438726425E0
1.009457741E1,-8.057826042E0,7.587055206E0,9.193082809E0
1.011124335E1,-6.928812981E0,6.043073654E0,9.029893875E0
1.012790928E1,-7.048443317E0,4.233739853E0,1.066805267E1
1.014457522E1,-6.676319599E0,3.003820419E0,1.221711445E1
1.016124116E1,-7.136183262E0,2.284537077E0,1.184424019E1
1.017790710E1,-5.148747444E0,2.294852972E0,8.637058258E0
1.019457303E1,-1.565180779E0,1.788743496E0,8.523086548E0
1.021123897E1,4.700451851E0,2.730233431E0,1.497263145E1
1.022790491E1,1.303721333E1,3.624100685E0,2.330218506E1
1.024457085E1,2.036712646E1,4.400133133E0,2.396134758E1
1.026123678E1,3.000437355E1,2.576685667E0,2.470168495E1
1.027790272E1,4.310821152E1,-5.406115055E0,3.086172295E1
1.029456866E1,5.130046082E1,-7.774311066E0,3.071708679E1
1.031123460E1,4.673464966E1,-1.333037949E1,1.978991318E1
1.032790053E1,2.767681122E1,-1.946817017E1,7.773801804E0
1.034456647E1,8.134565353E0,-1.954844856E1,3.798921585E0
1.036123241E1,-2.698709965E0,-1.866511726E1,4.567653656E0
1.037789835E1,-1.177194500E1,-1.871895981E1,2.788975716E0
1.039456428E1,-1.346196365E1,-2.220812988E1,-3.110290527E0
1.041123022E1,-1.480165863E1,-2.500628662E1,-1.388937950E1
1.042789616E1,-2.026922226E1,-2.382172775E1,-2.672033119E1
1.044456210E1,-1.653590012E1,-2.554025650E1,-2.813701820E1
1.046122803E1,-5.892319679E0,-3.479843903E1,-2.300794029E1
1.047789397E1,-1.509576321E0,-4.176528168E1,-2.007926178E1
1.049455991E1,1.712246895E0,-4.371726227E1,-1.831204605E1
1.051122585E1,4.310803890E0,-4.754102325E1,-2.621589661E1
1.052789178E1,8.282623291E0,-5.206307983E1,-3.343283463E1
1.054455772E1,2.725255775E1,-6.141878510E1,-2.063783646E1
1.056122366E1,5.859758759E1,-6.700962830E1,5.401017189E0
1.057788960E1,6.232327652E1,-5.795281601E1,2.788749886E1
1.059455553E1,5.048971939E1,-4.964207458E1,4.034790802E1
1.061122147E1,4.982656860E1,-4.194454956E1,4.367034149E1
1.062788741E1,5.227877808E1,-2.748132896E1,4.424185562E1
1.064455335E1,5.159181976E1,-1.088891983E1,4.411918259E1
1.066121928E1,5.270255280E1,4.063862801E0,3.459909821E1
1.067788522E1,4.545117950E1,2.042455673E1,3.221905899E1
1.069455116E1,4.081269836E1,3.309515381E1,3.906885910E1
1.071121710E1,4.360265350E1,4.101411438E1,3.485618591E1
1.072788303E1,4.208450699E1,4.086162567E1,2.736032104E1
1.074454897E1,3.480291748E1,3.540522003E1,2.506413651E1
1.076121491E1,3.314706421E1,2.548333931E1,2.995659065E1
1.077788085E1,3.768096924E1,1.041429520E1,3.470335007E1
1.079454678E1,3.943339539E1,-3.991504192E0,2.326317978E1
1.081121272E1,4.052243423E1,-1.148109055E1,1.318495369E1
1.082787866E1,3.922812653E1,-1.456644058E1,1.454329777E1
1.084454460E1,3.714210129E1,-1.802711105E1,1.773651123E1
1.086121053E1,3.986064148E1,-1.963125038E1,1.836373138E1
1.087787647E1,4.164315796E1,-2.018383598E1,1.872415161E1
1.089454241E1,4.104858017E1,-2.823850250E1,2.864080429E1
1.091120835E1,4.055490494E1,-3.961936951E1,4.182444763E1
1.092787428E1,5.418326569E1,-4.796524048E1,4.006319046E1
1.094454022E1,6.090661240E1,-5.140943909E1,2.161889076E1
1.096120616E1,4.785216522E1,-4.996464539E1,1.126972675E1
1.097787210E1,2.618416786E1,-4.848454285E1,2.088541794E1
1.099453803E1,1.347502327E1,-4.875723267E1,2.950069809E1
1.101120397E1,4.050496101E0,-4.992827606E1,2.416349030E1
1.102786991E1,-5.000575542E0,-4.504708099E1,9.798910141E0
1.104453585E1,-1.342978573E1,-3.470655060E1,-1.389322996E0
1.106120178E1,-2.364422989E1,-2.682776642E1,4.751511812E-1
1.107786772E1,-2.973683167E1,-2.482994843E1,5.212059975E0
1.109453366E1,-3.136886597E1,-2.312825966E1,1.141884232E1
1.111119960E1,-2.638264465E1,-2.238685226E1,1.206102848E1
1.112786553E1,-2.356098175E1,-2.175431824E1,6.201985359E0
1.114453147E1,-2.138054276E1,-2.137970161E1,1.121589422E0
1.116119741E1,-1.976954651E1,-2.288426208E1,9.733099937E-1
1.117786335E1,-1.783931732E1,-2.415777206E1,8.728971481E-1
1.119452928E1,-1.197111607E1,-2.409681702E1,2.321907759E0
1.121119522E1,-2.247056484E0,-2.062657928E1,5.793489933E0
1.122786116E1,1.237902164E1,-1.581272125E1,-6.675204039E-1
1.124452710E1,2.935840225E1,-9.521723747E0,-1.251415253E1
1.126119303E1,4.057260132E1,-4.338550568E-2,-1.587341499E1
1.127785897E1,4.115581512E1,5.466238022E0,-1.161439991E1
1.129452491E1,3.291237640E1,1.162775421E1,8.546077013E-1
1.131119085E1,2.614158440E1,1.712347794E1,7.422011852E0
1.132785678E1,1.420539188E1,1.964533997E1,3.062935591E0
1.134452272E1,-3.262457371E0,2.387937164E1,2.301447153E0
1.136118866E1,-1.917929077E1,3.045459747E1,1.357805729E1
1.137785460E1,-2.333580017E1,3.321477890E1,2.773716545E1
1.139452053E1,-1.136943340E1,2.841777420E1,3.341855240E1
1.141118647E1,5.393084526E0,2.388081741E1,2.346716309E1
1.142785241E1,5.260626793E0,2.324578857E1,4.783423424E0
1.144451835E1,-2.741667271E0,2.222350693E1,-7.967773914E0
1.146118428E1,-5.792162895E0,2.099629593E1,-4.641347408E0
1.147785022E1,4.903621674E-1,1.969805717E1,1.194286823E1
1.149451616E1,1.722645760E1,1.622028160E1,2.410921097E1
1.151118210E1,3.315476227E1,1.050261116E1,2.051640701E1
1.152784803E1,4.062929153E1,3.490813494E0,1.026898956E1
1.154451397E1,4.181362152E1,-4.147242546E0,9.014425278E0
1.156117991E1,4.167601395E1,-1.126360130E1,1.301862526E1
1.157784585E1,4.197719955E1,-1.892607689E1,1.388222218E1
1.159451178E1,3.758914185E1,-2.645974922E1,8.866322517E0
1.161117772E1,2.566607666E1,-3.219572449E1,2.120031118E0
1.162784366E1,1.235324478E1,-3.517312622E1,-5.781324506E-1
1.164450960E1,-5.168798923E0,-3.377014160E1,-2.434917688E0
1.166117553E1,-2.052525520E1,-2.870034409E1,-3.114979506E0
1.167784147E1,-2.571399689E1,-2.853661156E1,-4.356706142E0
1.169450741E1,-2.348947525E1,-3.128308105E1,-2.511546373E0
1.171117335E1,-1.722070312E1,-3.563550949E1,-5.284879804E-1
1.172783928E1,-1.898619080E1,-3.690124512E1,-2.508837700E0
1.174450522E1,-2.221787262E1,-3.589736557E1,-7.120966434E0
1.176117116E1,-2.086122131E1,-3.383020782E1,-7.061541557E0
1.177783710E1,-1.249795246E1,-3.189459610E1,-2.224108696E0
1.179450303E1,-2.357724190E0,-2.866899490E1,1.393406391E-1
1.181116897E1,8.172611237E0,-2.398954391E1,-1.925534725E0
1.182783491E1,2.079812622E1,-1.884823799E1,2.908889651E-1
1.184450085E1,3.550855255E1,-1.338433647E1,5.961381912E0
1.186116678E1,4.976990509E1,-6.720747948E0,1.689319420E1
1.187783272E1,5.489579010E1,3.085183382E0,2.525165558E1
1.189449866E1,4.761219788E1,1.038006878E1,2.399755669E1
1.191116460E1,3.257624435E1,1.606854630E1,1.938129234E1
1.192783053E1,1.580654144E1,1.918238449E1,1.585746098E1
1.194449647E1,-1.231983185E0,2.163818169E1,1.335820770E1
1.196116241E1,-8.806902885E0,2.219181824E1,1.447076511E1
1.197782835E1,-1.036061668E1,1.922592926E1,1.664463043E1
1.199449428E1,-1.007816029E1,1.397913170E1,1.838665199E1
1.201116022E1,-1.102335072E1,9.775894165E0,1.538569641E1
1.202782616E1,-1.659012032E1,8.538549423E0,6.774720192E0
1.204449210E1,-2.005185318E1,9.587675095E0,-1.274673641E-2
1.206115803E1,-1.980768585E1,1.094545746E1,-1.596932888E0
1.207782397E1,-1.602704430E1,1.159494495E1,3.352416515E0
1.209448991E1,-1.069618416E1,1.193880653E1,7.995734692E0
1.211115585E1,-6.197611809E0,1.181162453E1,6.920777321E0
1.212782178E1,-3.220240116E0,1.289827442E1,3.507666588E0
1.214448772E1,5.436183929E0,1.237165451E1,5.612699032E0
1.216115366E1,2.545241547E1,7.875614643E0,1.485273743E1
1.217781960E1,4.773357773E1,1.605784893E0,1.777941704E1
1.219448553E1,5.504491425E1,-1.023368073E1,1.196016216E1
1.221115147E1,3.625566483E1,-1.743401337E1,6.959439278E0
1.222781741E1,1.359030628E1,-2.053661346E1,2.155596972E0
1.224448335E1,6.434860229E-1,-1.889749146E1,-2.178844929E0
1.226114928E1,-6.571866989E0,-1.769473076E1,-6.687186241E0
1.227781522E1,-1.323409081E1,-1.913251877E1,-8.031416893E0
1.229448116E1,-1.650534439E1,-2.680276871E1,-3.418009520E0
1.231114710E1,-2.617177582E1,-3.250296402E1,-1.243171573E0
1.232781303E1,-3.870653915E1,-3.629640198E1,-6.477909565E0
1.234447897E1,-4.016413498E1,-3.960337830E1,-8.988193512E0
1.236114491E1,-2.685246658E1,-4.209281540E1,-1.763194919E0
1.237781085E1,-1.234560871E1,-4.074525833E1,4.655144215E0
1.239447678E1,-7.839857578E0,-3.636865234E1,2.355169296E0
1.241114272E1,-2.759649754E0,-3.386866379E1,-1.920703650E0
1.242780866E1,7.321313858E0,-3.054266739E1,3.421114206E0
1.244447460E1,2.150950623E1,-2.539435768E1,1.613191032E1
1.246114053E1,3.511012650E1,-1.865766716E1,2.148938942E1
1.247780647E1,4.142165756E1,-1.174509144E1,1.885337830E1
1.249447241E1,4.948269272E1,-1.039007664E0,1.918703651E1
1.251113835E1,4.621036530E1,6.840433121E0,2.613346100E1
1.252780428E1,2.899953270E1,9.697173119E0,2.847857857E1
1.254447022E1,1.133747864E1,1.325177765E1,1.788125801E1
1.256113616E1,1.220455170E0,1.478117847E1,5.415535927E0
1.257780210E1,-3.455417633E0,1.684763527E1,1.013811827E0
1.259446803E1,-5.307320595E0,1.863494873E1,5.832349062E-1
1.261113397E1,-7.127615452E0,1.944545364E1,-4.446642101E-2
1.262779991E1,-6.295102119E0,1.917732620E1,-2.643418908E-1
1.264446585E1,-3.637023926E0,1.779448891E1,-3.116270602E-1
1.266113178E1,-2.066000938E0,1.511633205E1,-8.990817666E-1
1.267779772E1,8.505487442E-1,1.304051399E1,-1.726069689E0
1.269446366E1,4.811677933E0,1.202621174E1,4.208325148E-1
1.271112960E1,6.611512184E0,1.139968586E1,5.161680222E0
1.272779553E1,4.730818748E0,8.821902275E0,7.417409420E0
1.274446147E1,1.873153687E0,5.963490486E0,6.624231339E0
1.276112741E1,5.294971466E-1,3.559280396E0,4.274901390E0
1.277779335E1,4.552192688E-1,8.362735510E-1,2.923830032E0
1.279445928E1,1.646339417E0,-5.152337074E0,3.585120201E0
1.281112522E1,-8.144378662E-4,-1.563656425E1,4.304533482E0
1.282779116E1,3.078219414E0,-2.570396233E1,8.145445824E0
1.284445710E1,1.612797737E1,-3.237977982E1,1.674542618E1
1.286112303E1,1.412986946E1,-3.566072083E1,1.977875710E1
1.287778897E1,-2.914214134E0,-3.728749466E1,1.394479656E1
1.289445491E1,-1.780929756E1,-3.652104187E1,5.746294498E0
1.291112085E1,-2.670758629E1,-3.361818695E1,-7.394616604E0
1.292778678E1,-2.933119965E1,-2.854207230E1,-1.729125786E1
1.294445272E1,-2.198006439E1,-2.418474960E1,-1.726236153E1
1.296111866E1,-1.498137665E1,-2.353070831E1,-1.664763069E1
1.297778460E1,-9.912736893E0,-1.777405739E1,-7.909680843E0
1.299445053E1,5.687502861E0,-1.294546032E1,8.495293617E0
1.301111647E1,2.074810028E1,-8.293073654E0,2.201634979E1
1.302778241E1,2.828475571E1,-1.875693560E0,2.123618698E1
1.304444835E1,2.628690529E1,3.928412676E0,1.288051128E1
1.306111428E1,1.749551964E1,5.989260197E0,3.169974566E0
1.307778022E1,6.363412857E0,6.838017464E0,-3.023406506E0
1.309444616E1,4.611129761E-1,7.299154282E0,-3.623325348E0
1.311111210E1,-2.415241718E0,7.125977516E0,3.441232443E-1
1.312777803E1,-5.118844986E0,6.182061672E0,3.801484346E0
1.314444397E1,-7.445740700E0,4.856386662E0,3.490653276E0
1.316110991E1,-7.671212196E0,2.366881847E0,4.199956656E-1
1.317777585E1,-7.853439331E0,-2.934842110E0,-4.305323124E0
1.319444178E1,-6.167432785E0,-6.339792252E0,-7.575094223E0
1.321110772E1,2.426697731E0,-5.783366203E0,-5.766864300E0
1.322777366E1,8.831797600E0,-4.168056488E0,-1.658117175E0
1.324443960E1,6.607237816E0,-2.237485409E0,1.874274492E0
1.326110553E1,5.182418823E-1,-1.887905598E0,1.683425426E0
1.327777147E1,-3.256350994E0,-3.735217571E0,-4.338881016E0
1.329443741E1,-5.229005814E0,-7.144862652E0,-1.409554863E1
1.331110335E1,-3.929076195E0,-8.998235703E0,-1.699394798E1
1.332776928E1,8.918399811E-1,-9.411066055E0,-7.453839302E0
1.334443522E1,5.312022209E0,-7.910599232E0,4.064738274E0
1.336110116E1,9.057200432E0,-3.616333008E0,7.255943298E0
1.337776710E1,9.900687218E0,-7.673707008E-1,5.789556503E-1
1.339443303E1,7.258145332E0,1.954292536E0,-7.270091057E0
1.341109897E1,4.353003502E0,3.480337620E0,-1.122185707E1
1.342776491E1,2.261875153E0,4.592845917E0,-1.100699234E1
1.344443085E1,2.499677658E0,4.273586750E0,-8.886539459E0
1.346109678E1,3.795265198E0,2.352274418E0,-6.495081902E0
1.347776272E1,3.654076576E0,-1.725278854E0,-5.633856297E0
1.349442866E1,-7.000279427E-1,-5.160970211E0,-6.523555756E0
1.351109460E1,-6.899823189E0,-5.500670433E0,-7.599724770E0
1.352776053E1,-9.163720131E0,-4.924885750E0,-6.915851593E0
1.354442647E1,-5.947160721E0,-4.808508873E0,-5.113059521E0
1.356109241E1,-2.128988743E0,-6.971922874E0,-4.459254265E0
1.357775835E1,-1.033618450E0,-1.128331375E1,-4.637485504E0
1.359442428E1,-5.340843201E0,-1.505725861E1,-5.154303074E0
1.361109022E1,-9.172119141E0,-1.858284760E1,-6.389958382E0
1.362775616E1,-8.303216934E0,-1.996840286E1,-8.536916733E0
1.364442210E1,-2.500492096E0,-1.903115082E1,-7.451544762E0
1.366108803E1,4.843716621E0,-1.791123772E1,-4.781280518E0
1.367775397E1,6.986845970E0,-1.610099792E1,7.390987873E-1
1.369441991E1,6.114966869E0,-8.618261337E0,9.669471741E0
1.371108585E1,1.249541473E1,-1.628358364E0,1.198901176E1
1.372775178E1,2.068902206E1,2.735806942E0,2.229584217E0
1.374441772E1,2.343425751E1,7.891898155E0,-1.064486504E1
1.376108366E1,1.956992531E1,1.058336735E1,-1.667241287E1
1.377774960E1,1.279334164E1,1.006110382E1,-6.724557400E0
1.379441553E1,6.261219025E0,1.110387802E1,9.769004822E0
1.381108147E1,3.658771992E0,1.440477943E1,2.029471970E1
1.382774741E1,2.589106083E0,1.618663025E1,1.730803299E1
1.384441335E1,3.127093315E-1,1.701010513E1,8.097833633E0
1.386107928E1,-1.760139942E0,1.662424850E1,-9.891748428E-3
1.387774522E1,-2.546934605E0,1.520900345E1,-3.699053764E0
1.389441116E1,-3.317482948E0,1.368594074E1,-3.736354351E0
1.391107710E1,-4.302655697E0,1.210424232E1,-3.411080837E0
1.392774303E1,-3.593865871E0,1.077022934E1,-2.844957352E0
1.394440897E1,-1.003654957E0,1.065632534E1,-2.674060583E0
1.396107491E1,3.129741669E0,1.124588299E1,-3.923896313E0
1.397774085E1,7.973875046E0,1.173937130E1,-4.002492905E0
1.399440678E1,1.159010029E1,1.047633648E1,-1.650840282E0
1.401107272E1,1.324601364E1,8.768997192E0,-5.870442390E-1
1.402773866E1,1.676946259E1,8.152599335E0,-1.935244322E0
1.404440460E1,2.256087494E1,7.981822014E0,-1.657549620E0
1.406107053E1,2.704769135E1,4.961245537E0,4.099462986E0
1.407773647E1,2.598659134E1,1.683762074E0,7.555251122E0
1.409440241E1,2.107952118E1,-2.231724739E0,4.435555458E0
1.411106835E1,1.269419575E1,-5.943258762E0,1.141571999E-1
1.412773428E1,2.724466324E0,-7.783464909E0,-1.287501097E0
1.414440022E1,-5.004049301E0,-9.221996307E0,5.609685183E-2
1.416106616E1,-1.147898769E1,-1.134196854E1,-3.586865067E-1
1.417773210E1,-1.700946426E1,-1.408299255E1,-6.959640384E-1
1.419439803E1,-2.050317001E1,-1.674025345E1,3.164786994E-1
1.421106397E1,-2.076979446E1,-2.215874100E1,1.471698046E0
1.422772991E1,-1.868438339E1,-2.750104904E1,4.202908993E0
1.424439585E1,-1.876834106E1,-3.184201241E1,7.717898846E0
1.426106178E1,-1.945436287E1,-3.350364304E1,6.851186752E0
1.427772772E1,-1.707041359E1,-3.252181625E1,1.314556599E0
1.429439366E1,-8.152775764E0,-3.102329445E1,-4.013985634E0
1.431105960E1,1.849825859E0,-2.950317764E1,-4.946181297E0
1.432772553E1,6.702519417E0,-2.713883209E1,2.035791874E0
1.434439147E1,9.863167763E0,-2.404473495E1,1.103342438E1
1.436105741E1,1.757062340E1,-1.930780983E1,1.063302994E1
1.437772335E1,3.631570435E1,-1.327832222E1,6.816851616E0
1.439438928E1,6.147231293E1,-6.075243950E0,3.841466188E0
1.441105522E1,6.763739777E1,-5.333504677E-1,9.073097229E0
1.442772116E1,5.034955597E1,6.501476765E0,1.836564445E1
1.444438710E1,3.119150925E1,1.723570633E1,2.167044640E1
1.446105303E1,1.708187103E1,2.334332657E1,1.394810200E1
1.447771897E1,3.871381760E0,2.729917145E1,4.974695206E0
1.449438491E1,-1.253083897E1,3.284686661E1,3.565720797E0
1.451105085E1,-2.487584305E1,3.906929398E1,8.753771782E0
1.452771678E1,-2.926583862E1,4.045465851E1,1.482905769E1
1.454438272E1,-2.828536224E1,3.521552277E1,1.841939545E1
1.456104866E1,-2.633562660E1,3.080252075E1,1.507781124E1
1.457771460E1,-2.300653076E1,2.904933548E1,9.086911201E0
1.459438053E1,-1.725992393E1,2.908604240E1,7.925195217E0
1.461104647E1,-4.591925621E0,3.410236359E1,1.293768501E1
1.462771241E1,2.042932510E1,4.157013702E1,1.158553600E1
1.464437835E1,5.219921875E1,4.080446243E1,6.284976006E0
1.466104428E1,6.872995758E1,2.450050926E1,1.082979488E1
1.467771022E1,6.517372894E1,5.683004379E0,2.081073380E1
1.469437616E1,6.497494507E1,-1.286194992E1,1.866708946E1
1.471104210E1,5.988823318E1,-2.390507889E1,4.495066643E0
1.472770803E1,4.917180634E1,-3.354284286E1,-7.583445549E0
1.474437397E1,3.115305710E1,-3.836376190E1,-1.703647733E0
1.476103991E1,8.903383255E0,-4.214375305E1,4.026518822E0
1.477770585E1,-1.309416771E1,-4.199852753E1,3.531488895E0
1.479437178E1,-2.749265862E1,-3.974875641E1,-2.624140978E0
1.481103772E1,-2.877062035E1,-4.214200211E1,-8.287424088E0
1.482770366E1,-1.988700485E1,-4.995081711E1,-5.884344101E0
1.484436960E1,-1.269202614E1,-5.638177872E1,4.116200924E0
1.486103553E1,-1.470091820E1,-5.678775787E1,8.331167221E0
1.487770147E1,-1.430281448E1,-5.469210434E1,4.072823048E0
1.489436741E1,-4.992488861E0,-5.294052124E1,2.470452070E0
1.491103335E1,1.337066364E1,-4.979065704E1,4.565826416E0
1.492769928E1,3.510441971E1,-4.455910873E1,5.957071304E0
1.494436522E1,5.106473160E1,-3.334548187E1,1.631266785E1
1.496103116E1,6.173548126E1,-2.030790901E1,2.486359215E1
1.497769710E1,6.918315887E1,-3.345740795E0,1.736128044E1
1.499436303E1,6.962564087E1,1.274007320E1,4.988518238E0
1.501102897E1,5.732015228E1,1.947705078E1,1.091886806E1
1.502769491E1,2.952723885E1,2.542020035E1,2.801085663E1
1.504436085E1,1.460647964E1,3.148962975E1,2.780565071E1
1.506102678E1,1.674483299E0,3.679615784E1,1.925774193E1
1.507769272E1,-8.945860863E0,3.937073135E1,1.500694847E1
1.509435866E1,-1.324549484E1,3.591147614E1,1.782260513E1
1.511102460E1,-1.762973022E1,3.012712097E1,1.701666451E1
1.512769053E1,-2.350540543E1,2.734844589E1,1.285037422E1
1.514435647E1,-2.288509369E1,2.417230988E1,7.172715187E0
1.516102241E1,-2.010129547E1,2.329452515E1,2.682057381E0
1.517768835E1,-1.474071121E1,2.388178635E1,2.862560511E0
1.519435428E1,-7.081121445E0,2.686676025E1,7.436826706E0
1.521102022E1,8.388588905E0,3.100621414E1,1.229414940E1
1.522768616E1,3.457107544E1,3.026608467E1,1.720859528E1
1.524435210E1,5.753636932E1,2.372660446E1,2.278577232E1
1.526101803E1,6.945581055E1,5.538843155E0,2.114682770E1
1.527768397E1,6.349549866E1,-1.210302258E1,1.249279213E1
1.529434991E1,4.823834991E1,-2.198059082E1,-2.203693390E-1
1.531101585E1,3.396641541E1,-2.732208061E1,-4.508276939E0
1.532768178E1,1.752009964E1,-3.261019135E1,7.940342903E0
1.534434772E1,-8.591094017E-1,-3.698551941E1,1.842271423E1
1.536101366E1,-1.141396236E1,-4.426192474E1,1.511710453E1
1.537767960E1,-1.972619247E1,-5.166590118E1,5.001593590E0
1.539434553E1,-2.766284752E1,-5.854291153E1,-2.413071156E0
1.541101147E1,-3.253409195E1,-6.244311142E1,-7.136059761E0
1.542767741E1,-2.449421692E1,-6.354413605E1,-3.123469353E0
1.544434335E1,-4.230548859E0,-6.233286667E1,7.470463276E0
1.546100928E1,1.280764866E1,-5.292248917E1,1.153533363E1
1.547767522E1,2.277387619E1,-4.056691360E1,4.403152943E0
1.549434116E1,3.559165573E1,-2.892559814E1,-1.004078761E-1
1.551100710E1,5.542970276E1,-1.584765339E1,1.145627689E1
1.552767303E1,6.855661774E1,2.050294399E0,2.022212601E1
1.554433897E1,6.875453949E1,1.566515160E1,1.154131889E1
1.556100491E1,5.644970322E1,2.234886360E1,4.892482758E0
1.557767085E1,3.361608887E1,2.195588684E1,1.034001923E1
1.559433678E1,1.668840027E1,2.020643806E1,1.806841278E1
1.561100272E1,5.105641365E0,2.004987335E1,1.714115334E1
1.562766866E1,-4.590861797E0,2.065040016E1,1.292607117E1
1.564433460E1,-1.046957397E1,1.856896210E1,9.320056915E0
1.566100053E1,-1.395243073E1,1.457952976E1,7.569696903E0
1.567766647E1,-1.887923813E1,1.262595844E1,6.790557384E0
1.569433241E1,-2.384542465E1,1.376856899E1,6.560616970E0
1.571099835E1,-2.612019730E1,1.523176289E1,4.514870167E0
1.572766428E1,-2.371639061E1,1.590884113E1,4.046417236E0
1.574433022E1,-1.481101608E1,1.516145897E1,5.149058819E0
1.576099616E1,-7.622462273E0,1.418009090E1,5.308371544E0
1.577766210E1,-3.042075634E0,1.361693096E1,3.761323929E0
1.579432803E1,1.947651863E0,1.349442768E1,6.328045368E0
1.581099397E1,7.967978477E0,1.480192375E1,1.453193188E1
1.582765991E1,2.138617325E1,1.414358234E1,1.863829613E1
1.584432585E1,3.942896652E1,9.016855240E0,1.486099529E1
1.586099178E1,5.212574005E1,3.267930031E0,7.174061298E0
1.587765772E1,5.281603241E1,-5.724278450E0,5.512928486E0
1.589432366E1,3.801375580E1,-1.531202793E1,8.207549095E0
1.591098960E1,1.610374260E1,-2.046141434E1,9.552445412E0
1.592765553E1,9.139981270E-1,-2.391609573E1,9.621829033E0
1.594432147E1,-6.584313393E0,-2.853350067E1,5.350178719E0
1.596098741E1,-1.178517532E1,-3.351267624E1,1.376334786E0
1.597765335E1,-2.006654167E1,-3.827370834E1,-1.370690942E0
1.599431928E1,-3.055626678E1,-4.228672791E1,-4.682902336E0
1.601098522E1,-3.635037994E1,-4.508106613E1,-7.133068562E0
1.602765116E1,-3.118237305E1,-4.752890015E1,-5.695436954E0
1.604431710E1,-1.734762955E1,-4.846955872E1,-2.686034441E0
1.606098303E1,-8.226551056E0,-4.448868561E1,-4.665205956E0
1.607764897E1,-2.334278584E0,-4.072161102E1,-8.379781723E0
1.609431491E1,1.071056557E1,-3.591646576E1,-5.732242584E0
1.611098085E1,3.593319702E1,-3.326248169E1,2.522617340E0
1.612764678E1,6.047269058E1,-2.649526978E1,1.495123196E1
1.614431272E1,6.879529572E1,-1.378327751E1,2.126898193E1
1.616097866E1,6.688377380E1,2.410084486E0,2.168618584E1
1.617764460E1,4.988188171E1,1.056512737E1,2.057113647E1
1.619431053E1,1.999988174E1,1.551557159E1,1.459947586E1
1.621097647E1,-3.955251694E0,1.664045525E1,6.125137806E0
1.622764241E1,-1.379129410E1,1.712510681E1,3.660764694E0
1.624430835E1,-1.548355293E1,1.733709335E1,6.096165657E0
1.626097428E1,-1.606126595E1,1.731520653E1,1.045296764E1
1.627764022E1,-1.355153275E1,1.657766914E1,1.408494282E1
1.629430616E1,-8.082592964E0,1.666788101E1,1.631994057E1
1.631097210E1,-4.464015484E0,1.612921333E1,1.562216949E1
1.632763803E1,-2.900137424E0,1.517612839E1,1.383760071E1
1.634430397E1,-6.946935654E-1,1.350440693E1,1.106529140E1
1.636096991E1,5.923061371E-1,1.176289368E1,6.095605850E0
1.637763585E1,3.483390808E-2,9.218347549E0,-4.975676537E-2
1.639430178E1,-3.125434399E0,5.026032448E0,-2.688525915E0
1.641096772E1,-5.747532845E0,-1.800957918E-1,9.005740285E-1
1.642763366E1,-6.692971230E0,-6.991910934E0,5.728186131E0
1.644429960E1,-8.189702988E0,-1.507919979E1,1.036116123E0
1.646096553E1,-3.228136539E0,-2.263231087E1,-5.916632175E0
1.647763147E1,1.108918381E1,-2.830338097E1,-9.921201706E0
1.649429741E1,1.700624466E1,-2.781176567E1,-3.456754208E0
1.651096335E1,1.340009594E1,-2.384933662E1,1.054465485E1
1.652762928E1,1.383520126E0,-1.407994461E1,1.264704514E1
1.654429522E1,-9.336190224E0,-6.936769009E0,1.303077221E0
1.656096116E1,-1.241575146E1,-1.948778987E0,-8.975110054E0
1.657762710E1,-1.023965168E1,-2.142133474E0,-1.213042259E1
1.659429303E1,-9.414972305E0,-2.553226948E0,-9.687357903E0
1.661095897E1,-4.982690334E0,1.398020983E0,1.292267561E0
1.662762491E1,1.067707443E1,1.515206575E0,1.372570896E1
1.664429085E1,3.069117165E1,2.549031258E0,1.903612518E1
1.666095678E1,3.670969391E1,4.214847088E0,1.552412987E1
1.667762272E1,1.894483566E1,1.624527812E0,5.048727036E0
1.669428866E1,-5.007540226E0,1.781465054E0,-9.533296585E0
1.671095460E1,-1.012198830E1,4.236546516E0,-1.490430832E1
1.672762053E1,-3.004972935E0,5.995158195E0,-1.045734787E1
1.674428647E1,5.944085121E0,3.068878412E0,1.234257698E0
1.676095241E1,8.964272499E0,-9.891996384E-1,1.348392010E1
1.677761835E1,4.525449753E0,-4.952377319E0,1.797582436E1
1.679428428E1,2.800285339E0,-8.341938972E0,1.637878990E1
1.681095022E1,6.212689400E0,-1.152912712E1,1.513688660E1
1.682761616E1,9.404026985E0,-1.490799618E1,1.453681946E1
1.684428210E1,1.206831169E1,-1.668905067E1,1.093223667E1
1.686094803E1,1.244782162E1,-1.613557053E1,6.283641815E0
1.687761397E1,9.814048767E0,-1.763847733E1,3.021501780E0
1.689427991E1,3.916220665E0,-1.999990082E1,2.053977966E0
1.691094585E1,-2.880678177E0,-2.278816605E1,-4.733184576E-1
1.692761178E1,-1.151804638E1,-2.416588974E1,-6.758310795E0
1.694427772E1,-1.660112000E1,-2.408930969E1,-1.338772488E1
1.696094366E1,-1.776727295E1,-2.338433647E1,-1.616852760E1
1.697760960E1,-1.619204712E1,-2.080195045E1,-1.384832668E1
1.699427553E1,-1.056071281E1,-1.771591377E1,-5.708098412E0
1.701094147E1,-1.745823383E0,-1.351049805E1,6.488947868E0
1.702760741E1,1.233310986E1,-6.996813774E0,1.805105400E1
1.704427335E1,3.053528214E1,1.964957714E-1,2.332315063E1
1.706093928E1,4.328702164E1,4.799881935E0,1.729088402E1
1.707760522E1,3.127230835E1,8.867668152E0,8.743936539E0
1.709427116E1,9.690715790E0,7.198543549E0,4.784947395E0
1.711093710E1,-3.371045589E0,6.502549648E0,4.440391541E0
1.712760303E1,-5.836144447E0,6.365506172E0,4.833522797E0
1.714426897E1,-5.483100414E0,5.694397449E0,3.896899223E0
1.716093491E1,-6.474978447E0,5.495450497E0,2.965507746E0
1.717760085E1,-9.306411743E0,5.644463539E0,2.963890553E0
1.719426678E1,-1.192086983E1,5.681126595E0,5.738404751E0
1.721093272E1,-1.333552742E1,5.773394585E0,9.709465027E0
1.722759866E1,-1.299275875E1,5.416318893E0,1.343965912E1
1.724426460E1,-9.211690903E0,4.043611526E0,1.533396816E1
1.726093053E1,-3.789582253E0,2.061202049E0,1.341688824E1
1.727759647E1,-2.485582352E0,1.405509949E0,9.917735100E0
1.729426241E1,-1.546383381E0,2.567633629E0,8.336313248E0
1.731092835E1,8.208638191E0,2.832373381E0,1.274774837E1
1.732759428E1,2.313906288E1,4.777411461E0,1.514380074E1
1.734426022E1,3.492262268E1,6.519176483E0,1.106462765E1
1.736092616E1,3.654463959E1,5.314799786E0,8.896452904E0
1.737759210E1,3.280924988E1,1.801863670E0,1.204380322E1
1.739425803E1,2.525430107E1,-4.244232178E0,1.442627048E1
1.741092397E1,1.351649380E1,-8.709939957E0,1.536038494E1
1.742758991E1,3.645682335E0,-1.135958767E1,1.727590179E1
1.744425585E1,-1.263639450E0,-1.268141937E1,1.769927597E1
1.746092178E1,-4.529497147E0,-1.350412560E1,1.466001606E1
1.747758772E1,-6.682463646E0,-1.349361229E1,1.054910660E1
1.749425366E1,-8.106451988E0,-1.384726810E1,6.521210194E0
1.751091960E1,-9.716486931E0,-1.388829899E1,2.193968296E0
1.752758553E1,-1.098235226E1,-1.383110142E1,9.086197615E-2
1.754425147E1,-1.172905922E1,-1.403561306E1,1.877315044E-1
1.756091741E1,-1.155120277E1,-1.377465439E1,5.633947253E-1
1.757758335E1,-1.013111687E1,-1.326774788E1,-1.506500959E0
1.759424928E1,-9.873263359E0,-1.177272415E1,-5.236629963E0
1.761091522E1,-1.103811264E1,-1.055933189E1,-7.170144081E0
1.762758116E1,-1.223155117E1,-9.077095032E0,-5.860556126E0
1.764424710E1,-1.090763664E1,-9.099836349E0,-3.771785736E0
1.766091303E1,-7.137032509E0,-8.953000069E0,-2.971483469E0
1.767757897E1,-2.576482296E0,-8.168599129E0,-4.027889252E0
1.769424491E1,3.691058159E0,-7.540986061E0,-4.273809433E0
1.771091085E1,1.113830853E1,-7.377590179E0,-3.668732882E0
1.772757678E1,1.640715408E1,-5.725384712E0,-1.041928530E0
1.774424272E1,1.911485291E1,-1.300738811E0,1.524428606E0
1.776090866E1,2.635976028E1,3.585389137E0,9.390154839E0
1.777757460E1,3.099414825E1,6.024978161E0,1.708340073E1
1.779424053E1,2.622117233E1,9.191978455E0,1.641210938E1
1.781090647E1,1.812658310E1,1.201198196E1,1.106261921E1
1.782757241E1,1.093929768E1,1.414292812E1,7.604700565E0
1.784423835E1,5.479773521E0,1.520400047E1,7.961326599E0
1.786090428E1,1.148548126E-1,1.606967545E1,8.605823517E0
1.787757022E1,-3.907452106E0,1.706953812E1,9.551624298E0
1.789423616E1,-5.753414154E0,1.681159401E1,9.691339493E0
1.791090210E1,-4.432563782E0,1.540345669E1,6.093461990E0
1.792756803E1,-5.231644154E0,1.418000984E1,-7.073104382E-2
1.794423397E1,-8.970131874E0,1.298841190E1,-2.012722731E0
1.796089991E1,-1.087519836E1,1.249018383E1,2.429387331E0
1.797756585E1,-7.256693840E0,1.257726192E1,7.415313244E0
1.799423178E1,-1.216262817E0,1.368306446E1,7.842027664E0
1.801089772E1,6.112712860E0,1.522939968E1,5.104527950E0
1.802756366E1,1.402791882E1,1.523227215E1,5.753915310E0
1.804422960E1,2.116835403E1,1.450412273E1,1.165588284E1
1.806089553E1,3.128567505E1,1.315641022E1,1.860427856E1
1.807756147E1,4.044041443E1,1.123608589E1,2.322555923E1
1.809422741E1,4.786451340E1,3.163875818E0,2.555875587E1
1.811089335E1,4.545806122E1,-1.006475258E1,2.219164085E1
1.812755928E1,2.768372345E1,-1.848170471E1,1.591184235E1
1.814422522E1,6.558022499E0,-2.212899780E1,1.345454407E1
1.816089116E1,-9.089773178E0,-2.478941727E1,1.661775398E1
1.817755710E1,-1.885941887E1,-2.848051643E1,2.005515289E1
1.819422303E1,-2.322326088E1,-3.392898178E1,1.788394356E1
1.821088897E1,-2.213623047E1,-3.908652115E1,1.078634262E1
1.822755491E1,-2.067216110E1,-4.518082047E1,4.595247269E0
1.824422085E1,-2.458863258E1,-4.790724945E1,1.187098026E0
1.826088678E1,-2.821904755E1,-4.840871429E1,8.859161139E-1
1.827755272E1,-2.423324013E1,-4.568669128E1,3.544024229E0
1.829421866E1,-1.297667599E1,-4.149523926E1,3.802992582E0
1.831088460E1,-2.835674286E-1,-3.548288345E1,5.306780338E-1
1.832755053E1,1.155526161E1,-2.710276222E1,-2.726963043E0
1.834421647E1,2.440801620E1,-1.717986298E1,-1.087130070E0
1.836088241E1,4.177930832E1,-7.908146858E0,2.250676394E0
1.837754835E1,6.133802414E1,-2.671772003E0,9.160583496E0
1.839421428E1,6.974861908E1,4.713302135E0,1.141136456E1
1.841088022E1,6.240850449E1,1.001284218E1,3.972303152E0
1.842754616E1,3.713412476E1,1.237172890E1,1.707105756E0
1.844421210E1,1.563102055E1,1.444077873E1,8.945197105E0
1.846087803E1,-3.071678162E0,1.905857468E1,1.470423317E1
1.847754397E1,-1.637688828E1,2.412613678E1,1.752996445E1
1.849420991E1,-2.146198273E1,2.860521317E1,1.813538933E1
1.851087585E1,-1.734537697E1,2.863340378E1,1.761216736E1
1.852754178E1,-7.419341564E0,2.449742508E1,1.637708664E1
1.854420772E1,-8.267753601E0,2.356085587E1,6.378677845E0
1.856087366E1,-1.643899345E1,2.508600616E1,-1.901175976E0
1.857753960E1,-1.993632889E1,2.747791290E1,8.619154692E-1
1.859420553E1,-1.108338070E1,2.924110222E1,1.047298336E1
1.861087147E1,8.617864609E0,2.927759171E1,1.760553360E1
1.862753741E1,2.913599777E1,2.737155914E1,2.264330292E1
1.864420335E1,4.216675949E1,2.139519119E1,2.723610878E1
1.866086928E1,4.808636856E1,1.002427006E1,2.849242973E1
1.867753522E1,5.603444672E1,-8.386586189E0,2.730959892E1
1.869420116E1,5.371792984E1,-2.619688988E1,1.901306534E1
1.871086710E1,4.008637238E1,-3.713863754E1,7.517137527E0
1.872753303E1,2.030922699E1,-4.034926224E1,5.295069218E0
1.874419897E1,1.021448135E0,-4.035534286E1,1.062614918E1
1.876086491E1,-1.635665512E1,-3.807624817E1,1.045681190E1
1.877753085E1,-3.089179230E1,-3.424369049E1,1.049574018E-1
1.879419678E1,-3.905839157E1,-3.111425209E1,-4.367410183E0
1.881086272E1,-3.535005188E1,-3.631965637E1,5.622361660E0
1.882752866E1,-3.088859940E1,-4.227116776E1,1.406794834E1
1.884419460E1,-3.057609177E1,-4.618940735E1,9.300824165E0
1.886086053E1,-2.599512100E1,-4.653197479E1,3.491999149E0
1.887752647E1,-1.411411095E1,-4.409943771E1,6.136679649E0
1.889419241E1,-2.879468441E0,-3.982518005E1,6.944784164E0
1.891085835E1,1.240211678E1,-3.555939484E1,5.069174290E0
1.892752428E1,3.582583618E1,-3.068486977E1,8.187993050E0
1.894419022E1,6.259005356E1,-2.258255386E1,1.281150150E1
1.896085616E1,6.984333801E1,-8.579597473E0,5.417634487E0
1.897752210E1,6.918544006E1,5.054353714E0,1.093586445E1
1.899418803E1,4.214136505E1,9.763805389E0,2.918174362E1
1.901085397E1,7.238819122E0,1.557755756E1,2.433364105E1
1.902751991E1,-5.476026535E0,1.965488434E1,1.112329483E1
1.904418585E1,-1.002595520E1,2.276716995E1,7.435595036E0
1.906085178E1,-1.162101936E1,2.205878067E1,1.803218079E1
1.907751772E1,-1.215370846E1,2.004765511E1,3.236333084E1
1.909418366E1,-1.679005432E1,1.897265434E1,3.202238464E1
1.911084960E1,-2.492207146E1,2.063225555E1,1.595670605E1
1.912751553E1,-2.531250381E1,2.269637299E1,-4.672161043E-1
1.914418147E1,-2.162359238E1,2.325182533E1,-8.114872575E-1
1.916084741E1,-1.882550049E1,2.284196854E1,9.997961998E0
1.917751335E1,-1.324771404E1,2.254895020E1,1.686314011E1
1.919417928E1,-3.175191879E0,2.375553131E1,1.140752602E1
1.921084522E1,1.443621540E1,2.595569038E1,6.816546917E0
1.922751116E1,3.642426300E1,2.439719963E1,1.570613003E1
1.924417710E1,5.771510315E1,1.136356449E1,2.492577744E1
1.926084303E1,6.040225983E1,-7.774701118E0,2.465063477E1
1.927750897E1,4.504320526E1,-2.325976562E1,1.607607079E1
1.929417491E1,2.866667747E1,-3.202080154E1,7.919395447E0
1.931084085E1,9.702961922E0,-3.589241791E1,5.723880768E0
1.932750678E1,-8.391016006E0,-3.570522690E1,-1.151007414E-1
1.934417272E1,-2.081808472E1,-3.356731415E1,-8.636510849E0
1.936083866E1,-2.619247055E1,-3.692100906E1,-9.407045364E0
1.937750460E1,-2.920468903E1,-4.523298264E1,-3.477895737E0
1.939417053E1,-3.751094055E1,-5.103762054E1,-4.090302587E-1
1.941083647E1,-4.025019455E1,-5.617844772E1,-2.202728271E0
1.942750241E1,-2.453940773E1,-5.934038544E1,-1.667072773E-1
1.944416835E1,-1.638052464E0,-5.549180603E1,3.787753820E0
1.946083428E1,1.136660480E1,-4.702133942E1,2.337588787E0
1.947750022E1,2.477708435E1,-3.956563950E1,7.834022045E0
1.949416616E1,4.318671799E1,-2.761953163E1,2.605682564E1
1.951083210E1,6.695619965E1,-1.230351257E1,2.469775963E1
1.952749803E1,7.013842773E1,4.945690155E0,4.200236797E0
1.954416397E1,6.270541763E1,1.392463970E1,4.799798965E0
1.956082991E1,3.252483368E1,1.710542679E1,2.661420441E1
1.957749585E1,1.567429352E1,2.098841286E1,2.975099945E1
1.959416178E1,8.865196228E0,2.330645180E1,1.310102844E1
1.961082772E1,2.449379921E0,2.352608299E1,3.279709101E0
1.962749366E1,-1.928473949E0,2.009787560E1,5.332560539E0
1.964415960E1,-5.525051594E0,1.589366341E1,8.178647995E0
1.966082553E1,-1.033442307E1,1.337972069E1,4.420804024E0
1.967749147E1,-1.512373447E1,1.447498798E1,-2.296398878E0
1.969415741E1,-1.536666965E1,1.620001602E1,-6.952066422E0
1.971082335E1,-1.157855415E1,1.639155579E1,-7.282172680E0
1.972748928E1,-9.456995964E0,1.670511818E1,-3.789317369E0
1.974415522E1,-6.954494476E0,1.713860893E1,1.579892278E0
1.976082116E1,1.641855240E-1,1.776132965E1,7.756861210E0
1.977748710E1,9.330201149E0,1.871339607E1,8.909473419E0
1.979415303E1,1.894615936E1,1.788897514E1,1.131241417E1
1.981081897E1,2.930388641E1,1.199585915E1,1.727522469E1
1.982748491E1,3.609987259E1,1.317878246E0,2.423811340E1
1.984415085E1,3.700984955E1,-9.583388329E0,2.552457428E1
1.986081678E1,3.691178131E1,-1.804869652E1,2.065899849E1
1.987748272E1,3.072237968E1,-2.332199097E1,1.296143150E1
1.989414866E1,1.751175499E1,-2.562878990E1,9.198565483E0
1.991081460E1,1.957672596E0,-2.560583115E1,8.863314629E0
1.992748053E1,-9.314765930E0,-2.764221954E1,7.369140148E0
1.994414647E1,-1.625365448E1,-3.310088348E1,5.114598274E0
1.996081241E1,-2.338945389E1,-3.694675064E1,1.473361015E0
1.997747835E1,-3.195808601E1,-3.868408966E1,-5.047605515E0
1.999414428E1,-3.964711380E1,-4.261709976E1,-9.153166771E0
2.001081022E1,-3.882455063E1,-4.644028854E1,-4.243828773E0
2.002747616E1,-2.607363892E1,-4.811236191E1,6.573372841E0
2.004414210E1,-1.256381416E1,-4.517572403E1,9.014042854E0
2.006080803E1,-5.259338379E0,-3.962263489E1,1.639943123E0
2.007747397E1,5.541877747E0,-3.570195007E1,-1.946030378E0
2.009413991E1,1.862037468E1,-3.014496613E1,1.377105594E0
2.011080585E1,3.691482544E1,-2.319704819E1,1.464508724E1
2.012747178E1,5.504070282E1,-1.551383018E1,2.991533470E1
2.014413772E1,6.658319092E1,-3.077468872E0,2.469507408E1
2.016080366E1,6.092307663E1,7.611558914E0,1.349903202E1
2.017746960E1,4.362245560E1,1.048572540E1,1.461713123E1
2.019413553E1,2.148999023E1,1.171792698E1,1.605990028E1
2.021080147E1,4.538681030E0,1.345408535E1,1.162345314E1
2.022746741E1,-1.276461601E0,1.335402489E1,5.287979126E0
2.024413335E1,-2.363043785E0,1.246682930E1,1.093777776E0
2.026079928E1,-4.652406693E0,1.082840061E1,-1.346772194E0
2.027746522E1,-8.800488472E0,9.902311325E0,-2.091793299E0
2.029413116E1,-1.264786339E1,1.057562542E1,-1.978310108E0
2.031079710E1,-1.466804600E1,1.185615444E1,-7.642471790E-1
2.032746303E1,-1.476472855E1,1.293139553E1,-7.751656324E-2
2.034412897E1,-1.211609840E1,1.404944992E1,4.494246095E-2
2.036079491E1,-5.562154770E0,1.396132469E1,4.045512974E-1
2.037746085E1,1.327345848E0,1.319914722E1,2.359276056E0
2.039412678E1,3.899839401E0,1.159984398E1,4.519110680E0
2.041079272E1,2.014231682E0,9.545620918E0,5.110961437E0
2.042745866E1,-1.648339272E0,7.946915627E0,3.479283094E0
2.044412460E1,-4.252354622E0,6.181992054E0,1.344371557E0
2.046079053E1,-5.162888050E0,4.853878975E0,4.124845028E0
2.047745647E1,-6.018959045E0,4.159431934E0,9.934453964E0
2.049412241E1,-4.885951996E0,2.385411739E0,1.296661472E1
2.051078835E1,2.232723236E-1,-4.498806953E0,1.839898491E1
2.052745428E1,2.371411133E1,-1.179671955E1,2.831425285E1
2.054412022E1,4.876171112E1,-1.762645912E1,3.230237198E1
2.056078616E1,4.675638580E1,-2.467614174E1,2.484717941E1
2.057745210E1,2.854203224E1,-2.584186554E1,1.038960361E1
2.059411803E1,1.302665424E1,-2.312539673E1,-1.214141130E0
2.061078397E1,1.255064011E0,-2.224597168E1,-4.783741474E0
2.062744991E1,-1.034232521E1,-2.265719604E1,-2.794277906E0
2.064411585E1,-1.872216415E1,-2.285164452E1,1.709099859E-1
2.066078178E1,-2.279846573E1,-2.390090179E1,-9.909086823E-1
2.067744772E1,-2.599910736E1,-2.523922348E1,-7.229689121E0
2.069411366E1,-2.648118591E1,-2.540724373E1,-1.420740414E1
2.071077960E1,-2.563367844E1,-2.430881119E1,-1.959784508E1
2.072744553E1,-2.406420517E1,-2.378553581E1,-1.972594833E1
2.074411147E1,-2.155348587E1,-2.292305565E1,-1.413575840E1
2.076077741E1,-1.544744110E1,-2.214031982E1,-4.895822048E0
2.077744335E1,-3.201049328E0,-1.883663368E1,5.551589489E0
2.079410928E1,1.521252346E1,-1.396158504E1,1.013972282E1
2.081077522E1,3.343471527E1,-1.270891953E1,7.752040386E0
2.082744116E1,4.364220810E1,-6.007788658E0,7.407443523E0
2.084410710E1,4.107696915E1,8.264452219E-2,1.364886761E1
2.086077303E1,3.017813301E1,3.480530739E0,2.142834473E1
2.087743897E1,1.161083317E1,7.650987148E0,2.007653427E1
2.089410491E1,-6.698105812E0,1.066151047E1,1.114542103E1
2.091077085E1,-1.280748081E1,1.085942554E1,3.469614267E0
2.092743678E1,-1.160868073E1,1.261214161E1,-7.878231406E-1
2.094410272E1,-1.007430840E1,1.328917027E1,-3.716420174E0
2.096076866E1,-9.645371437E0,1.236396122E1,-4.279288769E0
2.097743460E1,-1.062951279E1,1.166134834E1,-3.350805998E0
2.099410053E1,-1.111529827E1,1.030738544E1,-1.200848699E0
2.101076647E1,-1.015795803E1,9.184184074E0,2.446707249E0
2.102743241E1,-8.902843475E0,6.727772713E0,5.947323322E0
2.104409835E1,-7.267935753E0,3.014125586E0,8.650965691E0
2.106076428E1,-3.123342037E0,-4.244053841E0,9.982651711E0
2.107743022E1,1.208782196E0,-1.472830582E1,7.662049294E0
2.109409616E1,9.945396423E0,-2.302498817E1,2.146837950E0
2.111076210E1,1.990766907E1,-1.972210693E1,3.202702999E0
2.112742803E1,2.750429916E1,-1.876166916E1,9.458128929E0
2.114409397E1,1.922003174E1,-1.540645790E1,9.093242645E0
2.116075991E1,4.089846611E0,-1.352959919E1,3.824356318E0
2.117742585E1,-7.567885399E0,-1.177432632E1,-4.092710495E0
2.119409178E1,-1.462127209E1,-9.524727821E0,-1.039722252E1
2.121075772E1,-1.667295265E1,-9.606513023E0,-1.279337406E1
2.122742366E1,-1.557438660E1,-1.196784782E1,-1.195887375E1
2.124408960E1,-1.322916698E1,-1.304524803E1,-6.561764240E0
2.126075553E1,-6.995699883E0,-1.361899662E1,2.654600620E0
2.127742147E1,5.818774223E0,-1.243174362E1,1.411305141E1
2.129408741E1,2.013654709E1,-1.074975204E1,2.143356514E1
2.131075335E1,2.756059647E1,-8.660934448E0,1.627046585E1
2.132741928E1,2.376546097E1,-5.304235458E0,4.964751244E0
2.134408522E1,1.067225170E1,-1.723152518E0,-5.555544853E0
2.136075116E1,-2.671718597E-1,4.879921675E-1,-1.065917492E1
2.137741710E1,-3.714621067E0,2.982616425E0,-1.121094704E1
2.139408303E1,-3.160267830E0,4.781584740E0,-8.811148643E0
2.141074897E1,-3.252362728E0,5.612195492E0,-5.349222183E0
2.142741491E1,-4.099791527E0,5.941123962E0,-2.270296574E0
2.144408085E1,-5.142063141E0,5.951565266E0,1.371419430E-1
2.146074678E1,-5.987745285E0,5.973392487E0,1.243391037E0
2.147741272E1,-6.388396263E0,5.742273331E0,1.116803765E0
2.149407866E1,-6.000773430E0,5.118081093E0,1.762667894E-1
2.151074460E1,-5.095343113E0,4.160819054E0,7.704782486E-2
2.152741053E1,-4.421977997E0,2.888605595E0,2.979813814E-1
2.154407647E1,-3.122719288E0,3.311653733E-1,9.785246849E-2
2.156074241E1,-1.940678120E0,-3.722890615E0,1.513192415E0
2.157740835E1,2.187907219E0,-9.935776711E0,4.300402641E0
2.159407428E1,1.243494225E1,-1.472704697E1,5.237216949E0
2.161074022E1,2.104987335E1,-1.377650928E1,3.525421381E0
2.162740616E1,2.294102669E1,-1.260134888E1,2.334880114E0
2.164407210E1,1.863875961E1,-1.306830883E1,3.629700899E0
2.166073803E1,9.570022583E0,-1.265535927E1,7.353057384E0
2.167740397E1,1.264699936E0,-1.069865894E1,8.560346603E0
2.169406991E1,-3.411001205E0,-8.765836716E0,6.809481621E0
2.171073585E1,-6.302883148E0,-7.424750805E0,2.247813940E0
2.172740178E1,-8.236710548E0,-5.841164589E0,-3.130962610E0
2.174406772E1,-9.267293930E0,-4.268440247E0,-6.339974880E0
2.176073366E1,-1.061229229E1,-3.211560249E0,-6.826892853E0
2.177739960E1,-1.159724808E1,-2.441303015E0,-5.358930588E0
2.179406553E1,-1.210690117E1,-1.640531182E0,-3.946546555E0
2.181073147E1,-1.253723812E1,-9.433264732E-1,-2.713269949E0
2.182739741E1,-1.179224205E1,-5.555823445E-1,-2.602473497E0
2.184406335E1,-1.023760796E1,-9.651845694E-1,-2.683172703E0
2.186072928E1,-9.296725273E0,-1.435055256E0,-2.368667364E0
2.187739522E1,-7.749351978E0,-1.915533781E0,-2.590191841E0
2.189406116E1,-5.837337494E0,-2.005017757E0,-2.667229176E0
2.191072710E1,-2.896490574E0,-1.498456001E0,-2.746871233E0
2.192739303E1,1.262989998E0,-1.095758915E0,-2.265059710E0
2.194405897E1,4.938189507E0,-9.587781429E-1,-1.319043398E0
2.196072491E1,8.729469299E0,-2.178294659E0,-1.198577881E-1
2.197739085E1,1.219062328E1,-4.875062943E0,1.804499626E-1
2.199405678E1,1.247826576E1,-5.790912628E0,1.385032654E0
2.201072272E1,9.797426224E0,-5.001309872E0,6.936344624E0
2.202738866E1,6.525401592E0,-3.580636024E0,1.381602097E1
2.204405460E1,4.545407295E0,-3.966896057E0,1.795692825E1
2.206072053E1,2.540800095E0,-3.170693874E0,1.743364525E1
2.207738647E1,2.484383345E0,-1.960063219E0,9.952663422E0
2.209405241E1,3.106638193E0,-7.604250908E-1,1.124863625E0
2.211071835E1,4.318410873E0,9.522438049E-4,-5.776323318E0
2.212738428E1,4.543516159E0,4.045808315E-1,-9.156611443E0
2.214405022E1,3.799366236E0,1.655046940E-1,-8.976984024E0
2.216071616E1,2.760934591E0,-5.350315571E-1,-6.642729759E0
2.217738210E1,1.760526419E0,-1.176936269E0,-3.870504379E0
2.219404803E1,1.108688593E0,-1.420625091E0,-3.185966015E0
2.221071397E1,8.202753067E-1,-1.584823489E0,-4.540318966E0
2.222737991E1,1.764299870E-1,-1.563593507E0,-5.772327423E0
2.224404585E1,-2.834225893E-1,-1.605026007E0,-6.212172508E0
2.226071178E1,-8.210514784E-1,-1.920661092E0,-5.570431709E0
2.227737772E1,-7.746839523E-1,-2.274903297E0,-4.568611622E0
2.229404366E1,-1.126295090E0,-2.689471722E0,-5.656260490E0
2.231070960E1,-1.153443336E0,-2.068197727E0,-5.773601532E0
2.232737553E1,-1.748993874E0,-1.597723961E0,-3.515289783E0
2.234404147E1,-1.794261336E0,-1.620102167E0,-2.854941845E0
2.236070741E1,-1.956074595E0,-1.691363573E0,-7.095355988E-1
2.237737335E1,-1.985031486E0,-1.039339304E0,-7.159256935E-1
2.239403928E1,-1.388791442E0,5.032830238E-1,-7.568154335E-1
2.241070522E1,3.796000481E-1,1.740433455E0,2.955961227E-1
2.242737116E1,1.680598259E0,1.454463959E0,2.517230034E0
2.244403710E1,3.050144672E0,9.511613846E-1,5.085664749E0
2.246070303E1,4.633632660E0,1.085448980E0,6.712921143E0
2.247736897E1,5.032537460E0,1.714789391E0,5.825648308E0
2.249403491E1,3.426180840E0,6.865797043E-1,9.760570526E-2
2.251070085E1,6.556761265E-1,1.279612541E0,1.833105087E-1
2.252736678E1,-4.426355362E-1,-2.250735760E-1,-2.342918873E0
2.254403272E1,-8.054039478E-1,-1.720929146E-1,-9.672703743E-1
2.256069866E1,-1.055435538E0,-2.352306843E-1,-9.395413399E-1
2.257736460E1,-1.410912991E0,-4.960122108E-1,-2.301887035E0
2.259403053E1,-2.459384441E0,-3.714210987E-1,-1.695806503E0
2.261069647E1,-3.805149555E0,-8.594322205E-1,-1.378563404E0
2.262736241E1,-4.569596291E0,-1.648953199E0,-3.134339333E0
2.264402835E1,-4.839657784E0,-1.110951424E0,-5.375534058E0
2.266069428E1,-3.597413540E0,-6.806964874E-1,-3.299110889E0
2.267736022E1,-4.417194366E0,-1.488371611E0,1.024295807E0
2.269402616E1,-4.542688370E0,-4.277359486E0,2.369996071E0
2.271069210E1,3.743796349E-1,-2.621041298E0,-2.050685406E0
2.272735803E1,6.318815708E0,3.592567921E0,-1.353530884E0
2.274402397E1,2.262076378E0,3.761654377E0,-6.054205894E-1
2.276068991E1,1.534387589E0,1.826122284E0,1.018416405E0
2.277735585E1,-8.736534119E-1,-2.853515148E-1,-1.275036335E0
2.279402178E1,-7.549202442E-1,-7.778062820E-1,-1.991051674E0
2.281068772E1,1.546323299E-1,-7.822687626E-1,-2.712186337E0
2.282735366E1,2.068188190E-1,8.660969734E-1,-8.466320038E-1
2.284401960E1,3.792265654E-1,3.705467939E0,5.894006729E0
2.286068553E1,-7.596614957E-1,4.330867767E0,5.799351692E0
2.287735147E1,-1.890027761E0,2.622958899E0,4.091163635E0
2.289401741E1,-3.251012564E0,3.758823872E-1,6.285884857E0
2.291068335E1,-3.315055609E0,7.142839432E-1,3.430490494E0
2.292734928E1,-1.682622313E0,4.805779457E-1,1.146188736E0
2.294401522E1,-3.054776192E-1,-6.480810642E-1,-7.066192627E-1
2.296068116E1,-6.273897886E-1,-1.035174847E0,-5.128650665E-1
2.297734710E1,-2.999351501E0,-3.453207016E-1,2.443313599E-1
2.299401303E1,-3.934892893E0,-3.281512260E-1,3.000221252E-1
2.301067897E1,-2.697855473E0,-5.915606022E-1,-6.787109375E-1
2.302734491E1,-9.808565378E-1,-3.957200050E-1,-1.360080719E0
2.304401085E1,-4.614683390E-1,-3.044531345E-1,-1.595424175E0
2.306067678E1,-1.494362712E0,1.366920471E-1,-1.825595379E0
2.307734272E1,-1.896909237E0,-8.435916901E-2,-1.483533382E0
2.309400866E1,-9.251332283E-1,-6.863241196E-1,-3.541631699E-1
2.311067460E1,-6.511056423E-2,-7.237153053E-1,6.598539352E-1
2.312734053E1,9.265303612E-3,-2.389540672E-1,5.295743942E-1
2.314400647E1,-6.940057278E-1,1.632213593E-2,-3.001127243E-1
2.316067241E1,-1.753874421E0,-1.228747368E-1,-5.928659439E-1
2.317733835E1,-1.674585938E0,-1.019832611E0,2.494697571E-1
2.319400428E1,-4.485569000E-1,-1.306359053E0,1.039003372E0
2.321067022E1,6.651642323E-1,-8.929734230E-1,2.016394615E0
2.322733616E1,4.868843555E-1,2.040543556E-1,2.672013283E0
2.324400210E1,-4.207242727E-1,5.891547203E-1,2.407663345E0
2.326066803E1,-8.350923061E-1,2.028274536E-2,1.468806267E0
2.327733397E1,-2.996842861E-1,-5.445241928E-1,6.236906052E-1
2.329399991E1,-1.023488045E-1,-1.565654039E0,5.289230347E-1
2.331066585E1,-7.694244385E-3,-2.425018549E0,-1.067571640E-1
2.332733178E1,-5.589277744E-1,-1.417610407E0,-2.840518951E-1
2.334399772E1,-2.505636215E-2,-5.327363014E-1,4.804229736E-1
