"Time (s)","Acceleration x (m/s^2)","Acceleration y (m/s^2)","Acceleration z (m/s^2)"
7.044688000E-3,-3.716950893E0,6.855137825E0,1.286022568E1
2.371062500E-2,-1.887637973E0,7.044170856E0,1.383141232E1
4.037656300E-2,-5.383850932E-1,7.242475986E0,1.325563908E1
5.704250000E-2,-3.140579760E-1,6.879364967E0,1.239033508E1
7.370843800E-2,-1.169492081E-1,5.673382282E0,1.030947590E1
9.037437500E-2,-8.374879509E-2,4.819443703E0,8.557631493E0
1.070403130E-1,4.624129832E-1,3.881457329E0,7.698308468E0
1.237062500E-1,1.052542806E0,3.133401155E0,7.111169815E0
1.403721880E-1,6.541379094E-1,3.709473372E0,7.402794838E0
1.570381250E-1,8.380861282E-1,3.844667673E0,7.610073090E0
1.737040630E-1,1.845165372E0,3.268296719E0,7.942974567E0
1.903700000E-1,2.551646233E0,2.602194548E0,7.671090126E0
2.070359380E-1,2.823530674E0,2.015654087E0,7.341478825E0
2.237018750E-1,2.170589209E0,1.645962834E0,7.641479015E0
2.403678130E-1,1.950748682E0,1.760519266E0,8.635697365E0
2.570337500E-1,3.268296719E0,1.924128532E0,1.024845982E1
2.736996880E-1,5.149952412E0,1.750349760E0,1.167159081E1
2.903656250E-1,5.929713726E0,1.685145378E0,1.270199966E1
3.070315630E-1,4.475475788E0,2.331207514E0,1.328554916E1
3.236975000E-1,1.778764486E0,3.327818155E0,1.391007614E1
3.403634380E-1,-6.074778438E-1,4.395615101E0,1.476311779E1
3.570293750E-1,-6.281159520E-1,4.178167343E0,1.485883045E1
3.736953130E-1,-1.046859939E-2,3.406482220E0,1.305224895E1
3.903612500E-1,-5.333003402E-1,3.338585854E0,9.856335640E0
4.070271880E-1,-1.468594909E0,3.992723703E0,6.649953365E0
4.236931250E-1,-1.973480463E0,4.393820763E0,4.176373005E0
4.403590630E-1,-2.063809633E0,4.381557465E0,3.362214804E0
4.570250000E-1,-1.360319614E0,3.781557083E0,4.213461399E0
4.736909380E-1,-9.029914737E-1,2.591726065E0,3.509971619E0
4.903568750E-1,-7.268198729E-1,1.598405480E0,3.953242064E0
5.070228130E-1,-1.656730533E0,1.458126307E0,4.267300129E0
5.236887500E-1,-2.828017235E0,1.879861236E0,4.216751575E0
5.403546880E-1,-3.950849295E0,1.825424552E0,5.002793789E0
5.570206250E-1,-4.219742775E0,1.892423630E0,5.439783096E0
5.736865630E-1,-4.505984306E0,1.666002750E0,6.000002861E0
5.903525000E-1,-5.679663658E0,1.894517303E0,9.200701714E0
6.070184380E-1,-6.567400932E0,2.671287298E0,1.394656658E1
6.236843750E-1,-4.412663937E0,5.144568682E-1,1.732463455E1
6.403503130E-1,-7.079764009E-1,-5.015954375E-1,1.854317856E1
6.570162500E-1,3.230310678E0,-2.506780863E0,2.166850471E1
6.736821880E-1,4.046263218E0,-3.803989887E0,2.447319221E1
6.903481250E-1,2.838784933E0,-3.890729666E0,2.618166733E1
7.070140630E-1,2.181057930E0,-3.849453449E0,2.295345116E1
7.236800000E-1,2.891726255E0,-3.734597921E0,1.796501350E1
7.403459380E-1,3.527917862E0,-3.406183004E0,1.419542027E1
7.570118750E-1,3.864707708E0,-2.172981977E0,1.130698395E1
7.736778130E-1,3.835993767E0,-7.944171429E-1,9.742077827E0
7.903437500E-1,3.465106249E0,1.136590727E-2,8.971888542E0
8.070096880E-1,2.769991398E0,-3.918246925E-2,8.041379929E0
8.236756250E-1,2.174477577E0,-4.402793646E-1,6.996613503E0
8.403415630E-1,1.802692771E0,-5.697908998E-1,6.418148518E0
8.570075000E-1,1.534995675E0,-3.888336718E-1,6.058028698E0
8.736734380E-1,1.255035520E0,3.230310604E-2,5.142475128E0
8.903393750E-1,7.977072597E-1,4.950151742E-1,4.651946545E0
9.070053130E-1,4.378865361E-1,1.073779106E0,4.506881237E0
9.236712500E-1,6.810571551E-1,1.345065475E0,4.697709084E0
9.403371880E-1,1.556531072E0,7.247261405E-1,4.838586330E0
9.570031250E-1,2.218445778E0,-2.054836452E-1,4.796113968E0
9.736690630E-1,1.849053741E0,-3.631108403E-1,5.197509766E0
9.903350000E-1,4.899304509E-1,4.707878530E-1,6.589235306E0
1.007000938E0,-1.645065546E-1,1.898405671E0,8.455636978E0
1.023666875E0,3.005983531E-1,2.493321180E0,9.888638496E0
1.040332813E0,5.165506005E-1,2.315654039E0,1.226172066E1
1.056998750E0,9.708877802E-1,1.971984982E0,1.364297771E1
1.073664688E0,1.426720500E0,1.945663929E0,1.438056469E1
1.090330625E0,1.323230863E0,2.219043970E0,1.516660690E1
1.106996563E0,7.043871880E-1,3.074477911E0,1.469043541E1
1.123662500E0,4.773681164E-1,4.003790379E0,1.352871990E1
1.140328438E0,9.218349457E-1,4.352245331E0,1.263350582E1
1.156994375E0,1.174875975E0,6.424130440E0,8.883354187E0
1.173660313E0,2.678465843E0,4.595715046E0,1.036122131E1
1.190326250E0,3.820141315E0,3.572783232E0,7.201199532E0
1.206992188E0,4.686343193E0,6.008976102E-1,5.686244011E0
1.223658125E0,5.845665932E0,-2.179263115E0,5.489733219E0
1.240324063E0,4.940879822E0,-3.873381615E0,6.911967278E0
1.256990000E0,8.733802438E-1,-1.217647672E0,1.003848934E1
1.273655938E0,-2.742473841E0,2.362912416E0,1.074915791E1
1.290321875E0,-2.502593279E0,1.480558991E0,1.019491959E1
1.306987813E0,-1.790429592E0,-2.572284266E-2,8.659625053E0
1.323653750E0,-1.193719387E0,7.860422134E-1,7.390532017E0
1.340319688E0,-1.197906852E0,1.859821439E0,6.045765400E0
1.356985625E0,-2.322533369E0,3.218047380E0,7.930711746E0
1.373651563E0,-5.156233788E0,2.376372099E0,1.146610737E1
1.390317500E0,-6.913762093E0,3.256332397E0,5.971288681E0
1.406983438E0,-3.216850996E0,4.430311203E0,5.750551224E0
1.423649375E0,-1.789532185E0,4.028615952E0,6.228816509E0
1.440315313E0,-2.499901533E0,5.293820858E0,6.911069870E0
1.456981250E0,-3.404986620E0,6.372684956E0,8.452346802E0
1.473647188E0,-4.048655987E0,6.292824268E0,1.051854897E1
1.490313125E0,-3.877868176E0,6.270391941E0,1.065224838E1
1.506979063E0,-3.267698526E0,6.744170666E0,1.073240757E1
1.523645000E0,-3.089433193E0,5.381757259E0,9.298508644E0
1.540310938E0,-3.882055521E0,4.724927425E0,8.283054352E0
1.556976875E0,-4.308875561E0,4.579563618E0,8.328517914E0
1.573642813E0,-3.350250721E0,4.179663181E0,8.678468704E0
1.590308750E0,-1.692921996E0,4.247858524E0,8.831310272E0
1.606974688E0,-2.072782665E-1,4.671986103E0,9.182756424E0
1.623640625E0,-1.725823283E-1,4.636393070E0,9.135198593E0
1.640306563E0,-1.016052365E0,4.483551502E0,9.078967094E0
1.656972500E0,-1.404287815E0,3.961916208E0,9.420842171E0
1.673638438E0,-1.133599758E0,3.622733593E0,9.093324661E0
1.690304375E0,-1.424028635E0,3.993321896E0,7.604988575E0
1.706970313E0,-1.217348576E0,4.031906128E0,6.791728020E0
1.723636250E0,-3.523431420E-1,4.036691666E0,7.342675209E0
1.740302188E0,5.718846321E-1,3.809373617E0,8.214859009E0
1.756968125E0,5.473581553E-1,3.476771355E0,7.840681553E0
1.773634063E0,-8.539385796E-1,2.085644007E0,7.693522930E0
1.790300000E0,-1.721336842E0,1.408475280E0,7.698009491E0
1.806965938E0,-1.902593136E0,1.065703392E0,7.616055489E0
1.823631875E0,-1.198205948E0,1.546959877E0,8.645866394E0
1.840297813E0,-8.395816684E-1,2.659024239E0,8.694320679E0
1.856963750E0,-9.732806087E-1,3.078665495E0,9.050552368E0
1.873629688E0,-2.360818624E0,3.541676521E0,9.376275063E0
1.890295625E0,-2.551945448E0,1.365404367E0,9.232108116E0
1.906961563E0,-1.849352837E0,1.862214208E0,6.375676155E0
1.923627500E0,-8.231309652E-1,3.996013880E0,5.281857014E0
1.940293438E0,-1.278365493E0,5.248955727E0,6.077470303E0
1.956959375E0,-4.002593994E0,7.081259727E0,9.427123070E0
1.973625313E0,-1.975275040E0,5.100002289E0,1.269512081E1
1.990291250E0,-3.370888829E-1,5.012066364E0,1.347757339E1
2.006957188E0,1.510768414E0,6.470192432E0,1.256830120E1
2.023623125E0,2.362314224E0,7.744968891E0,1.041206837E1
2.040289063E0,2.906980515E0,8.785248756E0,7.676773071E0
2.056955000E0,2.526521683E0,9.092127800E0,7.884948730E0
2.073620938E0,1.898704767E0,8.131409645E0,9.389137268E0
2.090286875E0,1.349851131E0,7.842176914E0,1.002831936E1
2.106952813E0,1.115952611E0,7.282855034E0,1.003489971E1
2.123618750E0,1.220937729E0,7.069893837E0,9.179166794E0
2.140284688E0,1.194317579E0,7.144370079E0,7.579565048E0
2.156950625E0,8.608179688E-1,6.974779129E0,7.057929516E0
2.173616563E0,4.103690982E-1,6.135197163E0,7.020840645E0
2.190282500E0,7.806584239E-2,4.583451748E0,5.415854931E0
2.206948438E0,-3.059822023E-1,5.231308460E0,8.503194809E0
2.223614375E0,-3.257229924E-1,5.427519798E0,8.481060982E0
2.240280313E0,-7.917252183E-1,5.659324646E0,6.316752911E0
2.256946250E0,-1.639980793E0,5.365007401E0,5.410770416E0
2.273612188E0,-1.648953915E0,5.184050083E0,5.971288681E0
2.290278125E0,-1.147059321E0,4.907679081E0,6.558427811E0
2.306944063E0,-9.711868763E-1,4.598406792E0,7.012465954E0
2.323610000E0,-8.001000881E-1,5.439185143E0,6.133402824E0
2.340275938E0,-7.555337548E-1,6.332605362E0,5.135296345E0
2.356941875E0,-9.224331379E-1,7.098607540E0,5.030311584E0
2.373607813E0,-7.268198729E-1,7.354041100E0,5.906981945E0
2.390273750E0,-8.392825127E-1,7.939086437E0,6.807281494E0
2.406939688E0,-1.109970570E0,7.515556812E0,7.790731430E0
2.423605625E0,-8.123632669E-1,8.156833649E0,7.619046211E0
2.440271563E0,-5.383850932E-1,8.509475708E0,6.783951283E0
2.456937500E0,-2.416750938E-1,9.641579628E0,5.814558983E0
2.473603438E0,-1.016949639E-1,9.853942871E0,5.668895721E0
2.490269375E0,4.247260094E-2,9.044570923E0,6.823133945E0
2.506935313E0,-5.318048596E-1,7.295716286E0,8.891729355E0
2.523601250E0,-1.299601793E0,6.078966141E0,1.052961636E1
2.540267188E0,-1.889133453E0,5.875874996E0,1.018146038E1
2.556933125E0,-2.348555326E0,6.393023968E0,8.514261246E0
2.573599063E0,-2.813361168E0,6.910172462E0,6.471388817E0
2.590265000E0,-2.933600664E0,7.101000309E0,4.894518852E0
2.606930938E0,-2.770888567E0,6.963113785E0,4.505086899E0
2.623596875E0,-2.314158678E0,6.574579239E0,4.950151920E0
2.640262813E0,-1.863709688E0,6.483353138E0,5.727818966E0
2.656928750E0,-1.503290772E0,6.329315186E0,6.829115868E0
2.673594688E0,-1.300499082E0,6.427719593E0,7.438986301E0
2.690260625E0,-1.187438250E0,6.451648235E0,7.531708241E0
2.706926563E0,-8.856434822E-1,6.075675964E0,7.381857872E0
2.723592500E0,-1.016052365E0,5.401198864E0,6.556632996E0
2.740258438E0,-1.563709617E0,5.319842815E0,5.132604599E0
2.756924375E0,-2.551048040E0,5.311468124E0,4.520340919E0
2.773590313E0,-2.468794823E0,5.852844238E0,4.035794258E0
2.790256250E0,-2.523231506E0,5.769693375E0,4.439583302E0
2.806922188E0,-2.348256350E0,5.614758492E0,4.998905659E0
2.823588125E0,-2.045265198E0,5.410770416E0,4.984548569E0
2.840254063E0,-1.256830096E0,5.354239941E0,4.799404144E0
2.856920000E0,-1.467398524E0,6.507879257E0,4.653441906E0
2.873585938E0,-2.400001049E0,6.536293983E0,2.930609465E0
2.890251875E0,-3.458226919E0,5.467898846E0,4.915455818E0
2.906917813E0,-4.268197536E0,6.244967937E0,7.510771275E0
2.923583750E0,-4.394717693E0,6.735795975E0,8.732905388E0
2.940249688E0,-3.900001764E0,7.083652496E0,1.117597771E1
2.956915625E0,-2.527418852E0,6.923333168E0,1.172124195E1
2.973581563E0,-1.632503271E0,6.973881721E0,1.092921734E1
2.990247500E0,-1.657627940E0,6.673881531E0,9.364610672E0
3.006913438E0,-2.195115566E0,6.756433964E0,9.031708717E0
3.023579375E0,-1.380060434E0,7.059125900E0,9.328120232E0
3.040245313E0,8.557332158E-1,6.878767014E0,1.038485050E1
3.056911250E0,-5.249254704E-1,6.120242119E0,9.816853523E0
3.073577188E0,-3.053839803E-1,5.952445507E0,1.076500988E1
3.090243125E0,-9.750752151E-2,5.356632710E0,1.163270760E1
3.106909063E0,4.049852192E-1,4.939085007E0,1.208704472E1
3.123575000E0,1.039681435E0,4.564907551E0,1.229163074E1
3.140240938E0,1.067797065E0,4.425525665E0,1.288206005E1
3.156906875E0,1.229312643E-1,4.367798805E0,1.340309715E1
3.173572813E0,-9.059824944E-1,4.395615101E0,1.235833073E1
3.190238750E0,-1.159920812E0,4.133601189E0,9.922138214E0
3.206904688E0,-3.828516230E-2,4.206283092E0,8.181658745E0
3.223570625E0,1.562513232E0,4.575376034E0,7.424629688E0
3.240236563E0,2.301895380E0,5.282754421E0,6.909275532E0
3.256902500E0,1.256231904E0,5.052743912E0,5.994319916E0
3.273568438E0,1.609173268E-1,5.465506077E0,8.151748657E0
3.290234375E0,-1.707877219E-1,5.414359570E0,7.826025486E0
3.306900313E0,1.971087605E-1,4.946861744E0,7.022934437E0
3.323566250E0,8.132606149E-1,4.939085007E0,6.806982040E0
3.340232188E0,1.530210137E0,4.878366947E0,6.160321712E0
3.356898125E0,1.686640859E0,4.635495663E0,4.107878208E0
3.373564063E0,9.816554785E-1,4.908277512E0,5.673382282E0
3.390230000E0,6.346961856E-1,5.011467934E0,5.197509766E0
3.406895938E0,1.061815023E-1,5.141876698E0,4.763212681E0
3.423561875E0,-2.530409992E-1,5.237888813E0,4.508078098E0
3.440227813E0,-5.781657696E-1,5.353940487E0,4.715356350E0
3.456893750E0,-7.746763229E-1,5.854638577E0,5.170590401E0
3.473559688E0,-7.375875711E-1,6.214758396E0,5.274080276E0
3.490225625E0,-8.491529226E-1,6.567699909E0,5.456233978E0
3.506891563E0,-1.249950767E0,6.883552551E0,5.742774487E0
3.523557500E0,-1.888236165E0,7.050751209E0,6.090631008E0
3.540223438E0,-2.444567442E0,7.331010342E0,6.889534473E0
3.556889375E0,-2.500798702E0,7.725227833E0,6.964609623E0
3.573555313E0,-1.931905150E0,8.028517723E0,6.569494724E0
3.590221250E0,-1.624128342E0,8.461020470E0,6.783652306E0
3.606887188E0,-1.858624935E0,8.783752441E0,7.598109245E0
3.623553125E0,-2.299502611E0,9.188439369E0,8.483453751E0
3.640219063E0,-2.197807550E0,9.472886086E0,8.772686005E0
3.656885000E0,-1.640878081E0,9.629615784E0,8.468797684E0
3.673550938E0,-9.056833982E-1,9.461220741E0,8.772088051E0
3.690216875E0,-3.457628787E-1,8.452047348E0,1.036510944E1
3.706882813E0,-1.782652885E-1,7.406085014E0,1.226172066E1
3.723548750E0,1.480558962E-1,6.486942291E0,1.244357491E1
3.740214688E0,-2.718844712E-1,6.413661957E0,1.053350449E1
3.756880625E0,-1.255633712E0,7.007380962E0,7.652545929E0
3.773546563E0,-1.893919110E0,7.418946743E0,5.600700378E0
3.790212500E0,-1.775175333E0,7.585247993E0,5.135296345E0
3.806878438E0,-1.374078393E0,7.446165085E0,6.081358910E0
3.823544375E0,-5.829514265E-1,6.862017155E0,7.348657608E0
3.840210313E0,3.526422381E-1,6.591628075E0,8.084749222E0
3.856876250E0,1.358525038E0,6.385546207E0,8.182855606E0
3.873542188E0,2.201396942E0,6.277271271E0,7.874480247E0
3.890208125E0,2.414956331E0,6.031109333E0,6.681957245E0
3.906874063E0,2.131406784E0,5.907280922E0,5.336592674E0
3.923540000E0,1.524227977E0,5.968596935E0,4.468297005E0
3.940205938E0,1.050150037E0,5.894718647E0,4.505684853E0
3.956871875E0,4.136592150E-1,5.787939072E0,5.180460930E0
3.973537813E0,8.533403873E-1,5.465805054E0,5.635097504E0
3.990203750E0,1.324427366E0,5.479563713E0,5.635097504E0
4.006869688E0,1.522433400E0,5.584249973E0,5.234299660E0
4.023535625E0,1.329811215E0,5.841179371E0,5.203492165E0
4.040201563E0,1.087537885E0,6.003890991E0,5.676074505E0
4.056867500E0,9.873384237E-1,6.175576210E0,6.362515450E0
4.073533438E0,1.146162033E0,6.342176437E0,6.634100914E0
4.090199375E0,1.573580027E0,6.458527565E0,7.242774963E0
4.106865313E0,1.700100541E0,6.567101955E0,7.928318501E0
4.123531250E0,1.709372640E0,6.595815659E0,7.979764462E0
4.140197188E0,1.770688772E0,6.681059837E0,7.658527851E0
4.156863125E0,1.527518153E0,6.987341404E0,7.372585773E0
4.173529063E0,1.368993640E0,7.290631294E0,6.959524632E0
4.190195000E0,1.022931695E0,7.558627605E0,6.470790863E0
4.206860938E0,1.016949654E0,8.147561073E0,6.416653156E0
4.223526875E0,1.715653777E0,8.009076118E0,6.730412006E0
4.240192813E0,2.671885490E0,7.521538734E0,7.608278751E0
4.256858750E0,3.415455103E0,6.976872444E0,9.300901413E0
4.273524688E0,3.862015724E0,6.399903297E0,1.063131142E1
4.290190625E0,3.754039526E0,5.911767483E0,1.031635571E1
4.306856563E0,3.163012505E0,5.573781013E0,8.318946838E0
4.323522500E0,3.196810961E0,5.644369602E0,5.982655048E0
4.340188438E0,3.224627733E0,5.624927998E0,3.717848301E0
4.356854375E0,3.026621580E0,5.504090309E0,2.283650160E0
4.373520313E0,2.196012974E0,5.010869503E0,1.274477124E0
4.390186250E0,9.637092948E-1,4.388436794E0,9.924231768E-1
4.406852188E0,9.397810698E-1,4.868496895E0,2.723331213E0
4.423518125E0,1.026820064E0,5.545366287E0,4.998008251E0
4.440184063E0,8.437690735E-1,5.934798241E0,6.580860615E0
4.456850000E0,3.589234054E-1,6.099604130E0,7.035795689E0
4.473515938E0,7.597211748E-2,6.201299191E0,7.706085205E0
4.490181875E0,9.263214469E-1,6.417251110E0,8.654241562E0
4.506847813E0,2.266601324E0,6.800402164E0,8.495118141E0
4.523513750E0,2.340479612E0,7.133004189E0,6.908378124E0
4.540179688E0,2.247159481E0,7.286144733E0,5.967699528E0
4.556845625E0,2.408375978E0,7.228717327E0,6.153143406E0
4.573511563E0,2.356332064E0,7.103094101E0,6.189334869E0
4.590177500E0,2.576471806E0,7.202695370E0,6.402595043E0
4.606843438E0,3.367000580E0,7.097112179E0,6.658328056E0
4.623509375E0,3.715754509E0,6.834798813E0,6.369993210E0
4.640175313E0,3.147459030E0,6.714858532E0,5.382056236E0
4.656841250E0,2.237887383E0,6.815955162E0,4.100101471E0
4.673507188E0,1.716252089E0,7.059125900E0,3.055036306E0
4.690173125E0,1.234995604E0,7.295716286E0,2.281556368E0
4.706839063E0,3.517449200E-1,7.036693096E0,1.891825438E0
4.723505000E0,3.927220106E-1,6.530611038E0,2.225325108E0
4.740170938E0,2.054238319E0,6.154040813E0,2.946461916E0
4.756836875E0,3.084049225E0,6.507580280E0,3.646063566E0
4.773502813E0,2.537289381E0,6.740282059E0,2.677867651E0
4.790168750E0,1.006780148E0,6.821040154E0,3.757030725E0
4.806834688E0,-5.147559643E-1,7.088139057E0,6.836593628E0
4.823500625E0,-6.672984362E-1,7.653742313E0,8.793622971E0
4.840166563E0,2.324029058E-1,7.840382576E0,8.349754333E0
4.856832500E0,6.314060688E-1,8.178069115E0,9.128020287E0
4.873498438E0,1.528415442E0,8.076673508E0,1.211605740E1
4.890164375E0,2.111067772E0,9.051749229E0,1.513370609E1
4.906830313E0,3.218645573E0,1.012851906E1,1.603609848E1
4.923496250E0,6.102594852E0,1.131386375E1,1.426421356E1
4.940162188E0,7.062715054E0,1.195693493E1,1.357388496E1
4.956828125E0,5.160421371E0,1.338335609E1,1.325653648E1
4.973494063E0,6.482156754E0,1.518066502E1,1.602712631E1
4.990160000E0,9.880562782E0,1.455912971E1,2.244557381E1
5.006825938E0,1.245284748E1,1.254975700E1,2.604856682E1
5.023491875E0,1.118943691E1,1.032802105E1,2.216890335E1
5.040157813E0,9.407382011E0,9.200403214E0,1.389871025E1
5.056823750E0,8.607281685E0,4.925625324E0,4.263710976E0
5.073489688E0,2.046461582E0,2.703889608E-1,-3.074777126E0
5.090155625E0,-2.543869495E0,-3.613461256E0,-4.157230377E0
5.106821563E0,-3.623630762E0,-9.171091080E0,-2.452643216E-1
5.123487500E0,-5.903990746E0,-1.369232941E1,2.362912297E-1
5.140153438E0,-6.732505798E0,-2.030519295E1,-7.524230957E0
5.156819375E0,-3.920639992E0,-2.471696091E1,-1.044676495E1
5.173485313E0,8.159525394E-1,-2.882663345E1,-9.167501450E0
5.190151250E0,1.756630898E0,-2.872314453E1,-6.254539490E0
5.206817188E0,6.116951942E0,-2.735594559E1,-2.617149651E-1
5.223483125E0,9.337691307E0,-2.498077011E1,6.184250355E0
5.240149063E0,1.177238846E1,-2.364078903E1,8.693124771E0
5.256815000E0,1.550608921E1,-2.286850548E1,1.135813046E1
5.273480938E0,2.110619164E1,-1.950808525E1,1.666840172E1
5.290146875E0,3.150360298E1,-1.360828114E1,2.558854675E1
5.306812813E0,4.709194565E1,-8.513663292E0,3.198934746E1
5.323478750E0,5.476662445E1,-3.498306751E0,2.587897491E1
5.340144688E0,5.045146942E1,1.253839016E0,2.005843353E1
5.356810625E0,3.603919983E1,7.301100254E0,1.929123497E1
5.373476563E0,1.807837296E1,1.453490162E1,1.481366634E1
5.390142500E0,3.866502285E0,2.287538528E1,9.823135376E0
5.406808438E0,-6.414260387E0,3.236232758E1,6.570092678E0
5.423474375E0,-1.294666576E1,3.976153564E1,8.093722343E0
5.440140313E0,-1.092353439E1,3.945166397E1,1.475205040E1
5.456806250E0,-7.171289444E0,3.519213867E1,2.253051949E1
5.473472188E0,-1.049192905E1,3.237878036E1,2.741815758E1
5.490138125E0,-1.026072216E1,2.940270615E1,2.617299271E1
5.506804063E0,-1.042373419E0,2.933869743E1,2.138495445E1
5.523470000E0,1.611236954E1,3.019801903E1,1.910788536E1
5.540135938E0,3.619144058E1,2.787967300E1,2.685704041E1
5.556801875E0,5.096772003E1,1.945095634E1,3.749911880E1
5.573467813E0,5.567380524E1,1.003160954E1,3.969991684E1
5.590133750E0,6.231807327E1,-7.504490018E-1,3.600689697E1
5.606799688E0,6.701757812E1,-8.161319733E0,2.999881744E1
5.623465625E0,7.004389954E1,-1.563111401E1,2.199512482E1
5.640131563E0,6.215386581E1,-2.650978279E1,1.542862129E1
5.656797500E0,3.859054565E1,-3.419343567E1,1.107996559E1
5.673463438E0,1.321974659E1,-3.972294998E1,7.701299667E0
5.690129375E0,-1.450618839E1,-3.507010651E1,3.235993624E0
5.706795313E0,-2.856760979E1,-3.045554733E1,-4.808077812E0
5.723461250E0,-2.753450966E1,-2.983311462E1,-1.081675434E1
5.740127188E0,-2.004976082E1,-3.556900787E1,-2.473281384E0
5.756793125E0,-1.343599796E1,-4.214777756E1,1.281027508E1
5.773459063E0,-9.068498611E0,-4.465156555E1,1.246331596E1
5.790125000E0,-9.052047729E0,-4.310161591E1,1.503589988E0
5.806790938E0,-6.365805626E0,-4.189353943E1,-1.606481314E0
5.823456875E0,8.536693573E0,-4.360111618E1,4.825126648E0
5.840122813E0,2.310419846E1,-4.142364883E1,1.248425293E1
5.856788750E0,3.809463501E1,-3.593750381E1,2.246352005E1
5.873454688E0,5.051517868E1,-2.717139816E1,2.444447708E1
5.890120625E0,5.584907913E1,-1.387777328E1,1.476012611E1
5.906786563E0,6.966523743E1,-2.481656075E0,1.365972710E1
5.923452500E0,7.835387421E1,4.987240791E0,2.977000427E1
5.940118438E0,6.686503601E1,1.232542896E1,3.122872925E1
5.956784375E0,3.801327896E1,2.086212349E1,2.239502525E1
5.973450313E0,1.846032715E1,2.899532700E1,1.076022434E1
5.990116250E0,4.534099579E0,3.627279663E1,5.508576870E0
6.006782188E0,3.083750308E-1,3.789124298E1,1.058375359E1
6.023448125E0,-2.032403708E0,3.459154129E1,1.423221016E1
6.040114063E0,-1.003131104E1,3.381895828E1,1.009143066E1
6.056780000E0,-1.373121262E1,3.295874023E1,4.939383984E0
6.073445938E0,-1.239063358E1,3.048904610E1,-2.392822644E-3
6.090111875E0,-7.141977310E0,3.192982483E1,3.279961586E0
6.106777813E0,6.410371780E0,3.294378281E1,1.674407578E1
6.123443750E0,2.413999176E1,3.261746216E1,2.671735954E1
6.140109688E0,4.117150497E1,2.913171768E1,2.785724068E1
6.156775625E0,5.345206833E1,2.521795845E1,3.372713470E1
6.173441563E0,7.192436218E1,1.196949673E1,4.099503326E1
6.190107500E0,7.838767242E1,-5.164309502E0,3.142733192E1
6.206773438E0,6.911757660E1,-2.132812500E1,1.480858088E0
6.223439375E0,4.256352997E1,-2.510070992E1,-8.309375763E0
6.240105313E0,1.539691639E1,-3.009871864E1,1.294158173E1
6.256771250E0,-5.104488850E0,-3.126910782E1,2.393779755E1
6.273437188E0,-1.535414505E1,-3.413510895E1,1.332562923E1
6.290103125E0,-1.937378693E1,-3.620131302E1,-3.666701555E0
6.306769063E0,-2.105055809E1,-3.847479248E1,-1.350987625E1
6.323435000E0,-1.768595123E1,-4.241098785E1,-7.972885132E0
6.340100938E0,-9.771988869E0,-4.498955154E1,3.439682484E0
6.356766875E0,1.092323542E0,-4.536432648E1,1.331934834E1
6.373432813E0,1.400907898E1,-4.386971283E1,1.371835136E1
6.390098750E0,2.115584183E1,-3.926053619E1,4.651946545E0
6.406764688E0,2.495235443E1,-3.446801376E1,-6.690930128E-1
6.423430625E0,3.251606750E1,-2.779203606E1,9.848558426E0
6.440096563E0,4.392115784E1,-1.627508163E1,1.979462624E1
6.456762500E0,6.193671799E1,-1.844268084E0,1.969891167E1
6.473428438E0,7.734948730E1,1.019761181E1,9.931709290E0
6.490094375E0,7.611688232E1,2.307668114E1,1.362114334E1
6.506760313E0,5.625226974E1,3.038795090E1,2.896182823E1
6.523426250E0,3.354079437E1,3.287528992E1,2.984836960E1
6.540092188E0,1.552882099E1,3.354438400E1,1.541097450E1
6.556758125E0,3.548556089E0,3.111895752E1,3.104089260E0
6.573424063E0,-2.718545675E0,2.211297226E1,-2.210369855E-1
6.590090000E0,-1.086969566E1,1.699472427E1,-5.973083377E-1
6.606755938E0,-1.907438660E1,1.786541176E1,-3.072982550E0
6.623421875E0,-2.201546478E1,1.890569115E1,-2.469691992E0
6.640087813E0,-1.927657890E1,2.055913162E1,-1.411466241E0
6.656753750E0,-9.375378609E0,2.378376007E1,-3.373879790E-1
6.673419688E0,4.619643211E0,2.868126869E1,1.527219057E0
6.690085625E0,2.040778542E1,3.354378510E1,9.740881920E0
6.706751563E0,3.623600769E1,3.423171997E1,2.675564575E1
6.723417500E0,4.895565414E1,2.892384148E1,4.133600998E1
6.740083438E0,6.157061768E1,1.373928833E1,3.801895905E1
6.756749375E0,6.900661469E1,-1.944168471E-2,1.649492264E1
6.773415313E0,6.413452911E1,-1.073240757E1,-1.490130305E0
6.790081250E0,4.440660095E1,-1.857039833E1,4.289732933E0
6.806747188E0,2.069642067E1,-2.142802620E1,1.809691811E1
6.823413125E0,4.647160530E0,-2.317598343E1,1.672523117E1
6.840079063E0,-6.126523495E0,-2.438824654E1,5.778965950E0
6.856745000E0,-1.031755257E1,-2.925255585E1,-2.676671267E0
6.873410938E0,-1.420319748E1,-3.523341751E1,-5.845665932E0
6.890076875E0,-2.155514526E1,-3.804019547E1,-4.048655987E0
6.906742813E0,-2.337787628E1,-4.013899994E1,-4.564907551E0
6.923408750E0,-1.225663567E1,-4.041896057E1,-1.202692509E0
6.940074688E0,9.142974854E0,-4.094358826E1,5.524429321E0
6.956740625E0,2.032523346E1,-3.584448242E1,6.730112553E0
6.973406563E0,2.531636238E1,-3.102204895E1,1.999502420E0
6.990072500E0,3.112314415E1,-2.588346100E1,1.824527264E0
7.006738438E0,3.891387558E1,-1.866371727E1,1.081256771E1
7.023404375E0,4.455675125E1,-5.545067310E0,1.696092606E1
7.040070313E0,5.939105606E1,2.237588167E0,1.289073372E1
7.056736250E0,6.277480316E1,1.066271687E1,1.047846985E1
7.073402188E0,5.225864792E1,2.209502602E1,2.625105858E1
7.090068125E0,4.422803497E1,2.922055244E1,4.173561096E1
7.106734063E0,3.211257553E1,3.155863953E1,3.378994751E1
7.123400000E0,1.738894081E1,2.989742088E1,2.015923119E1
7.140065938E0,5.382355213E0,2.346820641E1,9.966704369E0
7.156731875E0,-7.016055107E0,1.779213142E1,3.338585854E0
7.173397813E0,-1.826202202E1,1.609681702E1,-1.880459547E0
7.190063750E0,-2.461556435E1,1.719841194E1,-4.347459793E0
7.206729688E0,-2.512284279E1,1.880339813E1,-2.585743904E0
7.223395625E0,-1.663131332E1,2.115853500E1,1.640578985E0
7.240061563E0,2.754737139E-1,2.386541557E1,7.101299286E0
7.256727500E0,1.123819065E1,2.898186874E1,1.061635590E1
7.273393438E0,2.268814659E1,3.320310593E1,2.019960976E1
7.290059375E0,4.036183167E1,3.110729218E1,3.394906998E1
7.306725313E0,5.798616791E1,1.960559273E1,3.818466187E1
7.323391250E0,6.266921997E1,4.184149265E0,2.744926453E1
7.340057188E0,6.082106400E1,-8.028817177E0,1.367288780E1
7.356723125E0,5.334588623E1,-1.466232014E1,5.487041473E0
7.373389063E0,3.751826096E1,-2.099193382E1,5.067101002E0
7.390055000E0,1.623560143E1,-2.558585358E1,9.440881729E0
7.406720938E0,-1.479063511E0,-2.817279434E1,9.946365356E0
7.423386875E0,-8.944071770E0,-3.251786041E1,4.397110939E0
7.440052813E0,-1.489113331E1,-3.768904877E1,-4.145864487E0
7.456718750E0,-2.325315094E1,-3.826183319E1,-1.138714409E1
7.473384688E0,-2.495743942E1,-3.807190323E1,-1.325713444E1
7.490050625E0,-9.787242889E0,-3.884568024E1,-4.764409065E0
7.506716563E0,1.171825027E1,-3.789453506E1,7.526623726E0
7.523382500E0,1.792104530E1,-3.189243698E1,1.028614616E1
7.540048438E0,1.625743484E1,-2.594657326E1,2.088634968E0
7.556714375E0,2.320679092E1,-2.011257172E1,-3.170490026E0
7.573380313E0,3.852384567E1,-1.405514145E1,3.452843189E0
7.590046250E0,5.296004486E1,-5.903990746E0,1.979013824E1
7.606712188E0,5.770471191E1,4.783252239E0,2.052712822E1
7.623378125E0,5.571956635E1,1.583420467E1,1.599063587E1
7.640044063E0,5.052026367E1,2.168226242E1,2.228226280E1
7.656710000E0,3.647170258E1,2.150579262E1,2.497030067E1
7.673375938E0,1.728724670E1,2.197717857E1,1.880100632E1
7.690041875E0,4.833202839E0,2.011047745E1,8.483154297E0
7.706707813E0,-2.333899498E0,1.724088478E1,-3.170489967E-1
7.723373750E0,-7.542476177E0,1.569900990E1,-5.663512230E0
7.740039688E0,-1.312672615E1,1.661725616E1,-1.058405304E1
7.756705625E0,-1.562632847E1,1.698575020E1,-1.257547951E1
7.773371563E0,-1.199880886E1,1.649402618E1,-9.696614265E0
7.790037500E0,-1.446760416E0,1.621615982E1,-2.829512835E0
7.806703438E0,4.946562767E0,1.752264023E1,3.628416538E0
7.823369375E0,1.944467545E0,2.034676933E1,6.607480526E0
7.840035313E0,-2.808276415E0,2.309372902E1,7.413861752E0
7.856701250E0,-5.700899959E-1,2.604497719E1,1.083589745E1
7.873367188E0,1.390798283E1,2.674069023E1,1.789143372E1
7.890033125E0,3.521696472E1,2.114926147E1,2.205943108E1
7.906699063E0,5.164578629E1,8.891429901E0,2.152882385E1
7.923365000E0,5.074219513E1,2.236690998E0,1.673869133E1
7.940030938E0,5.291906738E1,-6.275775433E0,8.774480820E0
7.956696875E0,5.057410049E1,-9.507881165E0,5.300401211E0
7.973362813E0,3.774199295E1,-1.608126450E1,1.022363377E1
7.990028750E0,1.519591904E1,-1.806551170E1,1.566730499E1
8.006694688E0,1.365703583E0,-2.155185509E1,1.827787399E1
8.023360625E0,-2.806781054E0,-3.001795959E1,1.242951679E1
8.040026563E0,-8.862715721E0,-3.727868271E1,7.079764009E-1
8.056692500E0,-1.796680832E1,-3.990450668E1,-1.136710358E1
8.073358438E0,-2.357797623E1,-3.840779495E1,-1.666989899E1
8.090024375E0,-2.074607086E1,-3.760500336E1,-1.388225937E1
8.106690313E0,-1.233918858E1,-3.556811142E1,-6.483652115E0
8.123356250E0,-4.758726120E0,-3.306342697E1,-2.836092949E0
8.140022188E0,6.020341873E0,-3.054019356E1,-4.412963390E0
8.156688125E0,2.018076706E1,-2.656870651E1,-6.976872444E0
8.173354063E0,3.810988617E1,-2.217907333E1,-5.546263695E0
8.190020000E0,5.149832916E1,-2.166641045E1,2.679363251E0
8.206685938E0,5.886014557E1,-1.582553101E1,1.613540077E1
8.223351875E0,6.623602295E1,-7.005586624E0,2.733859634E1
8.240017813E0,5.462514877E1,1.818844318E0,3.570240784E1
8.256683750E0,2.998894691E1,8.984151840E0,2.769781876E1
8.273349688E0,7.622934818E0,1.255663586E1,1.021077251E1
8.290015625E0,-4.992026329E0,1.360768318E1,-2.256730795E0
8.306681563E0,-7.328019142E0,1.454507160E1,-2.049153566E0
8.323347500E0,-7.899903774E0,1.729262924E1,3.237788200E0
8.340013438E0,-9.621540070E0,1.870349884E1,5.211567879E0
8.356679375E0,-1.046770191E1,1.987298965E1,3.788137436E0
8.373345313E0,-6.353542328E0,1.927059746E1,2.602792740E0
8.390011250E0,2.681456804E0,1.747568130E1,5.485845089E0
8.406677188E0,1.250818157E1,1.550638771E1,1.070578766E1
8.423343125E0,1.701386642E1,1.357777309E1,1.348804188E1
8.440009063E0,1.823091507E1,1.078774166E1,1.087328529E1
8.456675000E0,1.650778389E1,7.299604416E0,6.384948254E0
8.473340938E0,1.235833073E1,2.457727909E0,4.321736813E0
8.490006875E0,1.027866840E1,-3.253640652E0,7.367500782E0
8.506672813E0,1.320808220E1,-9.784550667E0,1.010159969E1
8.523338750E0,1.903430557E1,-2.227388954E1,3.715455294E0
8.540004688E0,1.900439644E1,-2.894657326E1,-4.057629108E0
8.556670625E0,3.059163857E1,-3.291237640E1,-5.577968597E0
8.573336563E0,3.584508133E1,-3.282743454E1,-1.019940674E-1
8.590002500E0,2.187817574E1,-2.740769005E1,7.048956394E0
8.606668438E0,1.256531000E0,-2.311257362E1,3.189333439E0
8.623334375E0,-1.446281815E1,-1.686640930E1,-8.372486115E0
8.640000313E0,-1.907647896E1,-1.134347439E1,-1.856920052E1
8.656666250E0,-1.180080318E1,-1.112183952E1,-2.098056793E1
8.673332188E0,-4.922933578E0,-1.162403297E1,-1.649970818E1
8.689998125E0,3.989134550E0,-6.414559364E0,6.589235067E-1
8.706664063E0,2.971736145E1,-4.189832687E0,2.552035141E1
8.723330000E0,5.596154022E1,-1.661815286E0,3.278884888E1
8.739995938E0,5.746512985E1,2.362015009E0,1.349611759E1
8.756661875E0,2.879522705E1,4.837988377E0,-1.117029476E1
8.773327813E0,3.822833300E0,1.011356354E1,-2.300399780E1
8.789993750E0,3.900899172E0,1.171914768E1,-1.310459232E1
8.806659688E0,9.737591743E0,9.778569221E0,-9.643075466E-1
8.823325625E0,9.837491989E0,8.129914284E0,7.914559841E0
8.839991563E0,9.161220551E0,5.013561726E0,1.043300629E1
8.856657500E0,1.071386337E1,-4.935196638E-1,7.769495010E0
8.873323438E0,1.355205059E1,-6.721139908E0,3.348755360E0
8.889989375E0,1.699083519E1,-1.090379333E1,-4.295116663E-1
8.906655313E0,2.133739853E1,-1.148465157E1,2.721835673E-2
8.923321250E0,2.113998985E1,-1.245524025E1,6.155536175E0
8.939987188E0,1.275853062E1,-1.239123249E1,1.110718346E1
8.956653125E0,5.059922695E0,-1.117777157E1,8.006085396E0
8.973319063E0,3.254238844E0,-9.916155815E0,-6.915257573E-1
8.989985000E0,3.307179928E0,-7.484749317E0,-6.471388817E0
9.006650938E0,2.210968018E0,-5.971887112E0,-7.205985546E0
9.023316875E0,-2.931207716E-1,-3.236591816E0,-4.106083870E0
9.039982813E0,-3.559323549E-1,6.837490797E-1,1.516750455E0
9.056648750E0,4.132404804E0,4.383351803E0,9.020642281E0
9.073314688E0,1.310219955E1,4.945964336E0,1.519831181E1
9.089980625E0,2.039881325E1,4.881358147E0,1.517318726E1
9.106646563E0,2.092254257E1,5.042275429E0,9.882657051E0
9.123312500E0,1.520668697E1,4.577768803E0,5.717350483E0
9.139978438E0,8.098507881E0,3.163311481E0,3.183052301E0
9.156644375E0,2.806481838E0,2.261217356E0,2.157428741E0
9.173310313E0,5.557330847E-1,1.927717686E0,1.620838284E0
9.189976250E0,1.344467282E0,6.777670383E-1,-2.703889608E-1
9.206642188E0,4.366602421E0,-9.894321561E-1,-2.063211441E0
9.223308125E0,6.638886452E0,-3.186043262E0,-5.554339409E0
9.239974063E0,5.088636398E0,-4.391726971E0,-1.073988533E1
9.256640000E0,2.554039001E0,-5.042873859E0,-1.101296616E1
9.273305938E0,7.927122116E0,-7.680960655E0,-4.187738895E0
9.289971875E0,1.772812462E1,-1.072014427E1,4.626223564E0
9.306637813E0,2.255145645E1,-1.235922813E1,7.543373585E0
9.323303750E0,2.030220222E1,-1.116820049E1,2.864208698E0
9.339969688E0,1.718614960E1,-8.620741844E0,1.340878010E0
9.356635625E0,1.567268944E1,-5.295914650E0,3.991826296E0
9.373301563E0,1.644945908E1,-2.697309256E0,6.173482418E0
9.389967500E0,1.662413597E1,-9.233304262E-1,4.300201416E0
9.406633438E0,1.329272842E1,1.585245013E0,-1.027717352E0
9.423299375E0,9.631709099E0,4.088735580E0,-8.294121623E-1
9.439965313E0,5.796612740E0,6.495018005E0,5.296812057E0
9.456631250E0,5.077868938E0,8.690732002E0,1.233619690E1
9.473297188E0,8.378767967E0,1.055713367E1,1.631276894E1
9.489963125E0,1.434108353E1,1.063131142E1,1.463599873E1
9.506629063E0,1.401266861E1,1.065643597E1,7.907680511E0
9.523295000E0,6.565008163E0,1.146251774E1,2.196012974E0
9.539960938E0,9.723833203E-1,1.150558853E1,2.857628345E0
9.556626875E0,-5.871388316E-1,1.092293644E1,8.047062874E0
9.573292813E0,1.458724499E0,9.952945709E0,1.178315639E1
9.589958750E0,7.277471066E0,8.094619751E0,1.191715431E1
9.606624688E0,1.221954727E1,5.823532104E0,9.334700584E0
9.623290625E0,1.134078312E1,4.066901207E0,6.219544411E0
9.639956563E0,8.127222061E0,3.465106249E0,4.901099205E0
9.656622500E0,7.304689407E0,3.706781387E0,4.761716843E0
9.673288438E0,1.108654594E1,5.119144917E0,6.149853230E0
9.689954375E0,1.772513199E1,7.613662720E0,9.502796173E0
9.706620313E0,2.434936333E1,9.314361572E0,1.354636765E1
9.723286250E0,2.908296394E1,1.087089252E1,1.719542122E1
9.739952188E0,3.291806030E1,1.254138184E1,1.840020752E1
9.756618125E0,3.831357574E1,1.272802162E1,2.047598076E1
9.773284063E0,4.172903061E1,1.017278671E1,2.127458572E1
9.789950000E0,4.079493332E1,7.942974567E0,2.111426735E1
9.806615938E0,3.597788239E1,4.380660057E0,2.181775665E1
9.823281875E0,2.684029198E1,-8.973084688E-1,2.278625107E1
9.839947813E0,1.686760521E1,-4.326522350E0,2.504597282E1
9.856613750E0,1.086161995E1,-6.854539394E0,2.667159843E1
9.873279688E0,8.346165657E0,-9.557532310E0,2.366023064E1
9.889945625E0,6.876673222E0,-1.134347439E1,1.540050602E1
9.906611563E0,5.404788017E0,-1.211306667E1,6.189633846E0
9.923277500E0,3.108874798E0,-1.255454254E1,-9.541380405E-1
9.939943438E0,7.902296782E-1,-1.352483177E1,-2.915953398E0
9.956609375E0,4.486542568E-2,-1.420738411E1,-8.659027219E-1
9.973275313E0,2.432005167E0,-1.580608940E1,-9.876375198E-1
9.989941250E0,3.036491871E0,-1.676949883E1,-5.115555763E0
1.000660719E1,8.596215248E-1,-1.670220184E1,-9.616754532E0
1.002327313E1,-2.035394669E0,-1.590090466E1,-1.097318554E1
1.003993906E1,-3.417848110E0,-1.547528172E1,-9.165108681E0
1.005660500E1,-3.269193888E0,-1.503589916E1,-6.597609997E0
1.007327094E1,-1.399801254E0,-1.509482288E1,-5.741278648E0
1.008993688E1,2.195414782E0,-1.455374527E1,-4.981856823E0
1.010660281E1,7.147660255E0,-1.405035591E1,-5.087141037E0
1.012326875E1,1.282074356E1,-1.280249882E1,-6.322136402E0
1.013993469E1,1.702762413E1,-1.115803146E1,-7.328617573E0
1.015660063E1,2.067189407E1,-1.003549862E1,-5.933900833E0
1.017326656E1,2.588824654E1,-1.159920788E1,-4.734199524E0
1.018993250E1,2.917478943E1,-1.222552872E1,-2.914158821E0
1.020659844E1,2.874318314E1,-9.054440498E0,1.804786444E0
1.022326438E1,2.824308395E1,-2.696112871E0,8.071290016E0
1.023993031E1,3.203271484E1,3.673880100E0,1.582852173E1
1.025659625E1,3.712853241E1,9.829416275E0,2.013500404E1
1.027326219E1,3.503032684E1,1.576481247E1,1.694567108E1
1.028992813E1,2.460808754E1,2.004437637E1,9.829116821E0
1.030659406E1,1.198205948E1,2.434756851E1,5.834000587E0
1.032326000E1,5.077569485E0,2.642424011E1,9.245268822E0
1.033992594E1,4.903491974E0,2.629413033E1,1.518335724E1
1.035659188E1,7.181757927E0,2.243091774E1,2.013201332E1
1.037325781E1,1.005763149E1,1.687209129E1,2.023281097E1
1.038992375E1,1.101087284E1,1.200509071E1,1.260957718E1
1.040658969E1,8.750552177E0,8.963214874E0,1.675274968E0
1.042325563E1,5.556433201E0,6.978068829E0,-4.225724697E0
1.043992156E1,4.578067780E0,5.419743061E0,-1.725524187E0
1.045658750E1,8.304290771E0,3.850649834E0,2.913560629E0
1.047325344E1,1.343928814E1,3.926023722E0,6.616752625E0
1.048991938E1,1.960618973E1,4.923830986E0,1.061994553E1
1.050658531E1,2.861785889E1,5.849554062E0,1.134526920E1
1.052325125E1,4.046173477E1,8.483154297E0,8.591429710E0
1.053991719E1,5.436074448E1,1.025862885E1,1.085324574E1
1.055658313E1,6.041548157E1,4.700400829E0,2.141695976E1
1.057324906E1,5.455844879E1,-9.270991325E0,2.507797813E1
1.058991500E1,3.601437378E1,-1.925205231E1,1.665763474E1
1.060658094E1,1.416939831E1,-2.088844490E1,1.005464077E1
1.062324688E1,-2.239981174E0,-2.111247253E1,1.054816055E1
1.063991281E1,-1.247049427E1,-2.470978165E1,1.164646626E1
1.065657875E1,-2.059472466E1,-2.907488823E1,9.084052086E0
1.067324469E1,-2.462184525E1,-3.366492081E1,4.245465755E0
1.068991063E1,-2.112473488E1,-4.043152237E1,2.257628202E0
1.070657656E1,-1.785643959E1,-4.324996948E1,4.329214573E0
1.072324250E1,-1.430070496E1,-4.261527252E1,4.718646049E0
1.073990844E1,-8.047660828E0,-4.072644043E1,3.857828379E0
1.075657438E1,3.057728291E0,-3.852324677E1,2.879761934E0
1.077324031E1,1.436501122E1,-3.373341370E1,6.632007122E0
1.078990625E1,2.696711159E1,-2.640629387E1,1.244417286E1
1.080657219E1,4.267808533E1,-1.770688820E1,1.683171272E1
1.082323813E1,5.763681793E1,-4.423431873E0,2.011825371E1
1.083990406E1,6.996284485E1,7.611867905E0,1.945484543E1
1.085657000E1,7.225666046E1,1.467368603E1,1.231107235E1
1.087323594E1,5.532086182E1,1.695105553E1,3.819842339E0
1.088990188E1,3.089792061E1,1.812772560E1,4.698905468E0
1.090656781E1,7.733901978E0,2.019960976E1,8.125128746E0
1.092323375E1,-1.091486073E1,2.503101921E1,8.367102623E0
1.093989969E1,-1.841994858E1,2.847788048E1,9.371191025E0
1.095656563E1,-1.546810246E1,2.596900558E1,1.427019596E1
1.097323156E1,-5.204987526E0,1.919671822E1,1.848066711E1
1.098989750E1,3.126222849E0,1.667917061E1,1.773141479E1
1.100656344E1,1.724028707E0,1.678475380E1,9.974182129E0
1.102322938E1,-4.242175579E0,1.660289955E1,3.551247835E0
1.103989531E1,-6.844369888E0,2.015803528E1,6.908677101E0
1.105656125E1,6.725028038E0,2.460868454E1,1.565205097E1
1.107322719E1,3.550859070E1,2.484288216E1,2.369851494E1
1.108989313E1,5.998627090E1,1.863290977E1,2.840699196E1
1.110655906E1,6.020461273E1,6.502495766E0,2.857448959E1
1.112322500E1,4.959693146E1,-3.725624800E0,2.562593460E1
1.113989094E1,4.343900299E1,-1.035075283E1,1.791326904E1
1.115655688E1,3.922314835E1,-1.913719749E1,9.370592117E0
1.117322281E1,2.672573471E1,-2.517070007E1,2.631805897E0
1.118988875E1,8.507980347E0,-2.719682312E1,1.273579836E0
1.120655469E1,-1.163270760E1,-2.508186531E1,2.767000198E0
1.122322063E1,-2.504268265E1,-2.357737923E1,4.111168385E0
1.123988656E1,-2.476152611E1,-2.756142807E1,5.008776188E0
1.125655250E1,-1.318923855E1,-3.883341599E1,6.431608200E0
1.127321844E1,-7.945666790E0,-4.907170868E1,6.710970402E0
1.128988438E1,-1.539751434E1,-5.211717224E1,2.381755829E0
1.130655031E1,-1.707996750E1,-5.358816147E1,5.247759342E0
1.132321625E1,-3.415754318E0,-5.577460098E1,1.137637615E1
1.133988219E1,1.833889198E1,-5.254937744E1,1.497398472E1
1.135654813E1,4.163541412E1,-4.450141525E1,1.709013748E1
1.137321406E1,6.344718933E1,-3.413989639E1,2.435983276E1
1.138988000E1,7.825457001E1,-2.012692833E1,4.067319870E1
1.140654594E1,7.822735596E1,-1.704287887E0,4.110480499E1
1.142321188E1,5.897380447E1,1.050060272E1,2.986302567E1
1.143987781E1,3.304846954E1,1.761296844E1,2.895076180E1
1.145654375E1,1.659781456E1,2.275305176E1,2.489133835E1
1.147320969E1,3.883252144E0,2.920948601E1,1.605793381E1
1.148987563E1,1.321137190E0,3.075435066E1,1.064267731E1
1.150654156E1,2.543869495E0,2.460808754E1,6.880561352E0
1.152320750E1,7.313064337E-1,1.960708809E1,8.097610474E0
1.153987344E1,-4.604987144E0,1.924786568E1,7.630412102E0
1.155653938E1,-7.418647289E0,1.752264023E1,4.513761044E0
1.157320531E1,-1.026072216E1,1.759263039E1,4.699802876E0
1.158987125E1,-8.513363838E0,2.023610115E1,8.959325790E0
1.160653719E1,2.080858469E0,2.507020187E1,1.342313671E1
1.162320312E1,2.483002090E1,2.731706238E1,1.340638733E1
1.163986906E1,4.488994980E1,2.527598381E1,1.833081627E1
1.165653500E1,5.379394150E1,1.974078751E1,3.283819962E1
1.167320094E1,6.399873352E1,5.901299000E0,4.033820343E1
1.168986688E1,6.444888306E1,-1.192403316E1,2.611825752E1
1.170653281E1,5.528048325E1,-2.361416817E1,9.521639824E0
1.172319875E1,3.869822311E1,-2.895105934E1,7.458727360E0
1.173986469E1,1.780619049E1,-2.950140953E1,1.541635799E1
1.175653062E1,3.010469913E0,-2.929532814E1,1.765962982E1
1.177319656E1,-6.277271271E0,-3.107110023E1,9.505786896E0
1.178986250E1,-1.719512177E1,-3.225435257E1,-1.336690545E0
1.180652844E1,-2.441935349E1,-3.583311844E1,-5.464907646E0
1.182319438E1,-2.758296394E1,-4.053441620E1,-3.146262646E0
1.183986031E1,-2.655105972E1,-4.646442795E1,-1.039083242E0
1.185652625E1,-1.179601765E1,-5.197270584E1,3.359822035E0
1.187319219E1,6.001498222E0,-5.190810013E1,7.829016685E0
1.188985812E1,1.548216057E1,-4.561527634E1,6.048457623E0
1.190652406E1,2.164457703E1,-4.181966019E1,4.675575256E0
1.192319000E1,3.512274933E1,-3.508386612E1,1.194885921E1
1.193985594E1,5.657201004E1,-2.541955376E1,2.278505516E1
1.195652188E1,7.177899933E1,-9.377471924E0,2.467598343E1
1.197318781E1,7.837271881E1,5.716154099E0,2.206750679E1
1.198985375E1,7.231498718E1,1.576271915E1,2.420220375E1
1.200651969E1,4.504847717E1,1.913629913E1,2.635724068E1
1.202318562E1,2.167149544E1,2.234208488E1,1.962323952E1
1.203985156E1,8.142476082E0,2.441606331E1,8.510073662E0
1.205651750E1,3.319742203E0,2.108734703E1,3.073281527E0
1.207318344E1,-2.585444927E0,1.613420486E1,2.336292267E0
1.208984938E1,-9.084351540E0,1.442004681E1,2.501995087E0
1.210651531E1,-1.440598869E1,1.490788364E1,-7.151548862E-1
1.212318125E1,-1.940010834E1,1.562812328E1,-4.308277130E0
1.213984719E1,-2.185843468E1,1.667827225E1,-5.534897804E0
1.215651312E1,-1.196201992E1,1.708744621E1,-3.585644722E0
1.217317906E1,3.729214191E0,1.937259102E1,-9.227322340E-1
1.218984500E1,1.067767239E1,2.123390770E1,6.642176628E0
1.220651094E1,1.264546967E1,2.413729858E1,1.567209148E1
1.222317688E1,2.678495789E1,2.815694237E1,2.377628136E1
1.223984281E1,4.839065170E1,2.607638359E1,2.719562531E1
1.225650875E1,6.182994080E1,1.450200081E1,2.566182709E1
1.227317469E1,6.449733734E1,3.346960545E-1,2.443610382E1
1.228984062E1,5.936712646E1,-1.275972652E1,2.291576385E1
1.230650656E1,4.763960266E1,-2.390549469E1,1.674198151E1
1.232317250E1,3.077798080E1,-2.753121948E1,7.947461128E0
1.233983844E1,1.628614998E1,-2.645803833E1,3.634099483E0
1.235650438E1,3.690629721E0,-2.562294388E1,3.864408493E0
1.237317031E1,-5.670092583E0,-2.701766014E1,6.621538639E0
1.238983625E1,-8.807381630E0,-3.030958557E1,9.836894035E0
1.240650219E1,-1.525005722E1,-3.213291550E1,7.065107822E0
1.242316812E1,-2.306800652E1,-3.255315399E1,2.877369225E-1
1.243983406E1,-2.051247215E1,-3.372025681E1,-3.587439299E0
1.245650000E1,-9.160323143E0,-3.534647751E1,-8.647062778E-1
1.247316594E1,1.347757339E0,-3.563989639E1,3.171985626E0
1.248983188E1,4.920540810E0,-3.600719452E1,4.834399223E0
1.250649781E1,8.313563347E0,-3.772763443E1,3.960719585E0
1.252316375E1,1.302323627E1,-3.639393616E1,3.984348774E0
1.253982969E1,2.109751701E1,-3.037479019E1,4.566103935E0
1.255649562E1,4.334807587E1,-2.267887306E1,1.013270664E1
1.257316156E1,6.749524689E1,-1.446999645E1,1.433420372E1
1.258982750E1,7.664360809E1,-2.032702923E0,2.058575249E1
1.260649344E1,6.401099396E1,1.102911758E1,3.342922974E1
1.262315938E1,4.206462479E1,1.722264099E1,3.520560074E1
1.263982531E1,1.588894081E1,2.278684998E1,2.557568550E1
1.265649125E1,-2.421237469E0,2.814198685E1,1.090439224E1
1.267315719E1,-3.858426571E0,3.113301468E1,5.135595798E0
1.268982312E1,1.822134495E0,3.157538795E1,6.320342064E0
1.270648906E1,6.816553593E0,2.865464973E1,6.891628265E0
1.272315500E1,5.220541000E0,2.411307144E1,4.040580273E0
1.273982094E1,5.032105923E0,1.998306084E1,3.443870068E0
1.275648688E1,8.586943626E0,1.555962849E1,5.966802597E0
1.277315281E1,1.205354500E1,1.076171970E1,8.874381065E0
1.278981875E1,1.611775398E1,4.779364109E0,9.696315765E0
1.280648469E1,1.636242104E1,-2.665604353E0,7.077969551E0
1.282315062E1,1.674676704E1,-1.199731350E1,5.853442192E0
1.283981656E1,1.804487419E1,-2.148874283E1,3.299104214E0
1.285648250E1,1.632981873E1,-2.432603264E1,-4.187439680E-1
1.287314844E1,2.252543449E1,-2.995724297E1,-7.163512707E-1
1.288981438E1,2.109303093E1,-3.217868042E1,3.627818346E0
1.290648031E1,7.089634418E0,-2.837050247E1,6.309873104E0
1.292314625E1,-2.713161707E0,-2.653730011E1,5.015655518E0
1.293981219E1,-7.154240608E0,-2.362792778E1,2.522334099E0
1.295647812E1,-8.970691681E0,-1.848814392E1,-4.342673779E0
1.297314406E1,-3.381357431E0,-1.323649693E1,-1.162373447E1
1.298981000E1,1.124895859E1,-7.143472672E0,-1.086431217E1
1.300647594E1,2.734757042E1,1.968694806E0,-3.193521023E0
1.302314188E1,3.888545990E1,1.266431332E1,1.194497108E1
1.303980781E1,3.797678757E1,1.622573090E1,3.156372261E1
1.305647375E1,3.028804970E1,1.638126373E1,3.844159317E1
1.307313969E1,2.219103813E1,1.282881927E1,2.223470688E1
1.308980562E1,1.041595650E1,1.034148026E1,5.288137794E-1
1.310647156E1,6.799205780E0,1.085115147E1,-9.999904633E0
1.312313750E1,1.166411304E1,9.523135185E0,-6.588637352E0
1.313980344E1,1.468475246E1,4.222135544E0,2.114357948E0
1.315646938E1,1.076351452E1,-1.852343798E0,9.468698502E0
1.317313531E1,4.791028976E0,-8.509176254E0,1.108475113E1
1.318980125E1,-1.226321608E-2,-1.568196106E1,4.583451748E0
1.320646719E1,-7.416553974E0,-1.939891243E1,-6.227620125E0
1.322313312E1,-9.984052658E0,-1.839063644E1,-1.359123230E1
1.323979906E1,1.333699465E0,-1.892722702E1,-9.749855042E0
1.325646500E1,1.432283783E1,-2.241955185E1,-2.377568483E0
1.327313094E1,1.903729630E1,-2.463500595E1,2.896811008E0
1.328979688E1,1.240708447E1,-2.225624084E1,1.724626899E0
1.330646281E1,3.524926901E0,-1.936092567E1,1.860718727E0
1.332312875E1,3.602693558E0,-1.791416550E1,1.653739572E0
1.333979469E1,1.396032524E1,-1.543669701E1,1.136590727E-2
1.335646062E1,3.336820984E1,-1.069561768E1,3.464508057E0
1.337312656E1,4.048506546E1,-2.020140409E0,1.566670704E1
1.338979250E1,4.020959091E1,1.015214825E1,2.846651459E1
1.340645844E1,4.425106812E1,1.744487381E1,2.317957115E1
1.342312438E1,3.883760452E1,1.969592094E1,6.764509678E0
1.343979031E1,2.490988159E1,1.826531219E1,-5.079364300E0
1.345645625E1,1.165005493E1,1.520668697E1,-5.752644539E0
1.347312219E1,4.020540237E0,1.140957642E1,-7.456633449E-1
1.348978812E1,1.651944876E0,7.688438416E0,3.431008577E0
1.350645406E1,1.142871857E0,5.006382942E0,4.750949383E0
1.352312000E1,1.557727575E0,2.678166628E0,3.761816263E0
1.353978594E1,2.129312992E0,8.700901270E-1,1.897807479E0
1.355645188E1,2.271985054E0,-1.136590719E0,1.031904817E0
1.357311781E1,1.878664851E0,-3.763610840E0,1.770688742E-1
1.358978375E1,2.225325108E-1,-6.057729721E0,-1.891825438E0
1.360644969E1,-8.075776510E-3,-7.632505894E0,-4.144368649E0
1.362311562E1,3.279064417E0,-9.353842735E0,-6.689135551E0
1.363978156E1,8.983553886E0,-1.078504944E1,-7.687242031E0
1.365644750E1,1.325683594E1,-1.287278748E1,-6.631408691E0
1.367311344E1,1.451755428E1,-1.676860237E1,-3.273082256E0
1.368977938E1,1.245793152E1,-2.022653008E1,1.429113269E0
1.370644531E1,6.799803734E0,-2.067069817E1,3.748356581E0
1.372311125E1,3.070888758E0,-1.969143486E1,3.771686554E-1
1.373977719E1,1.048176003E1,-1.307438278E1,-7.752745152E-1
1.375644312E1,2.204447746E1,-1.158395386E1,-1.845344734E1
1.377310906E1,1.861915207E1,-1.037737274E1,-1.570289898E1
1.378977500E1,1.350299740E1,-6.383751869E0,-3.591925859E0
1.380644094E1,1.556531143E1,-2.267498493E0,1.101147079E1
1.382310688E1,2.325374985E1,3.247957706E0,8.813663483E0
1.383977281E1,3.309572983E1,6.345167637E0,-4.355834484E0
1.385643875E1,3.180779076E1,6.959524632E0,-5.881857395E0
1.387310469E1,2.620230484E1,4.809573650E0,-3.846761465E0
1.388977062E1,1.054875851E1,7.389335632E0,-5.805585980E-1
1.390643656E1,-6.041877344E-2,9.457930565E0,1.454537034E0
1.392310250E1,-4.039682865E0,9.248259544E0,-3.623032570E0
1.393976844E1,-8.700303078E0,7.111767769E0,-1.337199020E1
1.395643438E1,-1.577587986E1,2.260918379E0,-2.038924217E1
1.397310031E1,-1.987358856E1,1.180259824E0,-1.356192017E1
1.398976625E1,-2.168974113E1,4.576871395E0,-2.794517756E0
1.400643219E1,-1.688614845E1,1.117328548E1,6.097510338E0
1.402309812E1,-1.995913148E0,8.388039589E0,1.057448101E1
1.403976406E1,7.961519241E0,1.029601669E1,2.914547729E1
1.405643000E1,1.672403526E1,1.134586811E1,2.744657326E1
1.407309594E1,4.133301926E1,5.418546677E0,1.264816093E1
1.408976188E1,5.578955841E1,5.172983646E0,6.631408691E0
1.410642781E1,5.730212021E1,6.112764359E0,5.777769566E0
1.412309375E1,5.466223907E1,7.277171612E-1,1.024187946E1
1.413975969E1,3.900928879E1,-6.248258114E0,1.689422607E1
1.415642562E1,2.545275307E1,-7.499405384E0,1.688704681E1
1.417309156E1,2.417319107E1,-6.798607349E0,9.866804123E0
1.418975750E1,2.671436882E1,-3.655634880E0,1.863410622E-1
1.420642344E1,2.812912560E1,3.427718580E-1,-7.272984505E0
1.422308938E1,2.453899384E1,4.820640087E0,-8.419445992E0
1.423975531E1,2.160988045E1,8.328219414E0,-5.116752148E0
1.425642125E1,1.922603035E1,9.463912964E0,-6.300302029E0
1.427308719E1,1.631635857E1,8.249256134E0,-1.077368355E1
1.428975312E1,1.423669624E1,6.073881149E0,-1.597956848E1
1.430641906E1,1.068335533E1,2.975475073E0,-2.297947311E1
1.432308500E1,7.720442295E0,1.285244823E0,-1.666032600E1
1.433975094E1,8.486444473E0,3.412763178E-1,-5.635695457E0
1.435641688E1,1.016441154E1,-2.740380049E0,-4.627419949E0
1.437308281E1,7.273283482E0,-5.167001247E0,-8.028517723E0
1.438974875E1,3.048455954E0,-6.883253574E0,-8.260622025E0
1.440641469E1,1.602592945E0,-8.099704742E0,-5.851946831E0
1.442308062E1,2.979961395E0,-8.262715340E0,-3.423830032E0
1.443974656E1,9.852148056E0,-9.896714211E0,8.880363107E-1
1.445641250E1,1.694118500E1,-1.050867844E1,7.678866863E0
1.447307844E1,1.978475571E1,-1.012193871E1,9.928718567E0
1.448974438E1,2.404278374E1,-1.062293625E1,7.623832226E0
1.450641031E1,2.950200844E1,-1.213938713E1,6.774380207E0
1.452307625E1,3.192414284E1,-9.995119095E0,1.805833244E1
1.453974219E1,3.277209854E1,-2.562413931E0,3.343610764E1
1.455640812E1,2.991566658E1,6.359524250E0,3.893092346E1
1.457307406E1,2.274288177E1,1.390768337E1,2.997219658E1
1.458974000E1,1.520339680E1,1.923679924E1,1.977129555E1
1.460640594E1,5.685346603E0,2.255684090E1,1.671595955E1
1.462307188E1,-4.421338081E0,2.655405045E1,1.925145531E1
1.463973781E1,-9.105288506E0,3.090151024E1,1.875673866E1
1.465640375E1,-9.800403595E0,3.237488937E1,8.121539116E0
1.467306969E1,-1.036331463E1,2.958456039E1,-6.384948254E0
1.468973562E1,-1.130010509E1,2.679781914E1,-1.195693493E1
1.470640156E1,-1.273250866E1,2.433799744E1,-9.270691872E0
1.472306750E1,-1.463181114E1,2.465983200E1,-1.663609982E0
1.473973344E1,-1.103001499E1,2.950709152E1,2.995813847E0
1.475639938E1,2.386242390E0,3.750899124E1,1.127617717E0
1.477306531E1,1.955893135E1,4.686433029E1,2.030908108E0
1.478973125E1,4.358975220E1,5.420401382E1,1.757348824E1
1.480639719E1,7.358677673E1,4.727410126E1,3.696551895E1
1.482306313E1,7.838259125E1,2.325105858E1,3.402952576E1
1.483972906E1,6.685247040E1,8.021938205E-1,1.637617874E1
1.485639500E1,4.502035904E1,-1.546541119E1,7.963014603E0
1.487306094E1,2.188834572E1,-2.449113846E1,3.241078377E0
1.488972688E1,3.346960545E-1,-2.744597435E1,3.419941664E0
1.490639281E1,-1.491446400E1,-3.115126038E1,7.982456207E0
1.492305875E1,-2.201307106E1,-3.759363556E1,1.081436157E1
1.493972469E1,-1.607019615E1,-4.593860626E1,1.175234795E1
1.495639063E1,-1.035284615E1,-4.938785934E1,1.169133186E1
1.497305656E1,-4.231407642E0,-4.856771851E1,1.681017685E1
1.498972250E1,8.574380875E0,-4.454418945E1,1.744606972E1
1.500638844E1,1.875763512E1,-3.850231171E1,1.314257812E1
1.502305438E1,2.193171501E1,-3.055843925E1,9.125328064E0
1.503972031E1,2.837977409E1,-2.239921188E1,7.853542805E0
1.505638625E1,4.406652069E1,-1.472483253E1,1.074138069E1
1.507305219E1,5.405446243E1,-2.627020121E0,1.932533264E1
1.508971813E1,6.685366821E1,1.429591846E1,2.356421852E1
1.510638406E1,7.821628571E1,2.382712936E1,4.369892120E0
1.512305000E1,6.032246017E1,2.155364990E1,-1.453370571E1
1.513971594E1,2.319034004E1,2.382772827E1,-2.544467688E0
1.515638188E1,5.318347454E0,2.444268417E1,1.171346474E1
1.517304781E1,-2.575574398E0,2.625644302E1,1.240020561E1
1.518971375E1,-8.211868286E0,2.814527702E1,6.582954407E0
1.520637969E1,-1.492074490E1,2.983969498E1,5.196014404E0
1.522304563E1,-1.480768394E1,2.386302185E1,1.723819351E1
1.523971156E1,-1.290867996E1,1.990290070E1,2.507229424E1
1.525637750E1,-9.759127617E0,1.809661865E1,1.530688667E1
1.527304344E1,-7.843074322E0,2.073111534E1,-3.287140131E0
1.528970938E1,-2.745764017E0,2.791107941E1,-1.217139149E1
1.530637531E1,5.959623814E0,3.599074554E1,3.750749528E-1
1.532304125E1,1.974856377E1,4.346502686E1,1.914527321E1
1.533970719E1,5.282006454E1,4.445385742E1,3.354109192E1
1.535637313E1,7.773652649E1,2.948615456E1,3.843920135E1
1.537303906E1,7.817351532E1,1.126421213E0,2.461077881E1
1.538970500E1,6.243861389E1,-1.977279091E1,9.166903496E0
1.540637094E1,3.426342392E1,-2.824128914E1,1.365404367E0
1.542303688E1,1.549292850E1,-3.031676292E1,4.235296249E0
1.543970281E1,-3.020938672E-2,-3.343371582E1,1.255334568E1
1.545636875E1,-1.398515129E1,-3.763969803E1,1.280638695E1
1.547303469E1,-2.093330956E1,-4.308785629E1,3.646661758E0
1.548970063E1,-2.561905479E1,-4.387987900E1,-5.331807137E0
1.550636656E1,-1.989392662E1,-4.717629242E1,-3.450151205E0
1.552303250E1,-3.553341627E0,-5.114718246E1,2.419741869E0
1.553969844E1,1.205384445E1,-5.124738312E1,5.781358719E0
1.555636438E1,1.742124367E1,-4.824259567E1,7.573882103E0
1.557303031E1,2.260439682E1,-4.172993088E1,6.950850487E0
1.558969625E1,3.248376465E1,-3.398735428E1,6.957430840E0
1.560636219E1,5.280899811E1,-2.562623405E1,1.755942917E1
1.562302813E1,7.303522491E1,-9.990333557E0,3.584777451E1
1.563969406E1,7.838977051E1,7.196712971E0,3.097449112E1
1.565636000E1,7.099654388E1,1.657597923E1,8.595019341E0
1.567302594E1,4.041148376E1,2.114238358E1,-3.086741269E-1
1.568969188E1,2.008116531E1,2.231785774E1,9.620942116E0
1.570635781E1,9.732806206E0,2.152553368E1,1.844058609E1
1.572302375E1,1.265803218E0,2.210758781E1,1.827159309E1
1.573968969E1,-4.575675011E0,2.154198456E1,1.671954918E1
1.575635563E1,-6.665805817E0,1.684636879E1,1.430638790E1
1.577302156E1,-8.959625244E0,1.292812157E1,1.078774166E1
1.578968750E1,-1.290209961E1,1.406919861E1,5.682654858E0
1.580635344E1,-1.305075359E1,1.640010643E1,-5.473581702E-2
1.582301938E1,-9.313762665E0,1.628884125E1,-2.845365286E0
1.583968531E1,-5.382056236E0,1.712782478E1,-1.140479088E0
1.585635125E1,7.115656137E-1,1.956012917E1,2.880659342E0
1.587301719E1,9.132506371E0,2.424886513E1,7.003791809E0
1.588968313E1,2.096800613E1,2.941167831E1,1.245254803E1
1.590634906E1,3.893810272E1,2.786053085E1,1.770539284E1
1.592301500E1,5.813542175E1,1.869931030E1,2.132722855E1
1.593968094E1,6.115636063E1,6.311667919E0,2.021755600E1
1.595634688E1,4.905705261E1,-6.936493874E0,1.760399628E1
1.597301281E1,2.955674362E1,-1.478375530E1,1.509003735E1
1.598967875E1,1.450858116E1,-2.197119713E1,1.195155048E1
1.600634469E1,2.635095835E0,-2.962852859E1,4.394119740E0
1.602301062E1,-8.418249130E0,-3.378396225E1,-3.424129248E0
1.603967656E1,-1.688525200E1,-3.760889053E1,-6.534200668E0
1.605634250E1,-2.404756927E1,-4.254528427E1,-4.867300510E0
1.607300844E1,-3.130649567E1,-4.483312225E1,-4.847858906E0
1.608967438E1,-2.182792664E1,-4.590600204E1,-3.276671410E0
1.610634031E1,-3.647558928E0,-4.266731644E1,-2.995813847E0
1.612300625E1,1.031635571E1,-3.468815231E1,-6.256932259E0
1.613967219E1,1.927687836E1,-2.610360146E1,-9.618847847E0
1.615633812E1,2.889004326E1,-1.720888138E1,-7.894220829E0
1.617300406E1,3.371995544E1,-1.082961655E1,-5.063810945E-1
1.618967000E1,3.516312790E1,-6.589235306E0,9.070293427E0
1.620633594E1,4.303551483E1,-3.199502945E0,1.258176041E1
1.622300188E1,5.618856049E1,5.467300415E0,1.666989899E1
1.623966781E1,5.740441513E1,1.087149048E1,3.171776199E1
1.625633375E1,4.929513931E1,1.394058514E1,3.922285080E1
1.627299969E1,4.076801300E1,1.344168091E1,1.899153328E1
1.628966562E1,2.142802620E1,1.314766312E1,-7.839784145E0
1.630633156E1,6.887141705E0,1.564098454E1,-1.716252136E1
1.632299750E1,3.905684710E0,1.540349674E1,-4.689633369E0
1.633966344E1,2.234298229E0,1.673719597E1,1.014317513E1
1.635632938E1,3.927818298E0,1.843011856E1,1.911147499E1
1.637299531E1,8.482855797E0,1.627927017E1,1.618355751E1
1.638966125E1,9.560223579E0,1.381077385E1,1.089182949E1
1.640632719E1,9.521938324E0,1.122532940E1,9.008678436E0
1.642299312E1,1.454776382E1,7.280461788E0,1.008903790E1
1.643965906E1,2.072752762E1,1.642672777E0,1.032921696E1
1.645632500E1,2.652772903E1,-6.339185238E0,8.300103188E0
1.647299094E1,2.763889694E1,-1.472214031E1,4.867300510E0
1.648965688E1,2.398715019E1,-1.882642937E1,2.438884497E0
1.650632281E1,2.221167564E1,-1.939741707E1,2.608774900E0
1.652298875E1,2.367787743E1,-2.064916229E1,9.074181557E0
1.653965469E1,2.106820488E1,-2.274946213E1,1.192702484E1
1.655632062E1,1.052662468E1,-2.000429726E1,1.123161030E1
1.657298656E1,4.149752617E0,-1.562154293E1,6.939784050E0
1.658965250E1,2.665006161E0,-1.076351452E1,-2.757728100E-1
1.660631844E1,3.477967739E0,-6.008975983E0,-7.588537693E0
1.662298438E1,2.567498684E0,-2.400599241E0,-1.343210983E1
1.663965031E1,7.686942816E-2,2.393719912E0,-1.727438545E1
1.665631625E1,-7.381857634E-1,6.519544601E0,-1.439073467E1
1.667298219E1,5.234299600E-2,9.212067604E0,-4.420739651E0
1.668964812E1,1.088883877E1,1.013479996E1,8.281558990E0
1.670631406E1,2.440649223E1,1.182592773E1,1.246271801E1
1.672298000E1,2.390160561E1,1.164467144E1,2.426322222E0
1.673964594E1,1.318594837E1,9.919445992E0,-4.440181732E0
1.675631188E1,1.834995866E0,8.636893272E0,2.811566554E-2
1.677297781E1,-3.482454300E0,8.207680702E0,8.996713638E0
1.678964375E1,-4.577170849E0,8.418548584E0,1.445384502E1
1.680630969E1,-1.553839207E0,8.199904442E0,1.202483082E1
1.682297562E1,3.281756163E0,7.197311401E0,6.241976738E0
1.683964156E1,4.381557465E0,5.621637821E0,2.453839540E0
1.685630750E1,3.521935940E0,4.941477776E0,4.131806374E0
1.687297344E1,7.292426109E0,4.254438877E0,7.723134041E0
1.688963938E1,1.710329819E1,2.589632273E0,9.901499748E0
1.690630531E1,2.665065956E1,5.667998791E-1,7.198208809E0
1.692297125E1,2.795355225E1,-6.951149702E-1,2.019841433E0
1.693963719E1,2.067638016E1,-2.460419893E0,-6.897311211E-1
1.695630312E1,1.309591866E1,-4.889732838E0,-1.817647934E0
1.697296906E1,8.152646065E0,-7.115357399E0,-1.700100541E0
1.698963500E1,4.986941338E0,-8.291728973E0,-2.325524569E0
1.700630094E1,4.548456669E0,-8.505886078E0,-6.183950901E0
1.702296688E1,4.676472664E0,-8.577371597E0,-1.234337521E1
1.703963281E1,3.796811342E0,-8.298907280E0,-1.561077499E1
1.705629875E1,1.801496387E0,-7.862515926E0,-1.563171196E1
1.707296469E1,8.485547304E-1,-6.329015732E0,-9.100502968E0
1.708963062E1,9.978070259E-1,-3.958626032E0,1.779661775E-1
1.710629656E1,7.955836296E0,1.140778184E0,7.705487251E0
1.712296250E1,2.777020264E1,4.406083584E0,1.115743256E1
1.713962844E1,4.122803497E1,7.196115017E0,1.363161182E1
1.715629438E1,3.203779984E1,1.001904774E1,1.565713596E1
1.717296031E1,1.560239983E1,9.987342834E0,1.430279827E1
1.718962625E1,5.771488190E0,8.979066849E0,1.087089252E1
1.720629219E1,2.167000055E0,7.315456867E0,7.232306480E0
1.722295812E1,3.068794906E-1,6.184848309E0,4.141975880E0
1.723962406E1,-2.029412746E0,6.154339790E0,1.848455548E0
1.725629000E1,-3.856033802E0,6.752545357E0,5.330012441E-1
1.727295594E1,-3.955335855E0,6.899405003E0,6.789634228E-1
1.728962188E1,-3.816552162E0,6.755237579E0,3.104687452E0
1.730628781E1,-3.349353552E0,6.739085674E0,5.609972477E0
1.732295375E1,2.240878344E0,6.164509296E0,5.683551788E0
1.733961969E1,9.746564865E0,6.629314899E0,4.273581028E0
1.735628562E1,1.158634663E1,8.228617668E0,2.946162939E0
1.737295156E1,1.454237938E1,1.050568771E1,4.121337891E0
1.738961750E1,2.734547615E1,1.447089386E1,9.169296265E0
1.740628344E1,4.875376129E1,1.570499229E1,1.434287834E1
1.742294938E1,6.040979767E1,1.642732620E1,1.539542103E1
1.743961531E1,5.709543991E1,1.459143257E1,1.107428265E1
1.745628125E1,4.596702194E1,8.702695847E0,1.156570816E1
1.747294719E1,3.378725433E1,2.398804665E0,1.555753422E1
1.748961312E1,2.305065918E1,-1.122532964E0,1.834457397E1
1.750627906E1,1.699681664E1,-3.982554197E0,1.686042595E1
1.752294500E1,1.386371517E1,-6.629913330E0,1.164257812E1
1.753961094E1,9.655637741E0,-8.462217331E0,6.001797199E0
1.755627688E1,3.325724363E0,-9.469595909E0,3.214757204E0
1.757294281E1,-2.567199707E0,-1.008664513E1,2.381755829E0
1.758960875E1,-5.774778366E0,-1.088315582E1,9.963115454E-1
1.760627469E1,-5.363512039E0,-1.285693550E1,-9.406784177E-1
1.762294063E1,-3.566203117E0,-1.449841118E1,-3.629911900E0
1.763960656E1,-3.424129248E0,-1.476969814E1,-5.665904999E0
1.765627250E1,-1.663609982E0,-1.429891014E1,-5.243571758E0
1.767293844E1,8.168498278E-1,-1.410568905E1,-5.650650501E0
1.768960438E1,2.057528257E0,-1.311117268E1,-7.260721207E0
1.770627031E1,4.133601189E0,-1.175773239E1,-8.083253860E0
1.772293625E1,1.008485031E1,-1.040548801E1,-7.616055489E0
1.773960219E1,1.752862167E1,-9.084052086E0,-6.747161865E0
1.775626813E1,2.435534477E1,-5.483152866E0,-2.359323025E0
1.777293406E1,2.958456039E1,4.501497746E-1,3.933202267E0
1.778960000E1,3.518974686E1,3.946960926E0,6.762116909E0
1.780626594E1,3.710879135E1,6.112166405E0,1.778764486E0
1.782293188E1,3.238984680E1,9.328418732E0,-2.178964138E0
1.783959781E1,2.526760864E1,1.222642612E1,2.272583246E0
1.785626375E1,1.874776459E1,1.288624763E1,8.052745819E0
1.787292969E1,1.288564873E1,1.217019463E1,7.996514320E0
1.788959563E1,7.387241840E0,1.136979580E1,4.424628258E0
1.790626156E1,1.872084618E0,1.154237843E1,2.024626970E0
1.792292750E1,-3.879064560E0,1.191266727E1,1.156032443E0
1.793959344E1,-7.363313675E0,1.123609734E1,2.736491680E0
1.795625938E1,-8.338687897E0,9.160921097E0,3.896412611E0
1.797292531E1,-7.678866863E0,6.437889099E0,3.287140131E0
1.798959125E1,-5.654838085E0,5.262115955E0,1.086042404E0
1.800625719E1,-3.345764160E0,5.756234169E0,-2.886641502E0
1.802292313E1,-2.759223700E0,7.073482990E0,-7.524529934E0
1.803958906E1,-3.505784273E0,8.727222443E0,-7.688737392E0
1.805625500E1,-4.128217220E0,1.054576778E1,-1.151545882E0
1.807292094E1,2.550150633E0,1.251057434E1,5.642574787E0
1.808958688E1,1.480738449E1,1.507747459E1,9.797113419E0
1.810625281E1,2.607010269E1,1.786301994E1,1.328315639E1
1.812291875E1,2.769572639E1,1.926640892E1,1.837269020E1
1.813958469E1,3.178356361E1,1.863051796E1,2.270519447E1
1.815625063E1,4.636034012E1,1.793450546E1,2.028814507E1
1.817291656E1,6.247301102E1,1.369472218E1,1.408026600E1
1.818958250E1,6.372266006E1,5.517251015E0,1.220608711E1
1.820624844E1,5.077779007E1,-6.355337143E0,1.497877026E1
1.822291438E1,3.027937508E1,-1.328166103E1,1.587039661E1
1.823958031E1,1.227936745E1,-1.718555069E1,1.366032505E1
1.825624625E1,-3.241078377E0,-1.867568207E1,7.782356739E0
1.827291219E1,-1.403091335E1,-1.866282082E1,2.011167526E0
1.828957813E1,-2.073111534E1,-1.813819313E1,-6.421737671E-1
1.830624406E1,-2.124108696E1,-1.939322853E1,2.169692039E0
1.832291000E1,-1.476281834E1,-2.206481552E1,7.640282631E0
1.833957594E1,-7.694719315E0,-2.552872658E1,8.140681267E0
1.835624188E1,-5.443671703E0,-2.705295372E1,3.229114056E0
1.837290781E1,-7.377072334E0,-2.713849640E1,-1.405185103E0
1.838957375E1,-8.278268814E0,-2.789133835E1,-1.578664780E0
1.840623969E1,-5.115854740E0,-2.829363251E1,1.877767563E0
1.842290563E1,1.270588875E0,-2.804537773E1,3.540181160E0
1.843957156E1,8.337790489E0,-2.695484734E1,3.966103554E0
1.845623750E1,1.626969910E1,-2.488445854E1,4.674678326E0
1.847290344E1,2.713999176E1,-2.067488480E1,3.899702787E0
1.848956938E1,4.054309082E1,-1.443201065E1,4.319643021E0
1.850623531E1,5.440142059E1,-1.029990482E1,1.225185013E1
1.852290125E1,6.564738464E1,-7.128517628E0,2.492603302E1
1.853956719E1,6.193851471E1,6.412764788E-1,2.196581268E1
1.855623313E1,5.156203842E1,5.886642933E0,1.126780224E1
1.857289906E1,3.612713623E1,1.004596710E1,5.854638577E0
1.858956500E1,1.876331902E1,1.379222965E1,5.835496426E0
1.860623094E1,6.092724800E-1,2.014098549E1,5.084149837E0
1.862289688E1,-1.186182022E1,2.542463875E1,1.838585138E0
1.863956281E1,-1.307288742E1,2.532084846E1,3.270091295E0
1.865622875E1,-9.212367058E0,2.160270119E1,8.087141991E0
1.867289469E1,-6.613163471E0,2.021755600E1,7.628019333E0
1.868956063E1,-7.596912861E0,2.113640022E1,9.002995491E-1
1.870622656E1,-1.013240719E1,2.338146591E1,-3.855136395E0
1.872289250E1,-6.268896103E0,2.576711082E1,1.334895968E0
1.873955844E1,7.340880871E0,2.683610344E1,1.502154255E1
1.875622438E1,2.466671181E1,2.657229614E1,2.606292343E1
1.877289031E1,4.237599182E1,2.423570442E1,2.897947502E1
1.878955625E1,5.333392334E1,1.848724747E1,2.955285454E1
1.880622219E1,5.803881073E1,7.907082558E0,3.213381195E1
1.882288813E1,5.594987488E1,-5.798407555E0,2.967548752E1
1.883955406E1,4.902384949E1,-1.464586926E1,2.204956245E1
1.885622000E1,4.106980896E1,-2.303181458E1,1.565534115E1
1.887288594E1,2.658395958E1,-2.814228630E1,9.380164146E0
1.888955188E1,9.489336014E0,-2.792124939E1,5.331807137E0
1.890621781E1,-5.401198864E0,-2.429133797E1,2.814856768E0
1.892288375E1,-1.320479202E1,-2.256312180E1,-2.046162367E0
1.893954969E1,-1.495693588E1,-2.550778770E1,-3.503391504E0
1.895621563E1,-1.440299797E1,-3.096252632E1,1.095015407E0
1.897288156E1,-1.745564079E1,-3.664817429E1,4.030111313E0
1.898954750E1,-2.382982254E1,-3.966462326E1,3.084348440E0
1.900621344E1,-2.286461639E1,-4.129922104E1,5.296513081E0
1.902287938E1,-1.419960785E1,-4.378626251E1,1.150678539E1
1.903954531E1,-3.231507063E0,-4.561168671E1,1.369262886E1
1.905621125E1,7.011568546E0,-4.627180481E1,1.067228794E1
1.907287719E1,1.879681778E1,-4.484269333E1,6.961618423E0
1.908954313E1,3.479882050E1,-4.145684814E1,7.843672752E0
1.910620906E1,4.548157501E1,-3.821397400E1,1.593978786E1
1.912287500E1,5.725246811E1,-3.120300484E1,3.522683716E1
1.913954094E1,7.337919617E1,-1.748674774E1,4.518875504E1
1.915620688E1,7.680721283E1,-3.427718401E0,2.970689392E1
1.917287281E1,5.771667862E1,5.435296535E0,1.325175095E1
1.918953875E1,3.625215912E1,1.070040417E1,1.193928814E1
1.920620469E1,2.264208412E1,1.926072693E1,1.710509300E1
1.922287063E1,1.724716568E1,2.381606293E1,1.847169304E1
1.923953656E1,1.302144146E1,2.087707901E1,1.421785259E1
1.925620250E1,5.288437366E0,1.926401711E1,9.081659317E0
1.927286844E1,-2.389831543E0,1.973360825E1,4.465904236E0
1.928953438E1,-8.011170387E0,1.914018822E1,-4.842474759E-1
1.930620031E1,-1.140030479E1,1.765334892E1,-2.344367981E0
1.932286625E1,-9.105886459E0,1.819203186E1,2.728415966E0
1.933953219E1,3.203092098E0,1.980808449E1,8.323134422E0
1.935619813E1,1.732762527E1,2.155813599E1,7.908577919E0
1.937286406E1,2.421356964E1,2.176541328E1,9.000303268E0
1.938953000E1,3.051865768E1,2.198435783E1,1.904208183E1
1.940619594E1,4.576213455E1,1.735903168E1,2.939762115E1
1.942286188E1,6.603951263E1,1.116251707E0,2.977748108E1
1.943952781E1,6.725775909E1,-1.428006649E1,1.621167183E1
1.945619375E1,5.276802063E1,-2.124796677E1,7.650452137E0
1.947285969E1,3.451347733E1,-2.459612274E1,1.029212856E1
1.948952563E1,1.665942955E1,-2.409602356E1,1.643659782E1
1.950619156E1,3.372982502E0,-2.229153633E1,1.403809261E1
1.952285750E1,-5.294120312E0,-2.133530426E1,5.458925724E0
1.953952344E1,-1.178794193E1,-2.060130501E1,-7.660023570E-1
1.955618938E1,-1.392592907E1,-2.400928307E1,-8.279166222E-1
1.957285531E1,-1.521536064E1,-2.753331375E1,1.415952802E0
1.958952125E1,-1.948804474E1,-3.131217766E1,-7.995018363E-1
1.960618719E1,-2.320110703E1,-3.649413300E1,-7.517650604E0
1.962285313E1,-2.002972031E1,-4.031487274E1,-9.328418732E0
1.963951906E1,-6.954440117E0,-4.384009933E1,-6.837490797E-1
1.965618500E1,4.295116425E0,-4.370341110E1,6.526124477E0
1.967285094E1,1.049103165E1,-4.135874176E1,2.609373093E0
1.968951688E1,2.518834686E1,-3.774946976E1,2.065304995E0
1.970618281E1,4.477030945E1,-3.572484207E1,9.034700394E0
1.972284875E1,6.708457947E1,-2.949153900E1,2.235345078E1
1.973951469E1,7.834998322E1,-1.753191185E1,3.202224731E1
1.975618063E1,7.337799835E1,-3.445664644E0,2.525026131E1
1.977284656E1,4.447300339E1,4.044468403E0,1.306959724E1
1.978951250E1,2.027767563E1,8.634799957E0,7.100102901E0
1.980617844E1,1.042343426E1,1.125464153E1,9.760323524E0
1.982284438E1,8.900103569E0,1.296042442E1,1.197996521E1
1.983951031E1,8.058727264E0,1.263500118E1,9.284152031E0
1.985617625E1,4.591228485E0,1.137099266E1,5.255835056E0
1.987284219E1,-9.810572863E-2,1.052034378E1,3.074178934E0
1.988950813E1,-4.058825493E0,1.065703392E1,3.559921980E0
1.990617406E1,-5.519942760E0,1.084935665E1,4.979164600E0
1.992284000E1,-4.240081787E0,1.063819027E1,6.766005039E0
1.993950594E1,2.056331873E0,1.071206856E1,8.939884186E0
1.995617188E1,1.229013538E1,1.088405323E1,7.552944660E0
1.997283781E1,1.829432487E1,1.055832958E1,2.821736097E0
1.998950375E1,1.505055523E1,9.653543472E0,-2.221436739E0
2.000616969E1,9.825228691E0,9.023932457E0,-3.923630953E0
2.002283563E1,6.482455730E0,8.646763802E0,-7.298108935E-1
2.003950156E1,4.714159489E0,8.056633949E0,5.409573555E0
2.005616750E1,5.016552448E0,6.379863262E0,1.123280716E1
2.007283344E1,6.438786507E0,3.757628918E0,1.459322739E1
2.008949938E1,1.024068260E1,-8.039883971E-1,1.529133320E1
2.010616531E1,1.425793266E1,-9.415757179E0,1.692084503E1
2.012283125E1,3.276731491E1,-1.923440552E1,2.095185471E1
2.013949719E1,4.922335434E1,-2.107328987E1,1.810349846E1
2.015616313E1,4.841906357E1,-2.407658195E1,7.448856831E0
2.017282906E1,2.824308395E1,-2.239741898E1,-2.208575249E0
2.018949500E1,5.404190063E0,-1.740120506E1,-3.319742203E0
2.020616094E1,-4.456333160E0,-1.391845131E1,-1.100997567E0
2.022282688E1,-6.659225464E0,-1.281206989E1,-1.709372640E0
2.023949281E1,-8.474480629E0,-1.254556942E1,-5.900401592E0
2.025615875E1,-1.195962715E1,-1.272204018E1,-9.834501266E0
2.027282469E1,-1.605554008E1,-1.331635666E1,-1.184058380E1
2.028949063E1,-1.802393723E1,-1.415384483E1,-1.293410397E1
2.030615656E1,-1.555603886E1,-1.516600895E1,-1.245972633E1
2.032282250E1,-1.176132107E1,-1.573191166E1,-1.144816113E1
2.033948844E1,-7.275676250E0,-1.722921944E1,-8.548956871E0
2.035615438E1,1.573280841E-1,-1.901037788E1,-4.456632137E0
2.037282031E1,1.451904964E1,-2.332134628E1,6.400800496E-2
2.038948625E1,3.778775406E1,-1.985055733E1,6.942176819E0
2.040615219E1,5.980561066E1,-1.536880112E1,1.358196068E1
2.042281813E1,6.343642044E1,-1.251356506E1,1.868674850E1
2.043948406E1,5.009703064E1,-5.691029549E0,2.105982971E1
2.045615000E1,3.110071182E1,-9.780662507E-2,1.906152344E1
2.047281594E1,1.299930859E1,1.765604019E0,1.078774166E1
2.048948188E1,2.606681108E0,2.965006351E0,1.421336651E0
2.050614781E1,5.650052428E-1,4.625924587E0,-4.057629108E0
2.052281375E1,1.555633783E0,5.874977589E0,-5.808577061E0
2.053947969E1,2.138884306E0,6.961319447E0,-4.748257637E0
2.055614563E1,2.436491728E0,7.556832790E0,-2.686242580E0
2.057281156E1,3.011666298E0,7.593323708E0,-1.035493970E0
2.058947750E1,2.830410004E0,7.242475986E0,5.464608669E-1
2.060614344E1,1.974078655E0,6.641279221E0,1.767398596E0
2.062280938E1,1.005583763E0,5.848656654E0,2.314158678E0
2.063947531E1,1.114457130E0,5.013860703E0,2.850749016E0
2.065614125E1,1.857727647E0,4.292723656E0,3.187239647E0
2.067280719E1,3.022135019E0,3.397808075E0,2.775674343E0
2.068947313E1,4.723731041E0,2.366202593E0,2.883351326E0
2.070613906E1,6.125626087E0,1.691426516E0,4.113262177E0
2.072280500E1,8.953942299E0,-1.322034478E0,6.390331745E0
2.073947094E1,1.094895840E1,-4.383950233E0,7.472486019E0
2.075613688E1,2.352383995E1,-5.046463013E0,1.002592659E1
2.077280281E1,3.743331909E1,-5.874977589E0,1.643779373E1
2.078946875E1,4.110091782E1,-8.641080856E0,2.216232300E1
2.080613469E1,3.633172226E1,-1.037408257E1,2.272702980E1
2.082280063E1,2.644188690E1,-1.130399323E1,1.724238014E1
2.083946656E1,1.477268887E1,-1.130997562E1,7.976773262E0
2.085613250E1,4.193421841E0,-9.729516029E0,-2.097608089E0
2.087279844E1,-1.470090389E0,-7.622934818E0,-7.573882103E0
2.088946438E1,-3.564707518E0,-6.134599209E0,-8.682356834E0
2.090613031E1,-3.961616993E0,-5.746961594E0,-7.674380302E0
2.092279625E1,-4.153940201E0,-5.807081223E0,-6.091827393E0
2.093946219E1,-3.317947626E0,-5.564808369E0,-4.131507397E0
2.095612813E1,-2.005185366E0,-4.797609329E0,-3.400201082E0
2.097279406E1,-5.766702294E-1,-4.314558506E0,-4.726422787E0
2.098946000E1,3.320041299E-2,-4.944169998E0,-6.163013935E0
2.100612594E1,-1.914258115E-2,-4.988137722E0,-5.934499264E0
2.102279188E1,1.866102576E0,-5.446961880E0,-4.770390987E0
2.103945781E1,5.155635357E0,-4.504787922E0,-2.398505688E0
2.105612375E1,1.350269794E1,-1.722533226E0,4.689932346E0
2.107278969E1,2.581945419E1,-2.198405743E0,1.417268848E1
2.108945563E1,3.338615799E1,-3.188436031E-1,2.481087875E1
2.110612156E1,3.822773361E1,-4.187439568E-3,3.447489166E1
2.112278750E1,3.421886063E1,5.186443329E-1,3.084408188E1
2.113945344E1,2.275275230E1,4.070789516E-1,1.653051567E1
2.115611938E1,1.252523041E1,1.570588946E0,1.770090580E0
2.117278531E1,6.629614353E0,3.488436222E0,-6.757630348E0
2.118945125E1,3.695116282E0,4.998905659E0,-8.887541771E0
2.120611719E1,2.127518415E0,4.998606682E0,-6.498308182E0
2.122278313E1,7.480561733E-1,4.030111313E0,-2.514856577E0
2.123944906E1,-2.772683203E-1,3.169891834E0,6.511468887E-1
2.125611500E1,-8.285148144E-1,2.660818815E0,3.244368315E0
2.127278094E1,-7.692924738E-1,2.246262312E0,4.967200756E0
2.128944688E1,-8.967102766E-1,2.129911184E0,5.080859661E0
2.130611281E1,-1.406680584E0,2.123630047E0,3.803092480E0
2.132277875E1,-1.758724689E0,2.047358990E0,1.950150490E0
2.133944469E1,-1.700399637E0,2.117947102E0,6.687939167E-1
2.135611063E1,-1.096211910E0,2.622533560E0,2.533400953E-1
2.137277656E1,2.673979402E-1,3.779463291E0,1.176670551E0
2.138944250E1,2.314756870E0,5.565107346E0,3.473780155E0
2.140610844E1,6.220441341E0,7.362117290E0,7.058527470E0
2.142277438E1,1.456002712E1,4.249054909E0,1.210349560E1
2.143944031E1,2.418455696E1,4.863412082E-1,1.472273827E1
2.145610625E1,3.255973434E1,1.860419661E-1,1.405753422E1
2.147277219E1,3.663800430E1,-5.733801126E-1,1.196261787E1
2.148943813E1,3.630181122E1,-1.296610713E0,1.075603676E1
2.150610406E1,3.196063232E1,-1.360917926E0,9.828518867E0
2.152277000E1,2.481805801E1,-1.909472466E0,8.037490845E0
2.153943594E1,1.711227036E1,-2.072782516E0,5.929115295E0
2.155610188E1,1.065494061E1,-1.992024899E0,4.963013172E0
2.157276781E1,6.156433582E0,-1.643869162E0,4.379762650E0
2.158943375E1,3.225524902E0,-1.291825175E0,3.653840065E0
2.160609969E1,1.481456280E0,-1.039681435E0,2.702992201E0
2.162276563E1,6.735795736E-1,-5.374878049E-1,2.003988981E0
2.163943156E1,3.795614839E-1,-2.524427772E-1,1.377667665E0
2.165609750E1,1.785643846E-1,9.002995491E-2,1.069890857E0
2.167276344E1,7.301099896E-1,1.052841991E-1,1.167996526E0
2.168942938E1,1.643869162E0,2.171486616E-1,1.685743570E0
2.170609531E1,3.081058264E0,1.124626622E-1,1.913360834E0
2.172276125E1,4.208376884E0,3.026920557E-1,1.897209287E0
2.173942719E1,4.426123619E0,3.918247223E-1,1.178166032E0
2.175609312E1,4.118646145E0,7.722834945E-1,2.362912335E-2
2.177275906E1,3.356232882E0,1.641476393E0,-6.699903607E-1
2.178942500E1,2.501097918E0,3.378665686E0,-1.130010486E0
2.180609094E1,2.259721994E0,4.514358997E0,-1.955534339E0
2.182275688E1,2.300100803E0,5.176572800E0,-2.470589429E-1
2.183942281E1,3.530011654E0,7.623832226E0,6.523432732E0
2.185608875E1,6.710670948E0,9.406186104E0,1.600678635E1
2.187275469E1,1.012911701E1,7.995317936E0,2.165295029E1
2.188942062E1,1.174158096E1,5.611767292E0,1.974108505E1
2.190608656E1,1.084935665E1,4.366602421E0,1.401117325E1
2.192275250E1,8.646464348E0,3.391227961E0,8.715258598E0
2.193941844E1,5.709573746E0,3.423531055E0,6.497709751E0
2.195608438E1,3.534498215E0,4.087838173E0,5.021637440E0
2.197275031E1,1.735095501E0,4.956732273E0,4.183252335E0
2.198941625E1,6.394818425E-1,4.827220440E0,3.281457186E0
2.200608219E1,7.151548862E-1,3.847658873E0,3.834199190E0
2.202274812E1,1.329811215E0,4.389334202E0,1.042732334E1
2.203941406E1,1.365703583E0,4.267001152E0,1.003818989E1
2.205608000E1,1.341177106E0,4.363012791E0,7.024729252E0
2.207274594E1,1.266700506E0,4.526921272E0,4.778466702E0
2.208941188E1,3.329014480E-1,3.210868835E0,4.742275238E0
2.210607781E1,-1.054935694E0,1.892124534E0,6.512365818E0
2.212274375E1,7.615157962E-1,1.534098387E0,8.722735405E0
2.213940969E1,2.115853310E0,4.175774574E0,8.998209953E0
2.215607562E1,4.962115884E-1,3.668496132E0,6.888936520E0
2.217274156E1,-1.682154298E0,3.148954630E0,5.685047626E0
2.218940750E1,-2.823231697E0,2.810370207E0,5.577370644E0
2.220607344E1,-7.354938388E-1,2.797508717E0,5.903392792E0
2.222273938E1,2.018345833E0,4.623830795E0,7.431210041E0
2.223940531E1,1.577169180E0,3.901198149E0,1.043001461E1
2.225607125E1,2.310868502E0,2.745464802E0,1.165723324E1
2.227273719E1,1.635793328E0,3.583251953E0,9.119645119E0
2.228940312E1,-9.891330600E-1,4.699204445E0,5.323731422E0
2.230606906E1,3.318545818E0,1.544267893E0,9.619745255E0
2.232273500E1,7.515257835E0,-1.007378340E0,1.173320580E1
2.233940094E1,8.785846710E0,2.330010980E-1,1.285364532E1
2.235606688E1,7.453044415E0,1.019940615E0,1.221057415E1
2.237273281E1,4.838586330E0,1.403091431E0,1.256441307E1
2.238939875E1,2.021037817E0,2.137687922E0,1.310519028E1
2.240606469E1,1.619940877E0,3.135794163E0,1.297537994E1
2.242273062E1,2.980559587E0,2.544467688E0,1.301665592E1
2.243939656E1,2.836990356E0,1.687239051E0,1.332054424E1
2.245606250E1,2.025524378E0,1.754537225E0,1.416281796E1
2.247272844E1,1.651346684E0,1.814357758E0,1.392233944E1
2.248939438E1,1.551446438E0,1.421037555E0,1.440000629E1
2.250606031E1,2.384746790E0,1.209571838E0,1.419242954E1
2.252272625E1,3.834199190E0,1.332503080E0,1.312552929E1
2.253939219E1,4.258028030E0,1.448255897E0,1.125523949E1
2.255605812E1,3.031407118E0,1.462014675E0,9.442078590E0
2.257272406E1,2.239981174E0,1.201496124E0,8.530412674E0
2.258939000E1,2.406581402E0,1.036391258E0,8.536693573E0
2.260605594E1,3.344567776E0,1.219143152E0,8.703593254E0
2.262272188E1,3.690629721E0,1.656132340E0,8.427820206E0
2.263938781E1,3.087040424E0,1.885544300E0,8.020741463E0
2.265605375E1,2.674577475E0,1.950449586E0,7.942974567E0
2.267271969E1,2.185843468E0,2.086840391E0,8.052745819E0
2.268938562E1,1.401595831E0,2.432603359E0,8.593822479E0
2.270605156E1,1.421934843E0,2.436790705E0,9.640084267E0
2.272271750E1,1.426421404E0,2.967997313E0,9.903594017E0
2.273938344E1,2.263011932E0,3.494418383E0,8.720342636E0
2.275604938E1,2.545365095E0,3.589533091E0,8.312366486E0
2.277271531E1,2.715255499E0,3.342175007E0,8.334500313E0
2.278938125E1,2.519642353E0,3.419044495E0,8.532805443E0
2.280604719E1,2.083550215E0,3.590131283E0,8.824729919E0
2.282271312E1,1.451845169E0,3.520141125E0,9.151051521E0
2.283937906E1,1.561017632E0,3.308974504E0,9.007481575E0
2.285604500E1,2.260918379E0,3.448356628E0,8.468498230E0
2.287271094E1,2.492124796E0,3.627219915E0,8.151748657E0
2.288937688E1,2.235793591E0,3.678964853E0,8.380861282E0
2.290604281E1,1.975873351E0,3.693022728E0,8.794520378E0
2.292270875E1,2.245065928E0,4.086941242E0,8.921639442E0
2.293937469E1,2.303091764E0,4.308576107E0,8.841778755E0
2.295604062E1,2.108973980E0,4.237689018E0,8.768797874E0
2.297270656E1,2.194517374E0,4.167997837E0,8.154440880E0
2.298937250E1,2.386242390E0,4.240679741E0,5.925227165E0
2.300603844E1,2.400001049E0,4.136891365E0,8.892327309E0
2.302270438E1,2.201097727E0,3.340978622E0,1.078056335E1
2.303937031E1,2.521137714E0,3.386143208E0,1.045902824E1
2.305603625E1,2.424527645E0,3.758825302E0,9.604191780E0
2.307270219E1,2.712563515E0,3.596412420E0,8.997611046E0
2.308936812E1,2.807080030E0,3.916452408E0,7.444968700E0
