"Time (s)","Gyroscope x (rad/s)","Gyroscope y (rad/s)","Gyroscope z (rad/s)"
2.371062500E-2,-1.631314397E0,-1.043967962E0,5.936078429E-1
4.037656300E-2,-1.421406031E0,-9.345467687E-1,5.468003154E-1
5.704250000E-2,-1.232267022E0,-7.300597429E-1,3.627773225E-1
7.370843800E-2,-1.170569658E0,-5.480220914E-1,5.986474827E-2
9.037437500E-2,-1.264108300E0,-2.436586916E-1,-1.487455666E-1
1.070403130E-1,-1.407966971E0,-6.864593178E-2,-1.998291463E-1
1.237062500E-1,-1.527772784E0,1.250745654E-1,-2.380081862E-1
1.403721880E-1,-1.538691998E0,1.903607398E-1,-1.699731201E-1
1.570381250E-1,-1.200654745E0,1.735619605E-1,-1.893680729E-2
1.737040630E-1,-5.517635942E-1,1.239291951E-1,6.169734150E-2
1.903700000E-1,1.203403622E-1,1.859319657E-1,-1.155297980E-1
2.070359380E-1,5.190823674E-1,2.860374451E-1,-4.582249522E-1
2.237018750E-1,5.914698243E-1,8.422297984E-2,-6.666825414E-1
2.403678130E-1,5.398517251E-1,-3.388008773E-1,-5.519163013E-1
2.570337500E-1,6.572905183E-1,-8.128319383E-1,-2.012799382E-1
2.736996880E-1,9.472221732E-1,-1.056643367E0,3.634645417E-2
2.903656250E-1,1.142546177E0,-8.265764117E-1,-5.100720748E-2
3.070315630E-1,9.465349913E-1,-4.844921231E-1,-4.676169753E-1
3.236975000E-1,2.665661275E-1,-7.377719283E-1,-9.159153700E-1
3.403634380E-1,-6.078867912E-1,-1.403843641E0,-1.102916360E0
3.570293750E-1,-1.050076604E0,-1.543655276E0,-1.024267554E0
3.736953130E-1,-1.010064960E0,-1.012279272E0,-8.956804872E-1
3.903612500E-1,-9.179770350E-1,-1.649334878E-1,-8.499419689E-1
4.070271880E-1,-1.063591957E0,5.442041755E-1,-8.365029693E-1
4.236931250E-1,-1.400254846E0,9.210313559E-1,-9.180533886E-1
4.403590630E-1,-1.724013090E0,8.552106619E-1,-1.154534459E0
4.570250000E-1,-1.749058604E0,2.923751473E-1,-1.404454470E0
4.736909380E-1,-1.441182733E0,-3.171151876E-1,-1.614362955E0
4.903568750E-1,-9.275218248E-1,-3.780489266E-1,-1.868177176E0
5.070228130E-1,-4.508182108E-1,-2.993237376E-1,-1.884365082E0
5.236887500E-1,-1.455385387E-1,5.780307949E-2,-1.615202785E0
5.403546880E-1,-6.803506613E-2,2.187659442E-1,-1.344589710E0
5.570206250E-1,-1.434768587E-1,-9.605848789E-2,-1.348025799E0
5.736865630E-1,-2.919933498E-1,-2.641990185E-1,-1.535485029E0
5.903525000E-1,-5.139663815E-1,-3.749946058E-1,-1.360090375E0
6.070184380E-1,-3.966039717E-1,-3.469711840E-1,-5.807796717E-1
6.236843750E-1,-3.130681813E-2,-8.058069944E-1,2.962694131E-2
6.403503130E-1,-2.034943253E-1,-2.764163017E-1,5.915461779E-1
6.570162500E-1,-6.687442064E-1,-1.614973694E-1,1.315420985E0
6.736821880E-1,-1.012050271E0,1.318704337E-1,1.485165000E0
6.903481250E-1,-4.385245442E-1,5.984947681E-1,1.367344499E0
7.070140630E-1,5.118283033E-1,8.443678617E-1,1.530445337E0
7.236800000E-1,1.053512692E0,1.088026524E0,1.844658971E0
7.403459380E-1,1.110246778E0,1.003574491E0,2.113210440E0
7.570118750E-1,9.231693745E-1,4.598284662E-1,2.051894903E0
7.736778130E-1,7.456368208E-1,-1.306487024E-1,1.671555161E0
7.903437500E-1,6.713404059E-1,-4.612792730E-1,1.133535981E0
8.070096880E-1,6.806560755E-1,-3.507127464E-1,5.952877402E-1
8.236756250E-1,7.400626540E-1,7.689260691E-2,2.610683441E-1
8.403415630E-1,9.058361053E-1,5.784889460E-1,2.332739830E-1
8.570075000E-1,1.131168842E0,7.983239293E-1,3.917934000E-1
8.736734380E-1,1.323514938E0,7.726675868E-1,5.154171586E-1
8.903393750E-1,1.411555767E0,6.266708970E-1,5.170207024E-1
9.070053130E-1,1.402774572E0,4.226420820E-1,4.083631039E-1
9.236712500E-1,1.453476429E0,2.617555559E-1,2.215148360E-1
9.403371880E-1,1.626351118E0,1.831067204E-1,-3.932442144E-2
9.570031250E-1,1.784335971E0,1.924224049E-1,-3.246746361E-1
9.736690630E-1,1.866650105E0,2.196822464E-1,-4.538725317E-1
9.903350000E-1,1.875202179E0,9.269873053E-2,-2.969566286E-1
1.007000938E0,1.803196430E0,-1.369100660E-1,5.658135191E-2
1.023666875E0,1.860006928E0,-8.048143238E-2,2.665661275E-1
1.040332813E0,1.860312343E0,-2.567922771E-1,4.222602770E-2
1.056998750E0,1.501200199E0,-1.156290650E0,-4.567741454E-1
1.073664688E0,8.575014472E-1,-1.988288522E0,-8.388700485E-1
1.090330625E0,1.061377525E-1,-2.571664333E0,-9.825760126E-1
1.106996563E0,-6.488910913E-1,-3.071733475E0,-1.125671029E0
1.123662500E0,-1.301676512E0,-2.987739563E0,-1.247920394E0
1.140328438E0,-1.778761864E0,-2.854036570E0,-9.812778831E-1
1.156994375E0,-1.829234600E0,-1.780059934E0,-5.171734095E-1
1.173660313E0,-1.749211311E0,-7.883210182E-1,4.676169753E-1
1.190326250E0,-1.795637012E0,-2.677878439E-1,1.370933294E0
1.206992188E0,-1.779449105E0,1.046869516E0,1.677434683E0
1.223658125E0,-2.018602610E0,2.575558662E0,1.174998403E0
1.240324063E0,-2.412992239E0,4.084241867E0,1.430950761E-1
1.256990000E0,-2.515846491E0,3.955273151E0,-9.480621219E-1
1.273655938E0,-1.920864344E0,2.728885651E0,-1.051680088E0
1.290321875E0,-8.730021119E-1,1.466609955E0,-5.825359225E-1
1.306987813E0,2.658025324E-1,1.002429128E0,-2.738964856E-1
1.323653750E0,1.459585071E0,1.604741812E0,-1.018617004E-1
1.340319688E0,2.611217976E0,2.697960615E0,1.147662178E-1
1.356985625E0,3.522322655E0,3.796829939E0,5.405389667E-1
1.373651563E0,3.871966362E0,2.846171618E0,1.110857606E0
1.390317500E0,2.761414289E0,1.686750352E-1,9.104176164E-1
1.406983438E0,2.113515854E0,3.672824427E-2,1.153159976E0
1.423649375E0,1.732946992E0,4.156171381E-1,1.331227064E0
1.440315313E0,1.506774306E0,1.326569200E0,1.313282967E0
1.456981250E0,1.450422049E0,1.674304008E0,1.451338410E0
1.473647188E0,1.416977167E0,1.159650445E0,1.779449105E0
1.490313125E0,1.241124511E0,-8.399390499E-4,1.772195101E0
1.506979063E0,9.514982700E-1,-6.300306916E-1,1.072449446E0
1.523645000E0,5.091558099E-1,-8.656717539E-1,4.780016840E-1
1.540310938E0,-2.047924101E-1,-6.877573729E-1,2.365573794E-1
1.556976875E0,-8.507819176E-1,-4.825068116E-1,4.580722153E-1
1.573642813E0,-1.159039617E0,-3.892735839E-1,8.147408962E-1
1.590308750E0,-1.180648923E0,-4.299724400E-1,9.482148290E-1
1.606974688E0,-1.132619619E0,-4.034761786E-1,6.763800383E-1
1.623640625E0,-1.090546370E0,-2.085339576E-1,1.454621702E-1
1.640306563E0,-1.039539099E0,-1.066722646E-1,-1.793651730E-1
1.656972500E0,-7.402154207E-1,-2.300669402E-1,-1.632536054E-1
1.673638438E0,-2.046397030E-1,-6.426297426E-1,-7.498364896E-2
1.690304375E0,1.087339297E-1,-9.371429086E-1,-1.731801629E-1
1.706970313E0,-1.069776937E-1,-1.096120477E0,-3.651444316E-1
1.723636250E0,-3.987419903E-1,-1.002887249E0,-6.299542785E-1
1.740302188E0,-3.433823586E-1,-8.854485154E-1,-8.454368711E-1
1.756968125E0,-6.192641705E-2,-5.919279456E-1,-9.629519582E-1
1.773634063E0,2.658025324E-1,-1.430950761E-1,-8.006146550E-1
1.790300000E0,5.128973126E-1,1.107192412E-2,-3.367392123E-1
1.806965938E0,6.706531644E-1,5.441278219E-1,1.294269711E-1
1.823631875E0,8.468876481E-1,8.167262077E-1,1.906661689E-1
1.840297813E0,1.177060127E0,7.195223570E-1,1.737146676E-1
1.856963750E0,1.663155675E0,6.436987519E-1,3.541488647E-1
1.873629688E0,2.076787472E0,6.369028687E-1,7.057778835E-1
1.890295625E0,2.129550934E0,4.391354322E-1,9.687551856E-1
1.906961563E0,1.656970739E0,2.251036763E-1,7.012727857E-1
1.923627500E0,7.709113359E-1,6.686678529E-1,4.751764536E-1
1.940293438E0,-2.793179154E-1,5.306887627E-1,1.327103674E-1
1.956959375E0,-9.426407218E-1,2.616028488E-1,-6.520981342E-2
1.973625313E0,-1.017242551E0,-1.225547493E-1,1.693622619E-1
1.990291250E0,-4.470766485E-1,-2.129627317E-1,4.302778840E-1
2.006957188E0,3.316232264E-1,1.839466542E-1,4.240928590E-1
2.023623125E0,7.686206102E-1,1.146898642E-1,3.365101218E-1
2.040289063E0,5.125155449E-1,-2.064722925E-1,6.834049523E-2
2.056955000E0,-9.422589093E-2,-3.795761168E-1,-4.195113778E-1
2.073620938E0,-4.702131748E-1,-4.588358104E-1,-6.608793139E-1
2.090286875E0,-4.838049114E-1,-2.646571696E-1,-6.348412037E-1
2.106952813E0,-3.189477623E-1,-1.408043355E-1,-6.262127757E-1
2.123618750E0,-9.040798992E-2,-8.559742570E-2,-7.128791809E-1
2.140284688E0,-4.138609022E-2,-2.390008420E-1,-8.326086998E-1
2.156950625E0,-1.845575273E-1,-6.419425011E-1,-9.863939285E-1
2.173616563E0,-1.902843714E-1,-8.728494048E-1,-9.734130502E-1
2.190282500E0,-2.987892330E-1,3.133736253E-1,-7.759509683E-1
2.206948438E0,-1.832594397E-3,1.566486359E0,-3.397171795E-1
2.223614375E0,7.169261575E-1,1.371238708E0,-5.749764666E-2
2.240280313E0,9.085850120E-1,6.864593029E-1,-1.760817766E-1
2.256946250E0,8.659771681E-1,3.227656782E-1,-1.459203213E-1
2.273612188E0,7.499892116E-1,5.009091273E-2,1.023198515E-1
2.290278125E0,8.147408962E-1,1.417969912E-1,3.707185686E-1
2.306944063E0,9.875392914E-1,3.766745031E-1,4.618901312E-1
2.323610000E0,1.036561131E0,4.273762703E-1,3.889681399E-1
2.340275938E0,8.186351657E-1,2.954294682E-1,3.254382014E-1
2.356941875E0,5.325977206E-1,-4.932733253E-2,2.550360560E-1
2.373607813E0,3.289506733E-1,-3.203222156E-1,2.709185183E-1
2.390273750E0,2.527453005E-1,-4.335612655E-1,3.391826749E-1
2.406939688E0,2.645808160E-1,-5.057196617E-1,5.960513353E-1
2.423605625E0,3.828594983E-1,-3.094030023E-1,6.446914077E-1
2.440271563E0,4.455494881E-1,3.191768378E-2,4.813614488E-1
2.456937500E0,2.668715417E-1,1.527161989E-2,2.544251680E-1
2.473603438E0,-1.737146676E-1,-1.837175786E-1,7.742711157E-2
2.490269375E0,-6.757691503E-1,-2.087630332E-1,2.489273995E-2
2.506935313E0,-9.707404971E-1,1.267544460E-2,6.490438245E-3
2.523601250E0,-8.168025613E-1,2.785543501E-1,-9.514218569E-2
2.540267188E0,-3.005454838E-1,5.222130418E-1,-1.421024203E-1
2.556933125E0,2.654971182E-1,5.175551772E-1,-9.605848789E-2
2.573599063E0,5.981893539E-1,-2.290742996E-4,-8.918625861E-2
2.590265000E0,6.327031851E-1,-6.511055231E-1,-7.857248187E-2
2.606930938E0,3.998873532E-1,-1.000901937E0,-2.130390890E-2
2.623596875E0,6.230820715E-2,-7.592285872E-1,1.042288020E-1
2.640262813E0,-1.905134469E-1,-2.044106275E-1,2.167042792E-1
2.656928750E0,-2.686277926E-1,1.301905513E-1,2.467130125E-1
2.673594688E0,-1.222493127E-1,-9.689842910E-2,1.731801629E-1
2.690260625E0,4.077522457E-2,-7.141773105E-1,5.574141163E-3
2.706926563E0,1.414151937E-1,-1.222798586E0,-2.769508064E-1
2.723592500E0,2.171624303E-1,-9.905172586E-1,-5.265654325E-1
2.740258438E0,1.555414498E-1,-2.704603672E-1,-5.689441562E-1
2.756924375E0,-5.077813566E-2,2.316704690E-1,-3.148244321E-1
2.773590313E0,-1.353829056E-1,2.567922771E-1,-1.283579618E-1
2.790256250E0,-1.273653060E-1,-1.149952933E-1,-2.939023077E-1
2.806922188E0,-1.663842946E-1,-6.753110290E-1,-3.014617562E-1
2.823588125E0,-1.928042024E-1,-8.694133162E-1,-2.437350452E-1
2.840254063E0,-2.784016132E-1,-7.561742663E-1,-2.362519503E-1
2.856920000E0,-3.711767197E-1,-4.548651874E-1,-4.056905806E-1
2.873585938E0,-8.584177494E-1,4.368446767E-1,-2.671769857E-1
2.890251875E0,-1.566868186E0,1.672700524E0,-3.535379842E-2
2.906917813E0,-1.829540014E0,1.394451618E0,4.459312931E-2
2.923583750E0,-1.847407818E0,3.784307241E-1,3.234528899E-1
2.940249688E0,-1.422322273E0,-4.463894367E-1,4.536434710E-1
2.956915625E0,-8.643736839E-1,-1.057101488E0,4.431824088E-1
2.973581563E0,-3.519344628E-1,-1.204548955E0,3.632354736E-1
2.990247500E0,-1.706603467E-1,-7.228057384E-1,3.490328491E-1
3.006913438E0,-2.727511227E-1,1.479056329E-1,5.306887627E-1
3.023579375E0,-5.366446972E-1,5.338194370E-1,5.726857185E-1
3.040245313E0,-5.347357392E-1,-2.084576041E-1,2.720639110E-1
3.056911250E0,-4.951058924E-1,-7.166207433E-1,-4.963276442E-3
3.073577188E0,-4.608974755E-1,-3.685041666E-1,-5.574141070E-2
3.090243125E0,-4.195877314E-1,5.001455545E-2,-8.193223923E-2
3.106909063E0,-2.984074354E-1,7.551051974E-1,-1.059086844E-1
3.123575000E0,-2.648862302E-1,1.319162488E0,-2.130390853E-1
3.140240938E0,-1.596647799E-1,1.552665591E0,-4.361574650E-1
3.156906875E0,2.210566849E-1,9.678388834E-1,-5.710822344E-1
3.173572813E0,8.115338683E-1,-4.471530318E-1,-5.260309577E-1
3.190238750E0,1.153847218E0,-1.593440771E0,-2.786307037E-1
3.206904688E0,1.090317249E0,-1.617188096E0,9.613484144E-2
3.223570625E0,8.221476078E-1,-1.000596523E0,2.481638193E-1
3.240236563E0,5.659661889E-1,-3.738492429E-1,2.901607659E-3
3.256902500E0,1.353065521E-1,3.491092324E-1,-3.372737169E-1
3.273568438E0,5.772672221E-2,2.293797284E-1,-3.763690591E-1
3.290234375E0,4.391354322E-1,-6.691260338E-1,-2.378554791E-1
3.306900313E0,5.993347168E-1,-8.436806202E-1,-8.338304609E-2
3.323566250E0,7.095194459E-1,-4.514290690E-1,1.481347065E-2
3.340232188E0,8.719331026E-1,-1.966984570E-1,-7.643445581E-2
3.356898125E0,6.328558922E-1,4.677697122E-1,-1.809686869E-1
3.373564063E0,4.912116528E-1,9.310342669E-1,-3.061196208E-1
3.390230000E0,5.607738495E-1,6.055197120E-1,-3.679696620E-1
3.406895938E0,5.791761875E-1,2.884808779E-1,-3.839285076E-1
3.423561875E0,5.208385587E-1,4.367683083E-2,-3.097847998E-1
3.440227813E0,4.378373325E-1,-1.056796089E-1,-2.606101930E-1
3.456893750E0,3.953822255E-1,-2.780961990E-1,-2.286161482E-1
3.473559688E0,3.683514595E-1,-4.140899479E-1,-2.117410004E-1
3.490225625E0,2.790888548E-1,-4.279107749E-1,-2.384663373E-1
3.506891563E0,2.027307451E-1,-4.065304995E-1,-2.658025324E-1
3.523557500E0,1.561523080E-1,-3.923279047E-1,-2.077703774E-1
3.540223438E0,2.163988501E-1,-5.400044918E-1,-6.017018110E-2
3.556889375E0,3.539197743E-1,-7.828995585E-1,1.099556610E-1
3.573555313E0,3.494910002E-1,-8.568142056E-1,1.848629564E-1
3.590221250E0,1.875354946E-1,-8.237511516E-1,1.149189398E-1
3.606887188E0,1.435532235E-2,-7.290670872E-1,4.680751264E-2
3.623553125E0,-1.855501719E-2,-6.553815603E-1,5.787943676E-2
3.640219063E0,4.772381112E-2,-7.282271981E-1,1.498909444E-1
3.656885000E0,-8.040507883E-2,-9.666935205E-1,2.039524764E-1
3.673550938E0,-5.290852785E-1,-1.144302487E0,1.931859851E-1
3.690216875E0,-1.035492182E0,-1.092149854E0,1.439350098E-1
3.706882813E0,-1.112766504E0,-7.681624889E-1,1.286633909E-1
3.723548750E0,-6.280453801E-1,-7.971785218E-2,1.976147592E-1
3.740214688E0,7.406735420E-2,6.294198036E-1,2.622900605E-1
3.756880625E0,4.496728480E-1,7.818305492E-1,3.074940443E-1
3.773546563E0,3.900371492E-1,4.337140024E-1,4.038579762E-1
3.790212500E0,1.172096804E-1,-3.840812296E-2,5.263363719E-1
3.806878438E0,-1.190422773E-1,-3.361283541E-1,6.855430007E-1
3.823544375E0,-1.577558219E-1,-3.223075271E-1,8.933134079E-1
3.840210313E0,7.635809947E-3,-1.686750352E-1,1.024801970E0
3.856876250E0,2.687804997E-1,-9.949459881E-2,1.067180753E0
3.873542188E0,5.688678026E-1,-1.880699992E-1,9.400445223E-1
3.890208125E0,8.159626126E-1,-2.536616027E-1,7.111229897E-1
3.906874063E0,8.681151867E-1,-1.570686102E-1,4.889972508E-1
3.923540000E0,7.296779752E-1,6.849320978E-2,3.494910002E-1
3.940205938E0,5.407680273E-1,2.176969349E-1,3.062723279E-1
3.956871875E0,4.537198246E-1,1.037706509E-1,3.258199990E-1
3.973537813E0,4.912116528E-1,-1.487455666E-1,3.594175577E-1
3.990203750E0,5.648971796E-1,-2.330449075E-1,3.000109792E-1
4.006869688E0,5.493201613E-1,-6.681333482E-2,2.019671649E-1
4.023535625E0,3.995055556E-1,1.670715213E-1,7.628174126E-2
4.040201563E0,2.378554791E-1,3.111592531E-1,-1.756236190E-3
4.056867500E0,1.773798615E-1,3.024544120E-1,-3.092502989E-2
4.073533438E0,1.704312712E-1,1.414915472E-1,-5.765036494E-2
4.090199375E0,1.427896470E-1,4.222602770E-2,-1.061377525E-1
4.106865313E0,1.629481763E-1,6.047561392E-2,-1.859319657E-1
4.123531250E0,1.827249229E-1,2.376264036E-1,-2.212094069E-1
4.140197188E0,1.637881249E-1,4.289034307E-1,-2.530507445E-1
4.156863125E0,1.219438836E-1,5.431351662E-1,-2.992473841E-1
4.173529063E0,8.368847519E-2,4.804451466E-1,-3.161225319E-1
4.190195000E0,-3.604102135E-2,1.639408320E-1,-3.003163934E-1
4.206860938E0,-3.339903057E-1,-3.455203772E-1,-2.194531709E-1
4.223526875E0,-7.767145634E-1,-7.420479655E-1,-1.309541315E-1
4.240192813E0,-1.246469617E0,-7.026472092E-1,-5.222893879E-2
4.256858750E0,-1.463631988E0,-4.622719288E-1,-4.734201822E-3
4.273524688E0,-1.246316910E0,-3.184132576E-1,-7.635809947E-3
4.290190625E0,-7.180715203E-1,-3.525453210E-1,-4.466948658E-2
4.306856563E0,-1.984546930E-1,-4.954113364E-1,-1.557705179E-2
4.323522500E0,5.612320080E-2,-7.861065865E-1,5.535962060E-2
4.340188438E0,-2.825249685E-3,-1.074587464E0,2.306014486E-2
4.356854375E0,-3.533852696E-1,-1.065424562E0,-4.260781780E-2
4.373520313E0,-8.030580878E-1,-9.408081174E-1,-1.054505333E-1
4.390186250E0,-1.291826248E0,-5.395463109E-1,3.619373962E-2
4.406852188E0,-1.595960617E0,-2.478583902E-1,1.685986817E-1
4.423518125E0,-1.595273376E0,-6.357575059E-1,1.368337125E-1
4.440184063E0,-1.339015603E0,-1.298240423E0,6.696604937E-2
4.456850000E0,-1.069395185E0,-1.537241220E0,6.116283685E-2
4.473515938E0,-8.857539296E-1,-1.073442101E0,1.748600453E-1
4.490181875E0,-5.968912244E-1,-6.601157784E-1,2.926042378E-1
4.506847813E0,-1.792888194E-1,-6.660717130E-1,1.519526094E-1
4.523513750E0,3.695731983E-2,-6.840922236E-1,-1.003345400E-1
4.540179688E0,-9.208786488E-2,-4.208094776E-1,-2.271653414E-1
4.556845625E0,-2.440404743E-1,-1.583666950E-1,-2.482401729E-1
4.573511563E0,-3.054323792E-1,-5.398517475E-2,-1.839466542E-1
4.590177500E0,-3.552178741E-1,-3.054323897E-4,-6.918043643E-2
4.606843438E0,-3.049742281E-1,-1.298087686E-1,-2.985601686E-2
4.623509375E0,-1.526398361E-1,-1.805105358E-1,-9.132428467E-2
4.640175313E0,-1.733328775E-2,-4.253146052E-2,-1.446222365E-1
4.656841250E0,-4.428769462E-3,-1.221729559E-3,-1.191186309E-1
4.673507188E0,-8.239039034E-2,-1.105665267E-1,-1.313359290E-2
4.690173125E0,-2.218966335E-1,-4.738783538E-1,1.120173261E-1
4.706839063E0,-4.297433794E-1,-9.216422439E-1,3.893499374E-1
4.723505000E0,-6.631700993E-1,-1.114751816E0,7.853430510E-1
4.740170938E0,-8.014546037E-1,-9.460768104E-1,1.025947452E0
4.756836875E0,-7.870992422E-1,-7.923679948E-1,9.053016305E-1
4.773502813E0,-9.013310075E-1,-7.661007643E-1,6.533198953E-1
4.790168750E0,-1.298698545E0,-4.660134614E-1,5.674170256E-1
4.806834688E0,-1.388801098E0,-1.728747338E-1,7.812960744E-1
4.823500625E0,-1.061835647E0,-3.772090077E-1,1.018311620E0
4.840166563E0,-8.445205688E-1,-9.150754213E-1,9.763910174E-1
4.856832500E0,-9.505819678E-1,-8.513928056E-1,7.996983528E-1
4.873498438E0,-8.462004066E-1,-2.457967103E-1,6.754637361E-1
4.890164375E0,-1.437823027E-1,6.429351866E-2,6.366738081E-1
4.906830313E0,8.632283211E-1,-7.139482349E-2,7.281508446E-1
4.923496250E0,1.561904907E0,-2.013563067E-1,7.625883222E-1
4.940162188E0,1.763108492E0,1.556178033E-1,1.873827726E-1
4.956828125E0,1.563661098E0,5.527562499E-1,1.738673896E-1
4.973494063E0,8.316923976E-1,1.145371469E-3,5.677987933E-1
4.990160000E0,5.497783050E-2,-4.774671793E-1,1.054887176E0
5.006825938E0,4.509709179E-1,-5.222893879E-2,1.338404775E0
5.023491875E0,1.688888431E0,1.071991324E0,1.496236920E0
5.040157813E0,2.800585985E0,1.584048748E0,1.676442027E0
5.056823750E0,2.856632710E0,5.773435831E-1,1.429728985E0
5.073489688E0,1.768682599E0,-1.127121925E0,9.899827242E-1
5.090155625E0,4.239401519E-1,-1.917580843E0,1.500207543E0
5.106821563E0,8.903354406E-2,-2.313268661E0,2.279060125E0
5.123487500E0,9.002619982E-1,-3.092961073E0,3.054629326E0
5.140153438E0,9.773072600E-1,-2.945895433E0,3.973675489E0
5.156819375E0,-4.269944727E-1,-1.676289320E0,4.912574768E0
5.173485313E0,-1.883448839E0,-8.800270557E-1,5.315745354E0
5.190151250E0,-3.165424824E0,-7.054724693E-1,5.354153633E0
5.206817188E0,-4.152353287E0,-1.257846951E0,5.129660606E0
5.223483125E0,-4.368523121E0,-1.782885194E0,4.419912338E0
5.240149063E0,-4.436940193E0,-1.482416153E0,3.680918455E0
5.256815000E0,-4.867828846E0,-7.236456871E-1,2.855869293E0
5.273480938E0,-5.465101719E0,-1.729510874E-1,2.183917999E0
5.290146875E0,-5.645077705E0,-5.553524494E-1,2.307083607E0
5.306812813E0,-4.953197002E0,-2.288986683E0,2.296622515E0
5.323478750E0,-4.315225124E0,-2.203312874E0,1.468213439E0
5.340144688E0,-4.534525394E0,2.207512558E-1,-7.765618712E-2
5.356810625E0,-4.141281605E0,1.155985236E0,-1.493640780E0
5.373476563E0,-3.170769930E0,-4.810560029E-3,-1.737604856E0
5.390142500E0,-2.266995668E0,-7.911462188E-1,-9.759328365E-1
5.406808438E0,-1.635285020E0,-1.265253663E0,-2.735147178E-1
5.423474375E0,-1.592218995E0,-1.662926674E0,1.631772518E-1
5.440140313E0,-1.502956390E0,-1.564730167E0,3.345248103E-1
5.456806250E0,-5.516108871E-1,-1.589775532E-1,-4.622719288E-1
5.473472188E0,1.669722557E0,1.702174664E0,-1.505552649E0
5.490138125E0,4.002996922E0,1.862832189E0,-1.714850187E0
5.506804063E0,5.055974960E0,8.833868504E-1,-1.536401272E0
5.523470000E0,4.601491451E0,1.258686900E0,-1.630703568E0
5.540135938E0,3.910527229E0,1.831143498E0,-2.759428978E0
5.556801875E0,4.778489590E0,1.479819894E0,-4.910512924E0
5.573467813E0,6.693245411E0,1.291520834E0,-6.466843605E0
5.590133750E0,7.873207092E0,1.126358271E0,-6.774566650E0
5.606799688E0,8.070134163E0,6.913462281E-1,-6.709586143E0
5.623465625E0,7.396197796E0,-1.030070707E-1,-6.672934055E0
5.640131563E0,6.132624149E0,-7.104357481E-1,-7.154601097E0
5.656797500E0,5.023751736E0,-5.875755548E-1,-6.972945213E0
5.673463438E0,4.211912632E0,-1.670715213E-1,-5.453953266E0
5.690129375E0,4.109439850E0,5.093085021E-2,-3.004080296E0
5.706795313E0,3.980623960E0,-2.144822598E0,3.362810612E-1
5.723461250E0,2.119395256E0,-3.378922224E0,2.967351913E0
5.740127188E0,-7.847321630E-1,-1.534263253E0,4.431289673E0
5.756793125E0,-1.243186235E0,8.816305995E-1,5.071857452E0
5.773459063E0,6.403390169E-1,1.954309106E0,5.297037601E0
5.790125000E0,1.007697821E0,2.513250351E0,5.725330353E0
5.806790938E0,-1.515097380E0,2.690248489E0,7.322283268E0
5.823456875E0,-4.243753910E0,1.387273908E0,8.566615105E0
5.840122813E0,-5.312385559E0,9.448550940E-1,8.597921371E0
5.856788750E0,-4.825067997E0,1.150029302E0,8.084184647E0
5.873454688E0,-3.126482248E0,9.114102721E-1,6.705691814E0
5.890120625E0,-3.266446590E0,1.580154419E0,5.989758015E0
5.906786563E0,-6.015949249E0,2.270355225E0,6.172712326E0
5.923452500E0,-7.296168804E0,1.364671946E0,4.679682255E0
5.940118438E0,-5.297495842E0,2.063119411E0,1.075045705E0
5.956784375E0,-3.327075005E0,2.042808294E0,-7.784708142E-1
5.973450313E0,-2.623435259E0,6.143009067E-1,-1.146975040E0
5.990116250E0,-3.343568325E0,3.696495593E-1,-1.212948322E0
6.006782188E0,-3.557294607E0,5.102248192E-1,-1.534874082E0
6.023448125E0,-1.867184520E0,-9.605848789E-2,-2.592051983E0
6.040114063E0,3.226893246E-1,-4.201986194E-1,-3.660149097E0
6.056780000E0,1.500742078E0,2.901607752E-1,-4.293692112E0
6.073445938E0,1.495473385E0,1.313282967E0,-4.917079449E0
6.090111875E0,6.374374032E-1,2.177274704E0,-5.094535828E0
6.106777813E0,7.299070358E-1,2.661079645E0,-5.202429771E0
6.123443750E0,2.351829290E0,2.453767538E0,-5.721130371E0
6.140109688E0,3.933434725E0,3.614486933E0,-6.777773857E0
6.156775625E0,5.176239014E0,3.837605238E0,-7.553342819E0
6.173441563E0,7.281661034E0,2.027536631E0,-7.223170757E0
6.190107500E0,9.978322983E0,-2.422078848E-1,-7.210036755E0
6.206773438E0,9.195576668E0,-1.882761598E0,-7.468891144E0
6.223439375E0,3.770639181E0,2.927569449E-1,-7.046936035E0
6.240105313E0,6.819541454E-1,2.803029299E0,-5.667679787E0
6.256771250E0,2.636339664E0,1.247004032E0,-3.285841703E0
6.273437188E0,5.608578682E0,-1.435990334E0,-8.100830317E-1
6.290103125E0,6.022897720E0,-2.445291758E0,1.038622856E0
6.306769063E0,3.253389359E0,-1.173700333E0,2.714759350E0
6.323435000E0,-1.367573589E-1,1.241429925E0,4.513756275E0
6.340100938E0,-1.895742536E0,2.073885918E0,6.289845467E0
6.356766875E0,-1.847713232E0,1.200578332E0,7.899397850E0
6.373432813E0,-6.311760545E-1,7.099775672E-1,8.473763466E0
6.390098750E0,-5.333613157E-1,1.364748240E0,8.065247536E0
6.406764688E0,-2.661537886E0,2.680245638E0,7.729882717E0
6.423430625E0,-4.836522102E0,2.472627878E0,7.749125004E0
6.440096563E0,-4.680293083E0,2.319758981E-1,8.254920959E0
6.456762500E0,-3.651597023E0,-7.352521420E-1,8.440089226E0
6.473428438E0,-4.249175549E0,8.984293938E-1,7.043652534E0
6.490094375E0,-7.120621681E0,2.674671412E0,3.880594969E0
6.506760313E0,-7.638635159E0,3.669770241E0,5.367974043E-1
6.523426250E0,-4.898524761E0,2.848767996E0,-1.272660375E0
6.540092188E0,-2.215453863E0,1.438815594E0,-2.094197273E0
6.556758125E0,-1.408730507E0,7.682388425E-1,-2.542113781E0
6.573424063E0,-1.574580312E0,7.460949421E-1,-3.013319492E0
6.590090000E0,-1.084743142E0,1.342298985E0,-3.490023136E0
6.606755938E0,-2.226602137E-1,1.729129076E0,-3.560119867E0
6.623421875E0,5.461131334E-1,1.332067013E0,-3.197037220E0
6.640087813E0,1.408119678E0,9.605085254E-1,-2.693073750E0
6.656753750E0,2.019824505E0,8.089376688E-1,-2.423835039E0
6.673419688E0,1.934150577E0,1.024572968E0,-2.908709049E0
6.690085625E0,1.290146470E0,2.668944597E0,-3.692372084E0
6.706751563E0,1.890626550E0,4.018879414E0,-4.542772293E0
6.723417500E0,4.780933380E0,2.739270449E0,-5.290928841E0
6.740083438E0,8.482544899E0,-6.890554428E-1,-5.391034603E0
6.756749375E0,9.258877754E0,-2.151160240E0,-5.418828964E0
6.773415313E0,6.089252949E0,-7.543416619E-1,-5.927984715E0
6.790081250E0,1.945909739E0,1.723860383E0,-6.006709576E0
6.806747188E0,1.193935156E0,2.218126297E0,-5.027264595E0
6.823413125E0,2.983998060E0,6.598866582E-1,-3.285688877E0
6.840079063E0,4.148000717E0,-3.740019500E-1,-1.618791699E0
6.856745000E0,3.620061159E0,-6.446914077E-1,-2.835176289E-1
6.873410938E0,2.149938583E0,9.689842910E-2,5.384773016E-1
6.890076875E0,1.139339209E0,1.159039617E0,1.723173141E0
6.906742813E0,4.103484154E-1,8.616247773E-1,3.909992695E0
6.923408750E0,-9.615011811E-1,1.392008066E-1,6.717451096E0
6.940074688E0,-1.813504815E0,-3.756054938E-1,7.989500523E0
6.956740625E0,-1.707443476E0,-1.023198478E-2,7.437202454E0
6.973406563E0,-2.317010164E0,8.629992008E-1,7.065109253E0
6.990072500E0,-4.085158348E0,1.961104989E0,7.082824230E0
7.006738438E0,-5.723573685E0,1.453247309E0,7.045561790E0
7.023404375E0,-5.965094566E0,-8.681915402E-1,6.988293171E0
7.040070313E0,-6.070545197E0,-1.967595458E0,6.679653645E0
7.056736250E0,-7.727591991E0,-4.078285992E-1,5.076057434E0
7.073402188E0,-9.365702629E0,1.545182467E0,3.093571901E0
7.090068125E0,-7.476068497E0,1.078176379E0,1.346575022E0
7.106734063E0,-3.995666504E0,4.086685479E-1,-3.845393658E-1
7.123400000E0,-1.786626816E0,8.082504869E-1,-1.848018646E0
7.140065938E0,-7.093667388E-1,8.782708645E-1,-2.850065947E0
7.156731875E0,-1.021671370E-1,7.390699983E-1,-3.326082468E0
7.173397813E0,2.475529462E-1,5.425242782E-1,-3.150000572E0
7.190063750E0,3.075704277E-1,2.607629001E-1,-2.614577532E0
7.206729688E0,1.151480079E-1,1.259908639E-2,-1.732717991E0
7.223395625E0,1.185841262E-1,2.391535640E-1,-8.835395575E-1
7.240061563E0,6.291907430E-1,7.484620810E-1,-1.227609158E0
7.256727500E0,1.075045705E0,2.095418930E0,-2.484387159E0
7.273393438E0,1.292055368E0,3.757047415E0,-2.942688465E0
7.290059375E0,2.918559313E0,4.089357853E0,-3.439550400E0
7.306725313E0,6.082685947E0,2.293720961E0,-4.768333912E0
7.323391250E0,8.348917961E0,2.856556475E-1,-6.228147984E0
7.340057188E0,8.142064095E0,2.223547846E-1,-5.967080116E0
7.356723125E0,6.304658890E0,1.284114122E0,-5.386987209E0
7.373389063E0,3.989939690E0,1.812970281E0,-5.100033760E0
7.390055000E0,2.950476885E0,2.438266754E0,-4.681591511E0
7.406720938E0,3.614181519E0,2.112065077E0,-3.447033644E0
7.423386875E0,4.636998177E0,9.355394244E-1,-1.901011229E0
7.440052813E0,4.768639565E0,3.825540543E-1,-8.476512432E-1
7.456718750E0,3.668166637E0,5.226711631E-1,3.714057803E-1
7.473384688E0,1.179045439E0,7.262418866E-1,2.736979723E0
7.490050625E0,-1.651472926E0,5.088503361E-1,5.576202869E0
7.506716563E0,-2.565250397E0,2.939023077E-1,6.454626560E0
7.523382500E0,-1.506927013E0,7.814487815E-1,5.737318516E0
7.540048438E0,-1.285946727E0,9.209550023E-1,5.774428368E0
7.556714375E0,-3.235216141E0,1.275638342E0,6.660869598E0
7.573380313E0,-5.981969833E0,1.640706420E0,6.940569401E0
7.590046250E0,-6.681486130E0,2.568686306E-1,6.105669975E0
7.606712188E0,-5.649582863E0,-2.048993111E0,5.301390171E0
7.623378125E0,-6.108876705E0,-7.460185885E-1,4.231460094E0
7.640044063E0,-6.645369053E0,1.970268011E0,2.395429850E0
7.656710000E0,-5.193114281E0,2.346026182E0,2.102901936E-1
7.673375938E0,-2.886794329E0,1.695531607E0,-1.052596331E0
7.690041875E0,-9.710459113E-1,4.874700904E-1,-1.189124703E0
7.706707813E0,-1.809686981E-2,-4.899899065E-1,-8.949168921E-1
7.723373750E0,5.080104470E-1,-5.858193040E-1,-6.146063209E-1
7.740039688E0,7.959567904E-1,-7.334958911E-1,-3.888154328E-1
7.756705625E0,3.916406929E-1,-1.793804407E0,3.138317913E-2
7.773371563E0,-5.282453299E-1,-2.470795393E0,7.892373204E-1
7.790037500E0,-9.797507524E-1,-1.607567072E0,1.050076604E0
7.806703438E0,-3.080285788E-1,-8.009964228E-2,-1.733328849E-1
7.823369375E0,1.062522888E0,5.392408967E-1,-1.768682599E0
7.840035313E0,2.025551319E0,-1.040760875E-1,-2.446055412E0
7.856701250E0,2.376416683E0,-4.366919696E-1,-1.945298910E0
7.873367188E0,2.962388754E0,-4.714348912E-1,-1.205388904E0
7.890033125E0,4.157774925E0,-5.230529904E-1,-1.623907685E0
7.906699063E0,5.280696869E0,-5.186241865E-1,-3.386634350E0
7.923365000E0,5.846052170E0,-7.547234297E-1,-4.023842812E0
7.940030938E0,4.825449944E0,-1.807930708E0,-3.163897753E0
7.956696875E0,2.237750292E0,-7.845794559E-1,-3.070588112E0
7.973362813E0,3.417788446E-1,1.645135164E0,-3.994444847E0
7.990028750E0,5.201513767E-1,3.328220367E0,-4.464352608E0
8.006694688E0,2.396728039E0,2.500956774E0,-3.307298183E0
8.023360625E0,4.843852043E0,6.594285369E-1,-2.070755243E0
8.040026563E0,6.079860687E0,9.812015295E-2,-1.589088321E0
8.056692500E0,5.117061615E0,1.173089504E0,-9.250019789E-1
8.073358438E0,2.359465122E0,2.926271439E0,8.328377604E-1
8.090024375E0,-6.440041661E-1,3.596695423E0,2.874577045E0
8.106690313E0,-2.389932156E0,2.067624569E0,4.308963776E0
8.123356250E0,-2.648022413E0,-4.366919696E-1,5.120115757E0
8.140022188E0,-2.936655998E0,-1.414915562E0,5.889347553E0
8.156688125E0,-4.333932877E0,-4.386008978E-1,6.333140373E0
8.173354063E0,-6.847183228E0,8.479566574E-1,6.033053398E0
8.190020000E0,-9.114789963E0,7.233402729E-1,4.444499493E0
8.206685938E0,-1.046457195E1,-1.219667912E0,4.441903114E0
8.223351875E0,-1.007109833E1,3.245219216E-2,3.885405540E0
8.240017813E0,-7.253026485E0,2.989648581E0,1.094669700E0
8.256683750E0,-3.175656796E0,2.293720961E0,-1.098716617E0
8.273349688E0,-7.153226733E-1,1.837175786E-1,-1.706603527E0
8.290015625E0,-7.945060134E-1,-9.188933372E-1,-9.004147053E-1
8.306681563E0,-1.961028695E0,-7.623592615E-1,6.452259421E-2
8.323347500E0,-1.961028695E0,-2.310595959E-1,3.979020417E-1
8.340013438E0,-7.325032353E-1,-5.356520414E-1,4.335612655E-1
8.356679375E0,5.012909174E-1,-1.604436398E0,6.773726940E-1
8.373345313E0,8.528435826E-1,-2.199876785E0,1.143309832E0
8.390011250E0,6.773726940E-1,-1.980347276E0,1.537775755E0
8.406677188E0,1.014646411E0,-1.561217666E0,1.241659045E0
8.423343125E0,2.158643484E0,-1.356883407E0,1.682168841E-1
8.440009063E0,3.303556681E0,-1.211421251E0,-1.098563910E0
8.456675000E0,3.588143349E0,-8.727730513E-1,-2.356181860E0
8.473340938E0,3.158400059E0,-2.509126961E-1,-2.943299294E0
8.490006875E0,2.774776936E0,9.812015295E-2,-2.864955902E0
8.506672813E0,3.179703951E0,-7.050906420E-1,-2.656727314E0
8.523338750E0,3.446193695E0,-1.235550404E0,-3.049207926E0
8.540004688E0,1.985005140E0,-9.935715795E-1,-2.307694435E0
8.556670625E0,-1.141858935E0,-1.111010313E-1,-5.169443488E-1
8.573336563E0,-3.594939232E0,2.211559534E0,-9.440151453E-1
8.590002500E0,-3.602575064E0,3.068450212E0,-2.682994366E0
8.606668438E0,-1.756923437E0,2.413221359E0,-3.478951216E0
8.623334375E0,-6.368265301E-2,1.815719247E0,-2.746906281E0
8.640000313E0,-2.464075834E-1,8.275690675E-1,-9.255365133E-1
8.656666250E0,-1.723173141E0,-2.240346521E-1,6.527090073E-1
8.673332188E0,-3.814392328E0,-1.154534459E0,1.663995624E0
8.689998125E0,-5.753047943E0,-1.793269873E0,3.843713999E0
8.706664063E0,-4.708393097E0,-4.676933587E-1,5.937682152E0
8.723330000E0,7.687733173E-1,1.042058945E0,5.216708660E0
8.739995938E0,5.532526016E0,-3.132209182E-1,1.275180221E0
8.756661875E0,6.125141144E0,-2.703229427E0,-2.728274822E0
8.773327813E0,2.732245445E0,-1.201036572E0,-2.583347082E0
8.789993750E0,-8.342885971E-1,8.526145220E-1,-1.053818107E0
8.806659688E0,-1.928271055E0,1.005712509E0,-1.251814604E0
8.823325625E0,-1.095356941E0,2.325104028E-1,-2.249204159E0
8.839991563E0,4.631118476E-1,-6.569086909E-1,-2.802495003E0
8.856657500E0,1.756694436E0,-1.165835381E0,-2.786459684E0
8.873323438E0,2.166584730E0,-1.435914040E0,-2.286543131E0
8.889989375E0,1.572365999E0,-9.560797215E-1,-1.534415960E0
8.906655313E0,1.609628648E-1,2.680169232E-2,-9.031635523E-1
8.923321250E0,-6.294961572E-1,1.133994102E0,-1.292895317E0
8.939987188E0,2.948949635E-1,1.417129874E0,-1.992030025E0
8.956653125E0,2.028834581E0,6.463713050E-1,-1.965457439E0
8.973319063E0,2.892292023E0,1.846338809E-1,-1.744629860E0
8.989985000E0,2.339154005E0,3.487274349E-1,-1.853516459E0
9.006650938E0,1.188284755E0,8.637627959E-1,-2.128558397E0
9.023316875E0,-2.199113183E-2,1.623067737E0,-2.046244383E0
9.039982813E0,-8.429933786E-1,2.646419048E0,-1.496542335E0
9.056648750E0,-8.532254100E-1,3.178634882E0,-7.717512846E-1
9.073314688E0,2.921460867E-1,2.321515322E0,-3.269653618E-1
9.089980625E0,2.041815519E0,1.592677236E0,-5.485565662E-1
9.106646563E0,3.189248562E0,2.169333458E0,-1.446146011E0
9.123312500E0,3.512319803E0,3.151451349E0,-2.425362349E0
9.139978438E0,3.521482706E0,3.817370415E0,-2.794095516E0
9.156644375E0,3.600436926E0,3.894186497E0,-2.460334301E0
9.173310313E0,3.918926716E0,3.000567913E0,-1.643455386E0
9.189976250E0,4.301480770E0,1.838015795E0,-6.426297426E-1
9.206642188E0,4.561251163E0,9.723440409E-1,1.642462611E-1
9.223308125E0,4.596910000E0,6.448441148E-1,5.148826241E-1
9.239974063E0,3.672213554E0,8.974367380E-1,7.098248601E-1
9.256640000E0,1.769217134E0,1.046716809E0,1.684535980E0
9.273305938E0,-1.416442692E-1,3.940077871E-2,3.334863663E0
9.289971875E0,-6.164389253E-1,-9.937242866E-1,3.978867769E0
9.306637813E0,2.280052751E-1,-1.247233152E0,3.319821119E0
9.323303750E0,6.040689349E-1,-9.603558183E-1,2.533027172E0
9.339969688E0,-4.642572254E-2,-4.402807951E-1,2.404898167E0
9.356635625E0,-4.844921231E-1,-8.321505189E-1,2.701014996E0
9.373301563E0,-2.725984156E-1,-2.061821461E0,2.874271393E0
9.389967500E0,2.631300092E-1,-2.743699074E0,2.554712772E0
9.406633438E0,-1.282816082E-1,-2.090837479E0,2.108781576E0
9.423299375E0,-1.552207351E0,-6.830995679E-1,1.766697288E0
9.439965313E0,-2.490724802E0,6.162098423E-2,1.638644814E0
9.456631250E0,-2.158643484E0,-2.276234925E-1,2.050291300E0
9.473297188E0,-6.686678529E-1,-1.150487423E0,2.669402838E0
9.489963125E0,1.219744205E0,-1.865275621E0,2.567388296E0
9.506629063E0,2.436434269E0,-1.519678831E0,1.239521027E0
9.523295000E0,2.261726856E0,-1.583666950E-1,8.659008145E-2
9.539960938E0,1.438662887E0,9.197332859E-1,-1.321758628E-1
9.556626875E0,1.280143499E0,7.973312736E-1,1.729510874E-1
9.573292813E0,2.108476162E0,4.741837829E-2,5.577958822E-1
9.589958750E0,3.396408081E0,-3.628536761E-1,4.961749315E-1
9.606624688E0,4.470308304E0,-3.016144782E-2,-3.665188551E-1
9.623290625E0,5.008174896E0,4.702131748E-1,-1.445306063E0
9.639956563E0,5.135616779E0,5.111411214E-1,-1.937052250E0
9.656622500E0,5.065290928E0,4.077522457E-1,-1.821522355E0
9.673288438E0,4.811934471E0,7.188351154E-1,-1.432706952E0
9.689954375E0,4.679911613E0,1.173318505E0,-1.340619087E0
9.706620313E0,4.773679256E0,1.311526656E0,-1.584735990E0
9.723286250E0,5.004127979E0,7.678570151E-1,-1.767766356E0
9.739952188E0,5.077126026E0,2.990946770E-1,-1.744400740E0
9.756618125E0,4.819036007E0,1.581376195E-1,-1.836106777E0
9.773284063E0,4.418995857E0,-2.542724647E-2,-2.440710306E0
9.789950000E0,3.522475481E0,7.612902671E-2,-3.307374716E0
9.806615938E0,2.409556150E0,5.779544115E-1,-4.304153442E0
9.823281875E0,1.568777084E0,1.680947185E0,-4.989314556E0
9.839947813E0,1.368031621E0,2.647564411E0,-4.571940899E0
9.856613750E0,2.139095783E0,2.894124508E0,-3.295310020E0
9.873279688E0,3.673358917E0,2.533790827E0,-1.913152099E0
9.889945625E0,4.927845955E0,2.156047344E0,-8.682679534E-1
9.906611563E0,5.228697300E0,2.225533009E0,-9.414953738E-2
9.923277500E0,4.568199635E0,2.773936987E0,5.425242782E-1
9.939943438E0,3.444742918E0,3.283932686E0,1.272202253E0
9.956609375E0,2.808068991E0,2.748433352E0,2.050825834E0
9.973275313E0,2.998124361E0,1.571526051E0,2.555781841E0
9.989941250E0,3.195204496E0,1.157359719E0,2.475758553E0
1.000660719E1,2.632369041E0,1.762955785E0,2.205603600E0
1.002327313E1,1.428507328E0,2.360839605E0,2.239812136E0
1.003993906E1,3.200931549E-1,2.045633316E0,2.645349979E0
1.005660500E1,-1.586721241E-1,8.705586791E-1,3.289964914E0
1.007327094E1,-2.768744528E-1,-1.705076247E-1,4.107836723E0
1.008993688E1,-3.386481702E-1,-4.900662601E-1,4.827893257E0
1.010660281E1,-4.243219495E-1,-3.638463318E-1,5.114847183E0
1.012326875E1,-7.301361561E-1,-2.625191510E-1,4.818272114E0
1.013993469E1,-1.409494162E0,-5.902481079E-2,4.102033138E0
1.015660063E1,-2.288681269E0,2.171624303E-1,3.450164318E0
1.017326656E1,-2.955592871E0,7.775545120E-1,2.998124361E0
1.018993250E1,-3.695579290E0,1.051832795E0,2.345415354E0
1.020659844E1,-4.359207630E0,1.992946416E-1,1.884670615E0
1.022326438E1,-4.581715107E0,-1.121700406E0,2.174831390E0
1.023993031E1,-4.022239208E0,-2.205374479E0,2.849149704E0
1.025659625E1,-2.334648848E0,-2.232634306E0,2.669250011E0
1.027326219E1,-3.218493760E-1,-1.753105521E0,1.357265234E0
1.028992813E1,7.956513762E-1,-1.448207617E0,-2.031125315E-2
1.030659406E1,8.090903759E-1,-1.205770731E0,-5.901717544E-1
1.032326000E1,5.103775263E-1,-1.196149588E0,-3.991237879E-1
1.033992594E1,7.370846868E-1,-1.270675063E0,-2.461785078E-1
1.035659188E1,1.868788123E0,-9.831868410E-1,-4.033998251E-1
1.037325781E1,3.946721077E0,-9.307288527E-1,-8.475748897E-1
1.038992375E1,5.816425323E0,-1.283121467E0,-1.751120210E0
1.040658969E1,5.978380680E0,-1.147356749E0,-2.788826704E0
1.042325563E1,4.507723808E0,3.520108387E-2,-3.249342442E0
1.043992156E1,2.901989460E0,9.392809272E-1,-3.091892004E0
1.045658750E1,2.332892656E0,1.039157391E0,-2.864039421E0
1.047325344E1,2.488739491E0,9.083559513E-1,-2.992932081E0
1.048991938E1,3.205971003E0,7.467821836E-1,-3.123733521E0
1.050658531E1,4.084394455E0,2.122755051E-1,-3.076544046E0
1.052325125E1,4.150749683E0,1.181259751E-1,-2.979951143E0
1.053991719E1,3.225136995E0,4.531089365E-1,-3.399386168E0
1.055658313E1,3.092426538E0,9.361502528E-2,-4.553004265E0
1.057324906E1,4.399677277E0,-1.017471671E0,-5.628431797E0
1.058991500E1,5.228773594E0,-1.773340464E0,-6.147972107E0
1.060658094E1,4.163119793E0,-1.595655203E0,-5.487321854E0
1.062324688E1,2.842353821E0,-4.676169753E-1,-4.139906883E0
1.063991281E1,2.540815592E0,3.527744114E-1,-2.510501623E0
1.065657875E1,2.874424219E0,2.275471389E-2,-9.604321718E-1
1.067324469E1,2.487517834E0,-4.702131748E-1,1.037019372E0
1.068991063E1,1.018082500E0,5.203804374E-1,2.957883596E0
1.070657656E1,-2.936732471E-1,2.526002169E0,4.336299896E0
1.072324250E1,-1.147738576E0,3.142899275E0,5.432038784E0
1.073990844E1,-2.363206863E0,2.231260061E0,6.497692108E0
1.075657438E1,-4.014832497E0,1.918497205E0,7.272039890E0
1.077324031E1,-5.373395443E0,2.629772902E0,7.124057770E0
1.078990625E1,-5.715632439E0,2.879998446E0,6.596881390E0
1.080657219E1,-5.357742310E0,2.287994146E0,5.982351303E0
1.082323813E1,-4.813920021E0,1.462868452E0,4.716104984E0
1.083990406E1,-4.181064129E0,8.542180657E-1,3.584859848E0
1.085657000E1,-3.822333574E0,8.178715706E-1,1.511203051E0
1.087323594E1,-4.299266338E0,1.515250087E0,-1.415220976E0
1.088990188E1,-4.964726925E0,1.680412650E0,-3.248807907E0
1.090656781E1,-4.432892799E0,8.592576981E-1,-3.658163786E0
1.092323375E1,-3.129307508E0,-8.643736690E-2,-3.055316448E0
1.093989969E1,-2.130772591E0,-1.342757106E0,-2.017762661E0
1.095656563E1,-1.563737512E0,-2.254167318E0,-9.485966563E-1
1.097323156E1,-1.183550525E-2,-7.989347577E-1,-4.567741454E-1
1.098989750E1,2.488968611E0,2.033645153E0,-1.372842193E0
1.100656344E1,4.169457436E0,3.686110735E0,-3.296608210E0
1.102322938E1,4.076148033E0,4.385932922E0,-4.439765453E0
1.103989531E1,3.317224741E0,3.579209566E0,-3.803244114E0
1.105656125E1,3.187492371E0,1.604283571E0,-2.164981127E0
1.107322719E1,3.927173376E0,1.209588647E0,-1.758527040E0
1.108989313E1,4.923111916E0,2.014861107E0,-3.968864918E0
1.110655906E1,5.781682491E0,2.603353024E0,-6.470432281E0
1.112322500E1,7.064804077E0,2.226831198E0,-6.375137329E0
1.113989094E1,8.044402122E0,9.880737960E-2,-4.602789879E0
1.115655688E1,8.025083542E0,-1.875965714E0,-3.817141294E0
1.117322281E1,6.783882618E0,-1.885128736E0,-3.809658289E0
1.118988875E1,4.950066566E0,-1.012737393E0,-3.394117355E0
1.120655469E1,3.460396290E0,2.088394016E-1,-1.824653149E0
1.122322063E1,2.883205414E0,6.986002326E-1,9.644027948E-1
1.123988656E1,1.807778001E0,-7.040216327E-1,3.906862020E0
1.125655250E1,2.886336148E-1,-1.084437728E0,5.410200119E0
1.127321844E1,-9.298125505E-1,1.354745388E0,5.213043690E0
1.128988438E1,-2.781725407E0,4.660669327E0,5.557265759E0
1.130655031E1,-5.625759125E0,5.680126190E0,7.501343250E0
1.132321625E1,-7.191482067E0,4.145557404E0,9.291329384E0
1.133988219E1,-7.099012375E0,1.976300240E0,9.809495926E0
1.135654813E1,-6.860087872E0,-8.216131479E-2,9.367229462E0
1.137321406E1,-7.329308510E0,4.427242577E-1,9.183664322E0
1.138988000E1,-7.099012375E0,2.307465315E0,7.557390213E0
1.140654594E1,-5.665312767E0,3.473377228E0,3.510410786E0
1.142321188E1,-5.524202824E0,5.218312263E0,-5.360338464E-2
1.143987781E1,-5.286423683E0,5.003669739E0,-1.713017583E0
1.145654375E1,-3.557371140E0,1.979354620E0,-2.171395302E0
1.147320969E1,-2.009134293E0,1.035415828E-1,-2.073427677E0
1.148987563E1,-1.055116177E0,-1.045800447E0,-1.815719247E0
1.150654156E1,-6.885209680E-1,-1.502116442E0,-2.203083754E0
1.152320750E1,-1.818086356E-1,-7.250964642E-1,-3.055087566E0
1.153987344E1,1.094211578E0,4.740310609E-1,-3.767050266E0
1.155653938E1,2.180023670E0,1.663537502E0,-3.997880936E0
1.157320531E1,2.740033865E0,2.450713158E0,-3.914803267E0
1.158987125E1,3.278053045E0,1.312901139E0,-3.307221889E0
1.160653719E1,3.947789907E0,-7.964149714E-1,-2.594571829E0
1.162320312E1,4.254215240E0,-2.977965772E-2,-2.648938656E0
1.163986906E1,3.849135399E0,2.983921766E0,-4.007654667E0
1.165653500E1,4.404487610E0,2.613355875E0,-5.486023903E0
1.167320094E1,6.643536091E0,-7.749583125E-1,-5.976700783E0
1.168986688E1,8.283861160E0,-2.619770050E0,-6.864898205E0
1.170653281E1,6.922701359E0,-1.377729177E0,-7.107106209E0
1.172319875E1,4.006509304E0,9.750928730E-2,-6.684540749E0
1.173986469E1,2.715446711E0,7.739656568E-1,-5.282835007E0
1.175653062E1,3.728947639E0,7.490729541E-2,-3.239492178E0
1.177319656E1,5.064908981E0,-7.845794559E-1,-1.571220517E0
1.178986250E1,4.948768139E0,-4.093557596E-1,-1.508836001E-1
1.180652844E1,3.150305986E0,3.794997334E-1,1.634139657E0
1.182319438E1,1.399873018E0,1.186528444E0,3.421988249E0
1.183986031E1,2.919169962E-1,1.780823588E0,5.642099857E0
1.185652625E1,-9.602030516E-1,1.467679024E0,7.977054119E0
1.187319219E1,-1.557705164E0,1.151021957E0,8.400765419E0
1.188985812E1,-1.862832189E0,1.867413640E0,7.385813236E0
1.190652406E1,-3.328678608E0,2.747746229E0,6.994554520E0
1.192319000E1,-4.995041370E0,3.341659307E0,7.590987682E0
1.193985594E1,-5.585365772E0,1.539761066E0,7.770581722E0
1.195652188E1,-5.372326851E0,-6.494256258E-1,7.237297058E0
1.197318781E1,-6.078104496E0,4.584540129E-1,5.547492027E0
1.198985375E1,-6.592987061E0,4.326526165E0,1.083979607E0
1.200651969E1,-5.623850346E0,4.654713154E0,-2.171318769E0
1.202318562E1,-3.666334152E0,2.073427677E0,-3.038899660E0
1.203985156E1,-2.470108032E0,5.987238288E-1,-2.888168573E0
1.205651750E1,-2.174220562E0,2.522107959E-1,-2.884809017E0
1.207318344E1,-1.971795201E0,4.859429300E-1,-3.184056282E0
1.208984938E1,-1.093295217E0,6.239219904E-1,-3.107698202E0
1.210651531E1,1.970802546E-1,-5.757400393E-2,-2.766911983E0
1.212318125E1,9.675334692E-1,-9.219476581E-1,-2.291201115E0
1.213984719E1,8.929315805E-1,-1.611690402E0,-1.107803226E0
1.215651312E1,4.576140642E-1,-2.078314781E0,5.079340935E-1
1.217317906E1,3.050506115E-1,-1.781281710E0,1.638644785E-1
1.218984500E1,1.591302752E-1,-2.215148360E-1,-1.783267021E0
1.220651094E1,1.111086726E0,2.017151833E0,-2.775846004E0
1.222317688E1,2.793102741E0,2.552880287E0,-2.447887897E0
1.223984281E1,4.609280109E0,6.224712133E-1,-3.025307894E0
1.225650875E1,5.699749947E0,-6.462949514E-1,-4.615923405E0
1.227317469E1,6.331537247E0,-4.165334105E-1,-5.789928913E0
1.228984062E1,6.775712013E0,-5.784125924E-1,-6.258920670E0
1.230650656E1,6.993103504E0,-1.319849730E0,-6.305727959E0
1.232317250E1,6.325352192E0,-1.545640588E0,-5.679057121E0
1.233983844E1,4.791546822E0,-9.468404055E-1,-4.790019989E0
1.235650438E1,3.235445261E0,-1.858556122E-1,-3.978027821E0
1.237317031E1,2.172846079E0,3.685041666E-1,-2.919170141E0
1.238983625E1,2.185826778E0,6.653081179E-1,-2.082056284E0
1.240650219E1,2.964374065E0,8.067996502E-1,-1.825798512E0
1.242316812E1,2.926194906E0,6.130027771E-1,-5.914698243E-1
1.243983406E1,1.346040487E0,4.948004782E-1,1.859701514E0
1.245650000E1,-8.153517842E-1,4.954876900E-1,3.946262836E0
1.247316594E1,-2.447811604E0,6.928733587E-1,4.578813076E0
1.248983188E1,-3.525835037E0,9.837977290E-1,4.659600258E0
1.250649781E1,-4.669832230E0,1.453247309E0,5.146459579E0
1.252316375E1,-6.099790096E0,1.870391607E0,5.871097565E0
1.253982969E1,-7.556015491E0,1.495855093E0,7.100386620E0
1.255649562E1,-8.293252945E0,-6.168970466E-1,8.026457787E0
1.257316156E1,-8.394886017E0,-3.023704290E0,7.873589039E0
1.258982750E1,-8.724981308E0,-3.439932168E-1,5.981740475E0
1.260649344E1,-8.041194916E0,3.029125690E0,2.942611933E0
1.262315938E1,-5.269701481E0,2.503094673E0,7.181479335E-1
1.263982531E1,-2.068540812E0,1.087033868E0,-8.032871783E-2
1.265649125E1,-1.415679157E-1,3.897317350E-1,4.592939615E-1
1.267315719E1,1.408043355E-1,-8.414662629E-2,1.392924428E0
1.268982312E1,3.747655451E-1,-2.561814189E-1,1.408501506E0
1.270648906E1,1.335961223E0,-2.952767611E-1,1.877645552E-1
1.272315500E1,2.137263060E0,-3.853029609E-1,-1.065042734E0
1.273982094E1,2.234696150E0,-3.996582925E-1,-1.428354621E0
1.275648688E1,2.253861904E0,-2.402225733E-1,-1.598022223E0
1.277315281E1,2.715446711E0,-2.816850245E-1,-2.006843567E0
1.278981875E1,3.669235706E0,-5.996401310E-1,-2.795699120E0
1.280648469E1,4.420599461E0,-7.667880058E-1,-3.660149097E0
1.282315062E1,4.533761978E0,-1.173089504E0,-3.854251385E0
1.283981656E1,4.066755772E0,-1.528383732E0,-3.478034973E0
1.285648250E1,2.598695040E0,-1.611461282E0,-2.723464251E0
1.287314844E1,-2.243400961E-1,-1.701792955E0,-1.664530158E0
1.288981438E1,-2.588845015E0,2.612210512E-1,-1.886732221E0
1.290648031E1,-3.493764639E0,1.700800300E0,-2.256839991E0
1.292314625E1,-3.486129045E0,1.337564826E0,-1.645058870E0
1.293981219E1,-2.971246243E0,1.249905705E0,-7.156280875E-1
1.295647812E1,-1.960341454E0,1.346040487E0,7.903063297E-2
1.297314406E1,-2.081368923E0,1.081841469E0,8.976657987E-1
1.298981000E1,-2.935128927E0,4.201986194E-1,1.204625368E0
1.300647594E1,-4.107149124E0,-6.430879235E-1,1.086652040E0
1.302314188E1,-5.265501499E0,2.237292230E-1,3.508654535E-1
1.303980781E1,-4.331718445E0,2.889161348E0,-1.382997870E0
1.305647375E1,-8.704823256E-2,3.363039732E0,-2.319148064E0
1.307313969E1,4.751077175E0,1.128725410E0,-2.936426878E0
1.308980562E1,6.377199173E0,-3.199404180E-1,-3.384419918E0
1.310647156E1,4.899899006E0,4.317286909E-1,-3.041495800E0
1.312313750E1,2.668944597E0,1.664453864E0,-3.074558735E0
1.313980344E1,1.710421324E0,2.778213024E0,-3.878762245E0
1.315646938E1,2.508898020E0,3.461236238E0,-4.596299171E0
1.317313531E1,4.398684502E0,2.603582144E0,-4.392499447E0
1.318980125E1,5.933176994E0,7.481566668E-1,-3.442910194E0
1.320646719E1,5.850939274E0,-4.613556266E-1,-1.758068800E0
1.322313312E1,3.198106289E0,-9.487493634E-1,9.359975457E-1
1.323979906E1,-5.591703653E-1,-1.280601621E0,3.188485146E0
1.325646500E1,-3.204214811E0,-1.280296206E0,3.522398949E0
1.327313094E1,-4.045910358E0,-5.645917654E-1,2.457890749E0
1.328979688E1,-3.981005669E0,-7.822123766E-1,1.423467636E0
1.330646281E1,-4.069428444E0,-1.744095325E0,1.870238900E0
1.332312875E1,-3.986274481E0,-2.743088245E0,3.480249405E0
1.333979469E1,-4.868744850E0,-2.921155453E0,5.217319489E0
1.335646062E1,-6.324588299E0,-1.276478291E0,5.433107853E0
1.337312656E1,-6.622690678E0,7.128791809E-1,3.639837742E0
1.338979250E1,-4.197938919E0,4.590648711E-1,2.748051643E0
1.340645844E1,-2.509890795E-1,-6.653844714E-1,2.151542187E0
1.342312438E1,1.596800566E0,-7.370846868E-1,8.193223923E-2
1.343979031E1,7.412080765E-1,2.720639110E-1,-1.859090567E0
1.345645625E1,-9.818124175E-1,1.219820619E0,-2.803869247E0
1.347312219E1,-1.842062712E0,1.259297729E0,-2.898095131E0
1.348978812E1,-1.548694968E0,8.640682101E-1,-2.723540545E0
1.350645406E1,-6.531671882E-1,4.331031144E-1,-2.651458502E0
1.352312000E1,2.188423127E-1,2.764926851E-1,-2.669860840E0
1.353978594E1,7.466294765E-1,4.428006113E-1,-2.728351116E0
1.355645188E1,9.872338176E-1,6.038398147E-1,-2.613584995E0
1.357311781E1,1.209512234E0,2.499964088E-1,-2.267759085E0
1.358978375E1,1.261512160E0,-4.815905094E-1,-1.550680280E0
1.360644969E1,8.326086998E-1,-1.395520568E0,-4.005745649E-1
1.362311562E1,-1.941786408E-1,-2.053574562E0,7.902299762E-1
1.363978156E1,-1.883372426E0,-2.088393927E0,1.402545571E0
1.365644750E1,-3.898997068E0,-1.639561057E0,1.254792571E0
1.367311344E1,-5.554287910E0,-1.077641845E0,6.060542464E-1
1.368977938E1,-6.070926666E0,-5.675697327E-1,-9.659299254E-2
1.370644531E1,-5.199986458E0,-1.277012825E0,-2.987128794E-1
1.372311125E1,-4.244975567E0,-3.528354883E0,6.220894456E-1
1.373977719E1,-4.193663120E0,-6.036870956E0,2.683223486E0
1.375644312E1,-4.285980225E0,-9.403194427E0,3.047069788E0
1.377310906E1,-6.526784897E0,-4.050033569E0,3.664043188E0
1.378977500E1,-8.037758827E0,1.814802885E0,4.388452530E0
1.380644094E1,-7.014407635E0,7.441860437E-1,5.189983368E0
1.382310688E1,-3.500942469E0,-3.204062223E0,5.828108311E0
1.383977281E1,-1.434921384E0,-1.404607177E0,4.914177895E0
1.385643875E1,-1.884899616E0,1.612988472E0,2.542113781E0
1.387310469E1,-2.651535034E0,1.701334715E0,-3.918697536E-1
1.388977062E1,-3.049513340E0,1.519907951E0,-2.283336163E0
1.390643656E1,-2.436052322E0,3.029125631E-1,-2.653367519E0
1.392310250E1,-1.412243009E0,-2.490343094E0,-2.615341187E0
1.393976844E1,-1.692553639E0,-3.516366720E0,-3.227274895E0
1.395643438E1,-4.460305691E0,-1.962479472E0,-3.384801626E0
1.397310031E1,-7.689489365E0,6.934842467E-1,-2.486830473E0
1.398976625E1,-8.844711304E0,2.430630922E0,-1.386815786E0
1.400643219E1,-7.779439449E0,8.493311405E-1,-2.286925018E-1
1.402309812E1,-6.556869984E0,8.819360286E-2,1.764635593E-1
1.403976406E1,-3.789117813E0,5.762745738E-1,-9.957095981E-2
1.405643000E1,7.564796805E-1,-1.836412251E-1,8.048906922E-1
1.407309594E1,2.381838083E0,9.104176164E-1,1.645593405E0
1.408976188E1,1.423009515E0,1.576412916E0,8.628465235E-3
1.410642781E1,-7.750346661E-1,1.276020169E0,-1.637117624E0
1.412309375E1,-2.435517788E0,2.973460674E0,-3.774838924E0
1.413975969E1,-2.312505007E0,5.088274479E0,-5.737089157E0
1.415642562E1,-5.465712547E-1,5.185096741E0,-5.601400852E0
1.417309156E1,1.053665400E0,4.603935242E0,-4.378755093E0
1.418975750E1,1.601916552E0,4.343477726E0,-3.621206522E0
1.420642344E1,8.902590871E-1,4.469773769E0,-3.542939425E0
1.422308938E1,-1.865428388E-1,5.213883400E0,-3.620213747E0
1.423975531E1,-3.275762498E-2,5.832460403E0,-3.362734318E0
1.425642125E1,1.473940372E0,5.254124165E0,-2.980485678E0
1.427308719E1,2.755992889E0,4.656851292E0,-2.358548880E0
1.428975312E1,3.123962402E0,2.472475290E0,-1.869857073E0
1.430641906E1,1.628489137E0,4.825831652E-1,-1.558316112E0
1.432308500E1,-5.648971796E-1,8.256601095E-1,-7.852666974E-1
1.433975094E1,-5.532144308E-1,1.061301231E0,4.103484154E-1
1.435641688E1,7.625119686E-1,2.741255611E-2,1.085124969E0
1.437308281E1,1.217453480E0,-8.277981281E-1,1.251432896E0
1.438974875E1,5.557342172E-1,-1.314810038E0,1.718668103E0
1.440641469E1,-3.958403766E-1,-1.759443283E0,2.481179953E0
1.442308062E1,-1.326034665E0,-1.718820810E0,3.313406944E0
1.443974656E1,-2.182619810E0,-1.567860842E0,3.848371744E0
1.445641250E1,-2.188346624E0,-2.665355682E0,3.600436926E0
1.447307844E1,-1.859930515E0,-3.941375971E0,3.353036880E0
1.448974438E1,-2.286008835E0,-3.999560833E0,3.225671530E0
1.450641031E1,-4.145481110E0,-3.093571901E0,2.814941168E0
1.452307625E1,-6.262585640E0,-3.559967279E0,2.502331257E0
1.453974219E1,-6.451113701E0,-4.857062340E0,2.712010622E0
1.455640812E1,-4.430755138E0,-5.160432816E0,2.893971920E0
1.457307406E1,-2.710559845E0,-3.873569965E0,2.985372543E0
1.458974000E1,-2.766072035E0,-2.149022341E0,2.854341984E0
1.460640594E1,-3.737347126E0,-1.520366073E0,2.526689529E0
1.462307188E1,-3.834474564E0,-1.246927738E0,2.267911911E0
1.463973781E1,-1.792429924E0,-9.007964730E-1,2.162461281E0
1.465640375E1,9.043853283E-1,-1.119638801E0,1.575191140E0
1.467306969E1,1.474245787E0,-1.101389170E0,2.394589931E-1
1.468973562E1,-6.375901401E-2,-3.504836559E-1,-1.234634042E0
1.470640156E1,-1.515708208E0,2.515999377E-1,-2.130620003E0
1.472306750E1,-1.716071844E0,6.562215090E-1,-2.324416876E0
1.473973344E1,-6.343067288E-1,1.632536054E-1,-1.995542526E0
1.475639938E1,1.369100660E-1,-4.383718371E-1,-2.141081095E0
1.477306531E1,-4.360810816E-1,2.100611329E-1,-2.817842960E0
1.478973125E1,-6.672934294E-1,1.155985236E0,-3.006523609E0
1.480639719E1,1.748294950E0,7.192169428E-1,-4.087296009E0
1.482306313E1,5.652484417E0,3.436114267E-2,-7.404520988E0
1.483972906E1,7.196063519E0,-2.410625070E-1,-9.724432945E0
1.485639500E1,6.394150734E0,-1.312595755E-1,-9.837213516E0
1.487306094E1,5.131111622E0,-9.964732081E-2,-8.626250267E0
1.488972688E1,3.535074472E0,8.953750730E-1,-6.169046879E0
1.490639281E1,2.795775414E0,1.028925419E0,-3.129154921E0
1.492305875E1,2.446513414E0,-8.286380768E-1,2.057850659E-1
1.493972469E1,1.850309372E0,-1.661857605E0,3.054476500E0
1.495639063E1,6.384300590E-1,1.433241516E-1,4.618596077E0
1.497305656E1,-3.825540543E-1,2.067700863E0,6.411636829E0
1.498972250E1,-4.114937782E-1,1.728976369E0,7.700408459E0
1.500638844E1,-6.569850445E-1,1.804952741E0,7.803874016E0
1.502305438E1,-1.627343774E0,1.790444613E0,7.476832390E0
1.503972031E1,-3.216966629E0,1.787924886E0,7.801583290E0
1.505638625E1,-4.434725761E0,1.960494161E0,7.728890419E0
1.507305219E1,-4.524751663E0,1.184466839E0,6.851153851E0
1.508971813E1,-2.891070366E0,-1.538615704E0,6.717679977E0
1.510638406E1,-1.877722025E0,-6.863065958E-1,4.890201569E0
1.512305000E1,-4.464810848E0,3.051269531E0,3.618610203E-1
1.513971594E1,-7.788144112E0,4.424417019E0,-1.395749688E0
1.515638188E1,-7.679333687E0,1.271209598E0,-7.107411623E-1
1.517304781E1,-5.629882336E0,-1.172478557E0,1.462257504E-1
1.518971375E1,-4.137768745E0,-1.397124052E0,6.398808211E-2
1.520637969E1,-4.531929493E0,-5.349648595E-1,-4.238637984E-1
1.522304563E1,-4.310567379E0,9.311869740E-1,-5.950586796E-1
1.523971156E1,-6.477457285E-1,1.033277750E0,-6.015490890E-1
1.525637750E1,3.808970928E0,4.265363216E-1,-8.805615902E-1
1.527304344E1,5.006571293E0,9.588286281E-1,-1.652236462E0
1.528970938E1,2.574795008E0,3.607920170E0,-2.378249407E0
1.530637531E1,3.835467100E-1,4.578889847E0,-3.100062370E0
1.532304125E1,6.960040331E-1,3.133430958E0,-2.969642878E0
1.533970719E1,2.896949768E0,2.498818636E0,-2.815399408E0
1.535637313E1,5.886522293E0,2.077551126E0,-5.547186852E0
1.537303906E1,7.763022423E0,8.806379437E-1,-9.699005127E0
1.538970500E1,7.378101349E0,9.776127338E-1,-1.121288109E1
1.540637094E1,5.626980782E0,7.047088742E-1,-9.673501968E0
1.542303688E1,3.517435789E0,1.029383540E0,-6.838936806E0
1.543970281E1,3.082805395E0,1.245782375E0,-4.128987789E0
1.545636875E1,4.019184589E0,1.133154184E-1,-1.178052783E0
1.547303469E1,4.764363289E0,-1.008766770E0,1.755319953E0
1.548970063E1,3.584783554E0,-1.007850528E0,4.509251118E0
1.550636656E1,1.297171354E0,-5.459604040E-2,7.257455349E0
1.552303250E1,-2.425133139E-1,3.869064748E-1,9.074090958E0
1.553969844E1,-1.044655085E0,2.994764447E-1,9.090431213E0
1.555636438E1,-1.938655734E0,8.116865754E-1,8.604564667E0
1.557303031E1,-2.960556269E0,1.797087789E0,8.324712753E0
1.558969625E1,-5.022071838E0,2.467817307E0,8.759037018E0
1.560636219E1,-6.938125610E0,2.059607029E0,9.072716713E0
1.562302813E1,-6.089023590E0,-8.893427849E-1,7.729730129E0
1.563969406E1,-3.165195942E0,-1.462563038E0,5.141419888E0
1.565636000E1,-2.898018837E0,1.331379771E0,1.196073294E0
1.567302594E1,-5.744038105E0,3.707491159E0,-1.708130598E0
1.568969188E1,-7.963004112E0,3.167792082E0,-2.389397621E0
1.570635781E1,-7.614353180E0,1.024572968E0,-2.504011154E0
1.572302375E1,-6.067185402E0,3.261254430E-1,-2.664363146E0
1.573968969E1,-4.423119068E0,2.816850245E-1,-2.698724270E0
1.575635563E1,-2.616333961E0,-1.939495653E-2,-2.511035919E0
1.577302156E1,-6.117810607E-1,-4.526508152E-1,-2.307770729E0
1.578968750E1,1.059850335E0,-8.818596601E-1,-1.968664527E0
1.580635344E1,1.727907419E0,-8.137482405E-1,-1.611995816E0
1.582301938E1,1.460195899E0,-6.918043643E-2,-1.687666655E0
1.583968531E1,1.121394992E0,8.358920813E-1,-2.202472925E0
1.585635125E1,1.192637086E0,1.463326573E0,-2.847088099E0
1.587301719E1,1.601152897E0,2.057698011E0,-3.456196547E0
1.588968313E1,2.177656651E0,2.518824577E0,-3.745975494E0
1.590634906E1,3.050505877E0,2.243782759E0,-4.007196426E0
1.592301500E1,4.030333042E0,1.406210780E0,-4.999927998E0
1.593968094E1,4.712668896E0,1.603596449E0,-6.056190014E0
1.595634688E1,5.074606419E0,2.406272650E0,-6.200124741E0
1.597301281E1,5.428831577E0,2.373133421E0,-5.246259212E0
1.598967875E1,5.891638279E0,1.271973133E0,-3.500026226E0
1.600634469E1,6.177980900E0,3.654498458E-1,-1.853592873E0
1.602301062E1,5.399815559E0,-1.672242396E-2,-3.000109792E-1
1.603967656E1,3.329747438E0,4.993819445E-2,1.184161425E0
1.605634250E1,1.431332588E0,9.684497714E-1,2.309679747E0
1.607300844E1,9.453132749E-2,1.383532405E0,3.922591925E0
1.608967438E1,-1.236772060E0,1.731038094E-1,6.277781010E0
1.610634031E1,-2.285856009E0,-5.762745738E-1,7.245085239E0
1.612300625E1,-3.217501163E0,-6.648499370E-1,6.609633446E0
1.613967219E1,-4.908451080E0,-7.156280875E-1,5.814669132E0
1.615633812E1,-7.031129837E0,-6.659189463E-1,5.229842663E0
1.617300406E1,-8.487736702E0,-7.497601509E-1,4.485809326E0
1.618967000E1,-8.210022926E0,-2.081140041E0,3.962297916E0
1.620633594E1,-7.468509197E0,-3.261559725E0,4.494513988E0
1.622300188E1,-7.285326004E0,-8.208495378E-1,4.604011536E0
1.623966781E1,-5.921799660E0,1.645440698E0,2.409403324E0
1.625633375E1,-7.522036433E-1,1.021518588E0,5.939896107E-1
1.627299969E1,4.777344227E0,-9.214131832E-1,-1.226540089E0
1.628966562E1,5.556502342E0,-2.085186958E0,-3.097084522E0
1.630633156E1,2.149938583E0,-3.303251266E-1,-3.120144606E0
1.632299750E1,-8.598685265E-1,1.310992122E0,-2.650465965E0
1.633966344E1,-9.805907011E-1,1.657734275E0,-2.576016665E0
1.635632938E1,1.278769016E0,1.037172079E0,-2.443306446E0
1.637299531E1,3.753764153E0,1.969275326E-1,-2.783939838E0
1.638966125E1,4.681133270E0,-1.901316643E-2,-3.487732410E0
1.640632719E1,4.597597599E0,6.261363626E-2,-3.793470383E0
1.642299312E1,4.549109936E0,2.168569900E-2,-3.796219110E0
1.643965906E1,4.893026829E0,-4.589885175E-1,-4.130133152E0
1.645632500E1,5.029020786E0,-9.531017542E-1,-4.529943943E0
1.647299094E1,4.451753616E0,-7.442623973E-1,-4.895088673E0
1.648965688E1,2.780122042E0,-4.183660150E-1,-4.320188522E0
1.650632281E1,2.771798968E-1,1.204167232E-1,-2.923675299E0
1.652298875E1,-1.482797861E0,3.943895698E-1,-1.989586592E0
1.653965469E1,-1.718820810E0,8.067996502E-1,-2.287459612E0
1.655632062E1,-9.963204265E-1,1.415908217E0,-2.382678032E0
1.657298656E1,3.148244321E-1,1.469282508E0,-1.677052855E0
1.658965250E1,1.456377983E0,9.485966563E-1,-9.401972294E-1
1.660631844E1,1.887877584E0,1.374445762E-2,-5.240456462E-1
1.662298438E1,1.700571179E0,-1.087262988E0,-3.840048611E-1
1.663965031E1,4.169915617E-1,-9.559270144E-1,-4.734201822E-3
1.665631625E1,-1.491197228E0,8.886555433E-1,3.144426346E-1
1.667298219E1,-2.732550859E0,2.784245253E0,8.721621633E-1
1.668964812E1,-1.949880362E0,2.226296663E0,1.919795275E0
1.670631406E1,6.444623470E-1,-8.493311405E-1,1.812741280E0
1.672298000E1,2.233321667E0,-2.251342058E0,1.440877318E-1
1.673964594E1,1.275027514E0,-4.156171381E-1,-1.300683856E0
1.675631188E1,-3.469711840E-1,1.857868910E0,-1.675983906E0
1.677297781E1,-4.709767401E-1,2.429409266E0,-1.415984511E0
1.678964375E1,1.018922448E0,8.062651753E-1,-9.609666467E-1
1.680630969E1,2.685972452E0,-8.851430416E-1,-5.960513353E-1
1.682297562E1,3.268126488E0,-7.524327040E-1,-6.980656981E-1
1.683964156E1,2.840368509E0,6.679806113E-1,-1.057941437E0
1.685630750E1,2.115424633E0,1.605352640E0,-7.086031437E-1
1.687297344E1,1.927507401E0,1.180419803E0,4.052324295E-1
1.688963938E1,2.413603067E0,1.576794684E-1,1.654909015E0
1.690630531E1,3.030958414E0,-1.786015928E-1,1.734092355E0
1.692297125E1,2.972162485E0,8.005383015E-1,7.188351154E-1
1.693963719E1,2.389626741E0,1.696905971E0,-2.115882933E-1
1.695630312E1,1.788688421E0,2.043495417E0,-4.427242577E-1
1.697296906E1,1.513570189E0,1.989281178E0,-1.945604384E-1
1.698963500E1,1.772042394E0,1.301523805E0,2.752709389E-1
1.700630094E1,2.229885578E0,7.513637096E-2,7.023417950E-1
1.702296688E1,2.024634838E0,-4.813614488E-1,8.309288025E-1
1.703963281E1,1.049312949E0,-1.643989831E-1,8.623120189E-1
1.705629875E1,-4.035525322E-1,2.674060464E-1,1.086346626E0
1.707296469E1,-1.870391607E0,3.317759335E-1,1.500207543E0
1.708963062E1,-2.401004076E0,-5.940660238E-1,2.241720915E0
1.710629656E1,-2.081979990E0,-1.621540546E0,3.691074133E0
1.712296250E1,-1.426522017E0,-1.796018839E0,4.645092010E0
1.713962844E1,-8.341358304E-1,-7.969494462E-1,3.020726442E0
1.715629438E1,-5.413788930E-2,3.750709891E-1,3.839285076E-1
1.717296031E1,9.095013142E-1,9.312633276E-1,-7.994692922E-1
1.718962625E1,1.669417143E0,6.441569328E-1,-7.374665141E-1
1.720629219E1,2.078238249E0,1.229365394E-1,-4.655553102E-1
1.722295812E1,2.225227594E0,2.804632783E-1,-4.134790897E-1
1.723962406E1,2.225991249E0,6.817250848E-1,-4.456258714E-1
1.725629000E1,2.041815519E0,8.129082918E-1,-3.632354736E-1
1.727295594E1,1.732794285E0,8.566614985E-1,-2.170860767E-1
1.728962188E1,1.667508125E0,9.757801294E-1,-1.056796089E-1
1.730628781E1,2.153832912E0,8.513928056E-1,1.780670881E-1
1.732295375E1,2.954676628E0,5.080868006E-1,6.181188226E-1
1.733961969E1,3.601353407E0,9.498947114E-2,3.493382931E-1
1.735628562E1,3.719631910E0,1.185841262E-1,-1.685986817E-1
1.737295156E1,3.284238100E0,8.822414875E-1,3.810268939E-1
1.738961750E1,2.908250809E0,8.316160440E-1,1.751807451E0
1.740628344E1,3.159010887E0,-2.047924101E-1,1.716911793E0
1.742294938E1,3.683056355E0,-5.495492220E-1,-4.108829200E-1
1.743961531E1,3.329365730E0,2.286161482E-1,-2.726442337E0
1.745628125E1,2.108399868E0,1.423009515E0,-4.271090031E0
1.747294719E1,1.451185584E0,2.338543177E0,-4.961367607E0
1.748961312E1,1.928729177E0,2.570900679E0,-4.749244690E0
1.750627906E1,2.953683853E0,1.930332661E0,-3.912359953E0
1.752294500E1,3.588296175E0,1.691637278E0,-3.207192898E0
1.753961094E1,3.451156855E0,2.497520685E0,-2.746218920E0
1.755627688E1,2.900844097E0,3.563403368E0,-2.038303137E0
1.757294281E1,2.520428181E0,3.598680735E0,-8.969022036E-1
1.758960875E1,2.397415161E0,2.647564411E0,5.577958822E-1
1.760627469E1,2.381990910E0,1.696142435E0,1.868482590E0
1.762294063E1,2.257297993E0,1.404454470E0,2.567693710E0
1.763960656E1,1.835572362E0,1.606192589E0,3.088455915E0
1.765627250E1,1.425758362E0,1.406210780E0,3.673358917E0
1.767293844E1,1.374063969E0,7.042507529E-1,4.065152168E0
1.768960438E1,1.359403253E0,2.507599890E-1,4.336834431E0
1.770627031E1,1.093218923E0,8.689551800E-2,4.605538845E0
1.772293625E1,6.718748808E-1,-4.085158184E-2,4.612181664E0
1.773960219E1,1.020907760E-1,-3.932442144E-2,4.039343357E0
1.775626813E1,-4.124100804E-1,3.044397235E-1,3.179398537E0
1.777293406E1,-2.318231910E-1,8.651372790E-2,2.564563036E0
1.778960000E1,5.786416531E-1,-9.262236953E-1,2.236223221E0
1.780626594E1,9.732602835E-1,-1.573969483E0,1.300760150E0
1.782293188E1,2.351829410E-2,-6.549997330E-1,7.208204269E-2
1.783959781E1,-9.769254923E-1,1.082757786E-1,-7.228057384E-1
1.785626375E1,-7.344121933E-1,-4.088976085E-1,-1.105741620E0
1.787292969E1,2.685514390E-1,-9.151517749E-1,-1.309541345E0
1.788959563E1,9.434043169E-1,-5.438223481E-1,-1.416290045E0
1.790626156E1,1.056643367E0,1.028543562E-1,-1.511508584E0
1.792292750E1,8.655190468E-1,3.829358518E-1,-1.459737778E0
1.793959344E1,8.157335520E-1,3.066541255E-1,-1.115668178E0
1.795625938E1,1.325500250E0,1.069013402E-2,-5.548942685E-1
1.797292531E1,2.242484570E0,4.298960790E-2,1.108719558E-1
1.798959125E1,3.123962402E0,2.134972364E-1,5.430588126E-1
1.800625719E1,3.456960201E0,6.375901401E-2,4.753291607E-1
1.802292313E1,2.882518291E0,1.458439678E-1,8.124501258E-2
1.803958906E1,1.529834509E0,7.126501203E-1,-2.706894577E-1
1.805625500E1,6.052142978E-1,1.239979148E0,-1.145371497E-1
1.807292094E1,7.559451461E-1,1.423314929E0,2.464839369E-1
1.808958688E1,1.520366073E0,1.526322007E0,-1.477529258E-1
1.810625281E1,2.400622129E0,1.874667645E0,-1.556254387E0
1.812291875E1,3.469177485E0,1.760665059E0,-2.701167583E0
1.813958469E1,4.947546482E0,9.568433166E-1,-2.335259676E0
1.815625063E1,6.164083958E0,-2.250273079E-1,-1.808617949E0
1.817291656E1,6.151637554E0,-2.753472924E-1,-3.050276995E0
1.818958250E1,5.005502224E0,4.392117858E-1,-5.213196278E0
1.820624844E1,4.078438759E0,9.182060957E-1,-6.517774582E0
1.822291438E1,3.945346594E0,1.044273376E0,-6.393616199E0
1.823958031E1,4.187401772E0,6.649262905E-1,-5.264509201E0
1.825624625E1,4.134027481E0,8.006910086E-1,-3.854022264E0
1.827291219E1,3.566610336E0,1.441259146E0,-2.189263105E0
1.828957813E1,2.542724609E0,1.238528371E0,-4.399753511E-1
1.830624406E1,1.393382549E0,3.149771392E-1,1.575954795E0
1.832291000E1,1.086728454E0,-3.960694373E-1,3.102200508E0
1.833957594E1,1.596342444E0,-1.669951528E-1,3.596237421E0
1.835624188E1,1.687055826E0,1.058628678E0,3.409465313E0
1.837290781E1,5.995637774E-1,2.590066671E0,3.482005596E0
1.838957375E1,-1.223104000E0,3.279351234E0,4.325304508E0
1.840623969E1,-2.836856127E0,2.847928047E0,5.436390877E0
1.842290563E1,-3.642739296E0,1.656741619E0,6.121017933E0
1.843957156E1,-4.058661938E0,7.963386178E-1,6.191038132E0
1.845623750E1,-4.136547089E0,8.982766867E-1,5.854146481E0
1.847290344E1,-4.235888958E0,1.353523612E0,5.253131866E0
1.848956938E1,-5.175475597E0,2.066860914E0,4.496499062E0
1.850623531E1,-6.219825268E0,2.296011686E0,3.883267403E0
1.852290125E1,-5.531991482E0,5.965094566E-1,3.074787855E0
1.853956719E1,-3.103116751E0,-7.647263408E-1,1.705534458E0
1.855623313E1,-1.889557481E0,-3.891972303E-1,2.154825479E-1
1.857289906E1,-2.057698011E0,1.190422773E-1,-1.120020628E0
1.858956500E1,-2.234848738E0,2.371682525E-1,-2.007759809E0
1.860623094E1,-1.766391873E0,-2.735147178E-1,-2.266766548E0
1.862289688E1,-1.429118156E0,-7.648790479E-1,-1.824194908E0
1.863956281E1,-1.527772784E0,-7.993165851E-1,-1.232114315E0
1.865622875E1,-6.558396816E-1,-7.011964321E-1,-1.332983255E0
1.867289469E1,1.308701396E0,-6.893609166E-1,-2.072587729E0
1.868956063E1,2.620991707E0,-1.815031916E-1,-2.979722023E0
1.870622656E1,2.262643099E0,4.464657903E-1,-3.247204542E0
1.872289250E1,9.691369534E-1,5.220603347E-1,-2.667340994E0
1.873955844E1,7.032580972E-1,-4.547888339E-1,-2.239277601E0
1.875622438E1,1.882303476E0,-1.151480079E0,-2.496375322E0
1.877289031E1,3.307756424E0,-1.747836918E-1,-3.353876829E0
1.878955625E1,4.010556221E0,8.679624796E-1,-4.498790264E0
1.880622219E1,4.596604824E0,8.076395988E-1,-5.277413368E0
1.882288813E1,5.863843918E0,5.827649832E-1,-6.015032768E0
1.883955406E1,6.798161507E0,5.829176903E-1,-5.812302113E0
1.885622000E1,6.942707062E0,1.834121495E-1,-5.412109375E0
1.887288594E1,6.561527729E0,1.757763475E-1,-4.839881420E0
1.888955188E1,5.741441727E0,2.459494323E-1,-3.824242592E0
1.890621781E1,5.067657948E0,5.917752534E-2,-2.200716734E0
1.892288375E1,4.333856583E0,-1.817322709E-2,-2.921460867E-1
1.893954969E1,2.660239697E0,-1.748600453E-1,1.226081967E0
1.895621563E1,9.523382187E-1,-1.119409725E-1,2.006843567E0
1.897288156E1,2.609919906E-1,5.760455132E-1,2.243782759E0
1.898954750E1,-3.361283541E-1,1.415068269E0,3.315315962E0
1.900621344E1,-1.757992506E0,1.929263711E0,5.853458881E0
1.902287938E1,-2.607170820E0,1.973398685E0,8.321658134E0
1.903954531E1,-2.511341572E0,1.720500708E0,9.818047523E0
1.905621125E1,-2.550131321E0,1.791360974E0,1.048862457E1
1.907287719E1,-3.555996656E0,3.023398876E0,1.056200504E1
1.908954313E1,-5.211516380E0,5.589030743E0,9.455881119E0
1.910620906E1,-7.088245869E0,8.090292931E0,7.610764503E0
1.912287500E1,-7.642071247E0,6.144077778E0,6.960040569E0
1.913954094E1,-5.373395443E0,2.511417866E-1,6.467683792E0
1.915620688E1,-2.963304996E0,-2.383136153E-1,3.640066862E0
1.917287281E1,-3.310352564E0,4.713127136E0,-2.053269297E-1
1.918953875E1,-4.801244259E0,6.889714718E0,-1.893909931E0
1.920620469E1,-4.897990227E0,4.457556725E0,-2.370308161E0
1.922287063E1,-3.537746906E0,1.233259678E0,-2.589532137E0
1.923953656E1,-1.664835572E0,-1.280525327E-1,-3.310657978E0
1.925620250E1,-7.712167688E-3,2.962694131E-2,-4.161211014E0
1.927286844E1,1.382310629E0,1.992946416E-1,-4.827893257E0
1.928953438E1,1.992106438E0,2.076176703E-1,-5.185478210E0
1.930620031E1,1.606192589E0,-6.505709887E-2,-4.939681530E0
1.932286625E1,1.281136155E0,4.329504073E-2,-4.025827885E0
1.933953219E1,2.065028429E0,5.382482409E-1,-3.292866707E0
1.935619813E1,2.974758863E0,1.723707676E0,-3.958556414E0
1.937286406E1,2.913214207E0,2.741942883E0,-5.207698822E0
1.938953000E1,3.085096121E0,2.348469734E0,-5.199910164E0
1.940619594E1,4.680598736E0,6.260600686E-1,-4.598513603E0
1.942286188E1,6.924992085E0,-1.980041862E0,-5.279627800E0
1.943952781E1,7.450106621E0,-1.969809890E0,-7.147270679E0
1.945619375E1,5.639885426E0,2.134208828E-1,-7.713084221E0
1.947285969E1,3.539885044E0,1.503720045E0,-7.001655579E0
1.948952563E1,3.050200462E0,1.632307053E0,-5.515574455E0
1.950619156E1,3.984823704E0,1.345964193E0,-3.664959669E0
1.952285750E1,4.495277405E0,1.076649189E0,-2.033187151E0
1.953952344E1,3.871050119E0,1.140637279E0,-5.667297840E-1
1.955618938E1,2.737056017E0,1.316108227E0,7.720566988E-1
1.957285531E1,2.264704704E0,1.677587390E0,1.639408350E0
1.958952125E1,2.510272503E0,2.145662546E0,2.371071577E0
1.960618719E1,1.981492639E0,2.374507666E0,3.855396748E0
1.962285313E1,-2.477056682E-1,1.923765898E0,6.124912262E0
1.963951906E1,-2.459188938E0,8.035162687E-1,7.806699276E0
1.965618500E1,-2.697502613E0,6.971494108E-2,7.797383308E0
1.967285094E1,-2.766835690E0,2.798524201E-1,7.510200500E0
1.968951688E1,-4.383412838E0,1.792811751E0,7.929024696E0
1.970618281E1,-6.450655937E0,2.295706272E0,8.348689079E0
1.972284875E1,-8.027984619E0,3.463603258E-1,8.923741341E0
1.973951469E1,-6.836646080E0,4.859429300E-1,6.932398796E0
1.975618063E1,-4.634783745E0,3.436954260E0,2.422842503E0
1.977284656E1,-3.870591879E0,5.015734196E0,-9.399681687E-1
1.978951250E1,-4.363941669E0,4.322173595E0,-1.667431831E0
1.980617844E1,-4.731529713E0,2.503094673E0,-1.145447850E0
1.982284438E1,-4.088823318E0,6.103302836E-1,-6.656135321E-1
1.983951031E1,-3.133278131E0,-1.831830740E-1,-8.076395988E-1
1.985617625E1,-2.638324976E0,2.519817278E-2,-1.318704367E0
1.987284219E1,-2.496451616E0,4.657844007E-1,-1.784488678E0
1.988950813E1,-2.316017389E0,5.234347582E-1,-1.785023212E0
1.990617406E1,-1.747684121E0,2.274707705E-1,-1.245324254E0
1.992284000E1,-8.613957167E-1,-4.743365049E-1,-2.919933498E-1
1.993950594E1,3.677406013E-1,-1.467220783E0,6.905062795E-1
1.995617188E1,1.819308043E0,-2.349767685E0,6.318632364E-1
1.997283781E1,2.636568785E0,-2.540510178E0,-8.335250020E-1
1.998950375E1,2.362061501E0,-1.359479547E0,-2.365039349E0
2.000616969E1,1.352301955E0,5.627591610E-1,-3.015915871E0
2.002283563E1,4.780780375E-1,2.001651049E0,-3.161225319E0
2.003950156E1,4.727329910E-1,2.025703907E0,-3.191386700E0
2.005616750E1,1.336495757E0,7.373901606E-1,-3.019733667E0
2.007283344E1,2.706589222E0,-2.469420880E-1,-2.799822330E0
2.008949938E1,3.857000113E0,-2.410625070E-1,-2.422460556E0
2.010616531E1,4.748328209E0,2.283870727E-1,-1.455385327E0
2.012283125E1,5.680355072E0,-1.313970089E0,1.040073633E0
2.013949719E1,6.350932121E0,-3.847913504E0,9.594395161E-1
2.015616313E1,6.211578369E0,-2.966130257E0,-1.369635224E0
2.017282906E1,4.600880623E0,6.208676696E-1,-3.422293663E0
2.018949500E1,2.783481836E0,3.337230682E0,-3.351738691E0
2.020616094E1,2.050596714E0,2.701014996E0,-1.844964385E0
2.022282688E1,2.099313259E0,1.684459597E-1,-8.058069944E-1
2.023949281E1,1.957134366E0,-1.168126225E0,-5.447386503E-1
2.025615875E1,1.109406829E0,-5.261836648E-1,-5.183187723E-1
2.027282469E1,-5.482511222E-2,8.177188635E-1,-3.297142684E-1
2.028949063E1,-1.218904257E0,1.536859393E0,1.847102344E-1
2.030615656E1,-2.313192129E0,1.188284755E0,8.088613153E-1
2.032282250E1,-3.298516989E0,-3.533089161E-1,1.131321549E0
2.033948844E1,-4.326526165E0,-1.558697820E0,1.571526051E0
2.035615438E1,-5.017414093E0,-1.706908941E0,2.214537621E0
2.037282031E1,-5.530616760E0,-1.391931772E0,3.616472244E0
2.038948625E1,-6.104448318E0,-1.028009057E0,5.589183807E0
2.040615219E1,-6.358491421E0,-2.709185183E-1,5.026424408E0
2.042281813E1,-5.571315765E0,1.768071771E0,2.786612511E0
2.043948406E1,-3.646786451E0,3.863261700E0,3.481165767E-1
2.045615000E1,-7.967203856E-1,3.922668219E0,-1.772576928E0
2.047281594E1,1.623373151E0,1.724318504E0,-2.537990332E0
2.048948188E1,2.503552914E0,-4.777726233E-1,-1.656207085E0
2.050614781E1,2.161621332E0,-1.494098902E0,-4.069122970E-1
2.052281375E1,1.293735266E0,-1.576871037E0,2.825249732E-1
2.053947969E1,5.154171586E-1,-1.031292439E0,3.821722865E-1
2.055614563E1,1.104138121E-1,-4.340957701E-1,1.436295807E-1
2.057281156E1,1.583666950E-1,-7.635809598E-4,-2.620609999E-1
2.058947750E1,5.067123175E-1,8.353576064E-2,-7.920625210E-1
2.060614344E1,1.057941437E0,-1.227074638E-1,-1.231808782E0
2.062280938E1,1.604359984E0,-4.140135944E-1,-1.508759618E0
2.063947531E1,2.043190002E0,-6.788998246E-1,-1.677052855E0
2.065614125E1,2.396575212E0,-7.691551447E-1,-1.863519311E0
2.067280719E1,2.587470531E0,-5.179370046E-1,-2.081063509E0
2.068947313E1,2.605796337E0,2.504545636E-2,-2.321897030E0
2.070613906E1,2.552880287E0,1.356883347E-1,-2.643593788E0
2.072280500E1,2.429409266E0,9.544761851E-3,-2.826089621E0
2.073947094E1,2.237673998E0,2.325867712E-1,-1.792353630E0
2.075613688E1,1.289840937E0,9.413426518E-1,4.544070363E-1
2.077280281E1,1.163697392E-1,-1.572976820E-2,1.013730049E0
2.078946875E1,-1.443168055E-2,-2.651153207E-1,2.084576041E-1
2.080613469E1,9.660826325E-1,7.254019380E-1,-7.775545120E-1
2.082280063E1,2.404745579E0,1.677969217E0,-1.551901937E0
2.083946656E1,3.513388872E0,1.842291832E0,-2.012799501E0
2.085613250E1,3.616243124E0,1.676594734E0,-1.897498727E0
2.087279844E1,2.663370371E0,1.280601621E0,-1.356730700E0
2.088946438E1,1.420566082E0,8.474221826E-1,-8.941532969E-1
2.090613031E1,4.531089365E-1,7.073050737E-1,-6.436987519E-1
2.092279625E1,-2.085339576E-1,6.878337264E-1,-4.921279252E-1
2.093946219E1,-5.216021538E-1,6.026944518E-1,-4.095084667E-1
2.095612813E1,-4.557051361E-1,6.731730103E-1,-5.850557685E-1
2.097279406E1,-3.710239828E-1,8.994220495E-1,-9.997565746E-1
2.098946000E1,-6.153699160E-1,1.257465124E0,-1.527238250E0
2.100612594E1,-1.017853379E0,1.801745653E0,-1.831296206E0
2.102279188E1,-1.238528371E0,2.170478821E0,-1.771049738E0
2.103945781E1,-1.708436131E0,1.573205829E0,-1.128954530E0
2.105612375E1,-2.551124096E0,6.493492723E-1,1.857028902E-1
2.107278969E1,-3.541870356E0,-2.174678594E-1,1.316031814E0
2.108945563E1,-3.899608135E0,3.179551065E-1,1.916970015E0
2.110612156E1,-2.381608963E0,1.851454735E0,1.941175580E0
2.112278750E1,7.426588535E-1,2.497749805E0,8.638391495E-1
2.113945344E1,3.256901979E0,2.012646675E0,-1.185841262E-1
2.115611938E1,3.941986799E0,1.824653149E0,-3.694204688E-1
2.117278531E1,2.940244913E0,1.913839340E0,-1.513417512E-1
2.118945125E1,1.191568136E0,1.723707676E0,1.340848207E-1
2.120611719E1,-4.583776593E-1,1.274034858E0,2.909243405E-1
2.122278313E1,-1.408119678E0,7.248674035E-1,3.763690591E-1
2.123944906E1,-1.639561057E0,3.260490894E-1,5.139663815E-1
2.125611500E1,-1.308395982E0,7.139482349E-2,6.312524080E-1
2.127278094E1,-5.054906011E-1,-5.925388262E-2,6.665298343E-1
2.128944688E1,5.553524494E-1,-1.817322671E-1,5.952877402E-1
2.130611281E1,1.541288137E0,-3.790415823E-1,5.104538798E-1
2.132277875E1,2.205298185E0,-5.361102223E-1,5.145772099E-1
2.133944469E1,2.500040531E0,-6.555342674E-1,5.811614990E-1
2.135611063E1,2.531881809E0,-6.664534807E-1,7.745001912E-1
2.137277656E1,2.442008257E0,-6.798161268E-1,1.011744738E0
2.138944250E1,2.398484230E0,-8.193987608E-1,1.266628146E0
2.140610844E1,2.472627878E0,-1.323514938E0,1.660483241E0
2.142277438E1,2.567999125E0,-2.737361431E0,2.349767685E0
2.143944031E1,2.657261848E0,-4.298349857E0,3.180085659E0
2.145610625E1,2.396040678E0,-5.142259598E0,3.516214132E0
2.147277219E1,1.740200996E0,-4.839728832E0,2.952615023E0
2.148943813E1,1.025641918E0,-3.830656767E0,1.763108492E0
2.150610406E1,6.396517754E-1,-2.403981924E0,1.035415828E-1
2.152277000E1,4.764745235E-1,-7.166207433E-1,-1.364671946E0
2.153943594E1,3.097084463E-1,9.169843793E-1,-2.372675180E0
2.155610188E1,2.648098767E-1,2.050902128E0,-2.846858978E0
2.157276781E1,4.379900396E-1,2.458119869E0,-2.924438715E0
2.158943375E1,7.459422350E-1,2.339841127E0,-2.762712240E0
2.160609969E1,1.041448116E0,2.075947523E0,-2.444833517E0
2.162276563E1,1.279838085E0,1.825263977E0,-2.105269194E0
2.163943156E1,1.430950761E0,1.558926940E0,-1.735161424E0
2.165609750E1,1.508683324E0,1.340084553E0,-1.352912784E0
2.167276344E1,1.541288137E0,1.165835381E0,-1.000672817E0
2.168942938E1,1.619555235E0,9.537889957E-1,-7.746528983E-1
2.170609531E1,1.717904449E0,6.837103963E-1,-7.177661061E-1
2.172276125E1,1.802738309E0,4.757109582E-1,-8.991165757E-1
2.173942719E1,1.804570913E0,3.646862805E-1,-1.233412385E0
2.175609312E1,1.627267361E0,5.774199367E-1,-1.579238176E0
2.177275906E1,1.241582632E0,1.040913582E0,-1.856570840E0
2.178942500E1,7.274636030E-1,1.726991057E0,-2.043342590E0
2.180609094E1,-1.125518382E-1,2.795164585E0,-2.102291107E0
2.182275688E1,-1.453018188E0,4.032394886E0,-1.841604590E0
2.183942281E1,-2.674671412E0,4.098444462E0,-1.211879373E0
2.185608875E1,-3.047757149E0,2.484005213E0,-8.139773011E-1
2.187275469E1,-2.213086843E0,5.284743905E-1,-9.670752883E-1
2.188942062E1,-7.911462188E-1,2.705367506E-1,-1.435532212E0
2.190608656E1,3.474293277E-2,1.698585868E0,-1.766926408E0
2.192275250E1,5.826122686E-2,4.138685226E0,-1.786168575E0
2.193941844E1,-1.829539984E-1,6.094750404E0,-1.508072376E0
2.195608438E1,-3.061959743E-1,6.357193470E0,-1.149723887E0
2.197275031E1,-4.027126133E-1,5.191281796E0,-9.215658903E-1
2.198941625E1,-5.994110703E-1,3.567297697E0,-6.485093236E-1
2.200608219E1,-1.254868984E0,3.792095900E0,-3.775144219E-1
2.202274812E1,-1.367802620E0,3.597229958E0,4.300487936E-1
2.203941406E1,-2.981020212E-1,2.089921236E0,1.276707411E0
2.205608000E1,4.499019086E-1,9.053779840E-1,1.510744929E0
2.207274594E1,2.186895907E-1,5.154171586E-1,1.586186767E0
2.208941188E1,-2.962694168E-1,1.121394992E0,1.603596449E0
2.210607781E1,-5.384773016E-1,1.649334908E0,1.932623386E0
2.212274375E1,-1.422551423E-1,1.781358004E0,2.020206213E0
2.213940969E1,3.965275884E-1,1.589699268E0,1.911090493E0
2.215607562E1,6.108647585E-1,1.555796266E0,1.982943416E0
2.217274156E1,5.345066786E-1,1.786932230E0,2.179183722E0
2.218940750E1,3.820195496E-1,1.366962671E0,2.630841970E0
2.220607344E1,2.277761996E-1,1.002429128E0,3.143280983E0
2.222273938E1,1.960875988E-1,8.183297515E-1,3.396331787E0
2.223940531E1,2.878700197E-1,1.018846035E0,3.468642950E0
2.225607125E1,5.974257588E-1,6.861538887E-1,3.374798775E0
2.227273719E1,8.727730513E-1,2.948949635E-1,3.444590092E0
2.228940312E1,2.399934977E-1,3.178787529E-1,4.051102638E0
2.230606906E1,-9.406554103E-1,-2.439641207E-1,4.462061882E0
2.232273500E1,-1.177136421E0,-5.390118361E-1,3.827526093E0
2.233940094E1,-9.313397408E-1,-5.507709384E-1,2.651229620E0
2.235606688E1,-3.126864135E-1,2.493091822E-1,1.855043650E0
2.237273281E1,5.142717957E-1,1.356348872E0,1.693011761E0
2.238939875E1,6.940951347E-1,2.906341791E0,2.366719246E0
2.240606469E1,3.028362095E-1,3.429700375E0,3.431914806E0
2.242273062E1,2.222020552E-2,4.076682568E0,3.887772560E0
2.243939656E1,-2.561814189E-1,5.465025425E0,4.105774879E0
2.245606250E1,-6.598103046E-1,5.743885040E0,4.547735691E0
2.247272844E1,-8.793398738E-1,5.079951286E0,4.657844067E0
2.248939438E1,-6.694314480E-1,3.681605577E0,4.086532593E0
2.250606031E1,2.026543915E-1,2.117028236E0,3.387779713E0
2.252272625E1,1.313741088E0,8.981239200E-1,2.787223339E0
2.253939219E1,1.924224019E0,4.922043085E-1,2.138103008E0
2.255605812E1,1.630398154E0,4.182133079E-1,1.672471404E0
2.257272406E1,1.100778341E0,5.468766689E-1,1.653305531E0
2.258939000E1,6.996692419E-1,6.293434501E-1,1.809228778E0
2.260605594E1,5.125155449E-1,4.781544209E-1,1.793498993E0
2.262272188E1,5.206094980E-1,1.207221523E-1,1.507232428E0
2.263938781E1,4.921279252E-1,-4.619665071E-2,1.205388904E0
2.265605375E1,3.417788446E-1,1.172096804E-1,1.053054571E0
2.267271969E1,2.151771188E-1,3.976729810E-1,1.007774115E0
2.268938562E1,1.996000707E-1,5.427533388E-1,1.057788730E0
2.270605156E1,3.940077722E-1,4.703658819E-1,1.100091100E0
2.272271750E1,7.282271981E-1,8.468113095E-2,1.089706421E0
2.273938344E1,8.726203442E-1,-4.501309991E-1,9.522618055E-1
2.275604938E1,7.547234297E-1,-4.679224193E-1,7.767145634E-1
2.277271531E1,5.305360556E-1,-9.628756344E-2,6.814196706E-1
2.278938125E1,3.417024910E-1,2.745837271E-1,6.586649418E-1
2.280604719E1,2.949713171E-1,3.205513060E-1,6.196459532E-1
2.282271312E1,4.227947891E-1,4.001164436E-2,6.330085993E-1
2.283937906E1,6.167443395E-1,-2.826776803E-1,6.772963405E-1
2.285604500E1,6.695078015E-1,-4.059959948E-1,6.388118267E-1
2.287271094E1,5.719985366E-1,-2.860374451E-1,4.590648711E-1
2.288937688E1,4.336376488E-1,-1.428660005E-1,3.017672002E-1
2.290604281E1,3.672060966E-1,-6.681333482E-2,2.919933498E-1
2.292270875E1,3.783543706E-1,-1.905898154E-1,3.346011937E-1
2.293937469E1,3.984365463E-1,-3.804923892E-1,3.354411125E-1
2.295604062E1,4.114937782E-1,-4.841867089E-1,3.418551981E-1
2.297270656E1,3.126100600E-1,-4.247037470E-1,3.161988854E-1
2.298937250E1,-1.308014244E-1,-9.025526792E-2,2.002109289E-1
2.300603844E1,-6.114756465E-1,2.399934977E-1,6.429351866E-2
2.302270438E1,-4.138608873E-1,1.069013402E-2,-2.878700197E-2
2.303937031E1,-7.017309219E-2,-3.794233799E-1,-4.405862093E-2
2.305603625E1,2.387717664E-1,-6.297252178E-1,5.551233515E-2
2.307270219E1,4.725802541E-1,-7.293725610E-1,1.876882017E-1
2.308936812E1,5.158752799E-1,-6.453786492E-1,2.366337478E-1
