"Time (s)","Linear Acceleration x (m/s^2)","Linear Acceleration y (m/s^2)","Linear Acceleration z (m/s^2)"
3.482125000E-2,0.000000000E0,0.000000000E0,0.000000000E0
5.148718800E-2,1.332626045E-1,1.198973656E-1,-4.318647385E-1
6.815312500E-2,8.964505792E-2,-4.556727409E-1,-1.524411201E0
8.481906300E-2,1.020348743E-1,-9.167895317E-1,-2.786405563E0
1.014850000E-1,2.643871009E-1,-1.145184517E0,-3.153077126E0
1.181509380E-1,9.575496316E-1,-1.592404842E0,-3.411448002E0
1.348168750E-1,6.769397855E-1,-9.171414375E-1,-2.921063900E0
1.514828130E-1,5.097639561E-1,-2.102496624E-1,-2.471891403E0
1.681487500E-1,1.194151282E0,-4.391698837E-1,-1.887373447E0
1.848146880E-1,1.923047781E0,-1.000247955E0,-1.787376881E0
2.014806250E-1,2.168078184E0,-1.522793293E0,-1.971774578E0
2.181465630E-1,1.760547876E0,-1.933584571E0,-1.693284988E0
2.348125000E-1,1.066936970E0,-1.899510980E0,-8.945312500E-1
2.514784380E-1,1.673404217E0,-1.655355811E0,6.475734711E-1
2.681443750E-1,3.197009087E0,-1.715131164E0,2.089617729E0
2.848103130E-1,4.096672535E0,-1.961164355E0,3.091021538E0
3.014762500E-1,3.102349758E0,-1.596588850E0,3.761042595E0
3.181421880E-1,6.167361736E-1,-7.910845280E-1,4.012965202E0
3.348081250E-1,-2.170511484E0,3.955535889E-1,4.674905777E0
3.514740630E-1,-3.012325764E0,7.246880531E-1,4.881068230E0
3.681400000E-1,-2.337384939E0,1.173596382E-1,3.599951744E0
3.848059380E-1,-2.370540380E0,-1.476979256E-1,5.937614441E-1
4.014718750E-1,-3.082134962E0,5.006954670E-1,-2.633088589E0
4.181378130E-1,-3.399887085E0,1.175554991E0,-5.296312809E0
4.348037500E-1,-3.275077820E0,1.500092268E0,-6.601147652E0
4.514696880E-1,-2.579112530E0,1.356984615E0,-5.967811584E0
4.681356250E-1,-1.941772223E0,4.662892818E-1,-5.767610550E0
4.848015630E-1,-1.349330664E0,-4.069286585E-1,-5.911838531E0
5.014675000E-1,-2.012450218E0,-8.602566719E-1,-5.094424725E0
5.181334380E-1,-2.927179337E0,-4.184564352E-1,-4.997852325E0
5.347993750E-1,-3.981392622E0,-3.192723989E-1,-4.361952305E0
5.514653130E-1,-4.266911030E0,-3.163522482E-1,-3.524959087E0
5.681312500E-1,-4.374479771E0,-3.251156807E-1,-3.316591740E0
5.847971880E-1,-4.823345184E0,-3.962411880E-1,-8.240203857E-1
6.014631250E-1,-6.538420200E0,7.959468365E-1,2.854454041E0
6.181290630E-1,-4.718983173E0,-8.192013502E-1,8.009077072E0
6.347950000E-1,-1.823837876E0,-2.059966326E0,8.380644798E0
6.514609380E-1,2.451353312E0,-3.439868212E0,1.094281101E1
6.681268750E-1,4.077744484E0,-5.006975651E0,1.333174229E1
6.847928130E-1,3.439547300E0,-5.092307091E0,1.560503483E1
7.014587500E-1,2.224273682E0,-4.970587254E0,1.364066029E1
7.181246880E-1,2.812342167E0,-4.909401894E0,8.500047684E0
7.347906250E-1,3.577004194E0,-4.881936073E0,4.207793236E0
7.514565630E-1,4.028479099E0,-3.991618156E0,1.050724030E0
7.681225000E-1,3.969608545E0,-2.661317825E0,-9.592590332E-1
7.847884380E-1,3.555496216E0,-1.705559731E0,-1.785591125E0
8.014543750E-1,2.762163401E0,-1.560920835E0,-2.564080238E0
8.181203130E-1,2.029046535E0,-2.029460907E0,-3.492214680E0
8.347862500E-1,1.631047606E0,-2.369684219E0,-4.233863354E0
8.514521880E-1,1.431442022E0,-2.427439690E0,-4.341302395E0
8.681181250E-1,1.278730035E0,-2.244151592E0,-5.031688690E0
8.847840630E-1,9.654943347E-1,-1.997643590E0,-5.542679310E0
9.014500000E-1,5.599934459E-1,-1.661860704E0,-5.626236439E0
9.181159380E-1,5.917757750E-1,-1.413287759E0,-5.368690014E0
9.347818750E-1,1.324331641E0,-1.946138024E0,-4.985524178E0
9.514478130E-1,2.167360544E0,-3.139841318E0,-4.825842857E0
9.681137500E-1,2.214500427E0,-3.853320122E0,-4.488074780E0
9.847796880E-1,1.126294732E0,-3.566181421E0,-3.258511066E0
1.001445625E0,-1.212596893E-2,-2.440407753E0,-1.252504349E0
1.018111563E0,2.342645228E-1,-1.738077402E0,3.073492050E-1
1.034777500E0,5.007416010E-1,-1.949277878E0,2.538158417E0
1.051443438E0,7.240591645E-1,-2.541982651E0,4.468785286E0
1.068109375E0,1.044029951E0,-2.796897411E0,5.234112740E0
1.084775313E0,8.579733968E-1,-2.645498514E0,5.931934357E0
1.101441250E0,2.177619934E-2,-1.933988571E0,6.206297874E0
1.118107188E0,-7.998795509E-1,-8.169810772E-1,4.518566132E0
1.134773125E0,-9.826744199E-1,2.436881065E-1,4.074672699E0
1.151439063E0,-8.540632725E-1,1.602499485E0,3.958625793E-1
1.168105000E0,1.088242531E-1,1.425037384E0,8.334169388E-1
1.184770938E0,1.326508760E0,6.984555721E-1,-1.111671448E0
1.201436875E0,2.011496305E0,-1.489888072E0,-3.609255791E0
1.218102813E0,3.535347462E0,-4.019469261E0,-4.099928379E0
1.234768750E0,3.932602882E0,-5.727044106E0,-3.892406940E0
1.251434688E0,1.780407190E0,-4.504869938E0,-5.228967667E-1
1.268100625E0,-2.288207054E0,2.653478384E-1,5.520496368E-1
1.284766563E0,-2.712761164E0,9.498018026E-1,4.615983963E-1
1.301432500E0,-1.681307316E0,-1.016775250E0,-8.487577438E-1
1.318098438E0,-8.087115288E-1,-9.024313688E-1,-2.193387508E0
1.334764375E0,-2.933135033E-1,-2.762541771E-1,-3.566450596E0
1.351430313E0,-1.733298302E-1,5.544748306E-1,-2.730787754E0
1.368096250E0,-1.995334864E0,2.600336075E-1,8.993940353E-1
1.384762188E0,-4.900443077E0,-1.228476048E0,-4.081077576E-1
1.401428125E0,-2.374448538E0,7.456240654E-1,-4.056170940E0
1.418094063E0,1.787911654E-1,-1.704905033E-1,-2.547926426E0
1.434760000E0,-4.997301102E-2,3.856010437E-1,-2.160488605E0
1.451425938E0,-8.265626431E-1,1.446091175E0,-6.226172447E-1
1.468091875E0,-1.598548889E0,1.415536880E0,1.250542641E0
1.484757813E0,-1.768481016E0,1.007738113E0,2.804341316E0
1.501423750E0,-1.288683414E0,1.231925011E0,2.553906441E0
1.518089688E0,-1.139818668E0,3.691864014E-1,1.670195580E0
1.534755625E0,-1.713073850E0,-7.681112289E-1,2.724704742E-1
1.551421563E0,-2.562615156E0,-8.243179321E-1,-4.981327057E-2
1.568087500E0,-2.145811081E0,-9.982366562E-1,1.734361649E-1
1.584753438E0,-7.450027466E-1,-1.051206112E0,2.309770584E-1
1.601419375E0,7.882478237E-1,-4.681186676E-1,4.620733261E-1
1.618085313E0,1.285695434E0,-1.790418625E-1,4.376516342E-1
1.634751250E0,5.808286071E-1,-1.729431152E-1,2.563199997E-1
1.651417188E0,-1.088625193E-1,-3.927392960E-1,3.439846039E-1
1.668083125E0,-3.403234482E-2,-8.495948315E-1,4.956750870E-1
1.684749063E0,-8.918166161E-2,-6.441538334E-1,-8.596982956E-1
1.701415000E0,-5.466344357E-1,-4.654307365E-1,-2.082248211E0
1.718080938E0,2.452871799E-1,-4.081888199E-1,-1.847676277E0
1.734746875E0,1.034604907E0,-4.369561672E-1,-1.056044579E0
1.751412813E0,1.449270368E0,-6.542909145E-1,-9.237670898E-1
1.768078750E0,3.805161417E-1,-1.687257290E0,-1.395293713E0
1.784744688E0,-7.150722742E-1,-2.855654240E0,-1.043525696E0
1.801410625E0,-1.185162306E0,-3.261840820E0,-1.518780708E0
1.818076563E0,-5.296208262E-1,-3.257080078E0,-4.231290817E-1
1.834742500E0,1.293714046E-1,-2.309651136E0,-2.136516571E-2
1.851408438E0,2.903557420E-1,-1.841255903E0,3.007717133E-1
1.868074375E0,-7.270591259E-1,-1.560302019E0,8.654327393E-1
1.884740313E0,-1.578666687E0,-3.253518105E0,1.277266502E0
1.901406250E0,-9.623588324E-1,-4.376338005E0,-5.944118500E-1
1.918072188E0,-1.999962330E-2,-2.362477541E0,-2.598613262E0
1.934738125E0,5.004956722E-1,-1.060232639E0,-2.352615356E0
1.951404063E0,-2.247300625E0,1.145664692E0,2.595448494E-1
1.968070000E0,-1.515795708E0,2.841629982E-1,3.681538582E0
1.984735938E0,2.762622833E-1,-6.525793076E-1,5.361974716E0
2.001401875E0,2.138636112E0,4.504370689E-1,4.698927879E0
2.018067813E0,3.221442223E0,1.786602974E0,3.127126694E0
2.034733750E0,3.881673098E0,2.765209198E0,3.124179840E-1
2.051399688E0,3.685184956E0,3.394551754E0,-6.818609238E-1
2.068065625E0,3.115400791E0,2.742914677E0,8.500194550E-1
2.084731563E0,2.438646317E0,2.302649498E0,1.570538521E0
2.101397500E0,2.133207321E0,1.870284081E0,1.927298546E0
2.118063438E0,2.198152542E0,1.546691895E0,1.218955040E0
2.134729375E0,2.284559250E0,1.531611919E0,-3.164911270E-1
2.151395313E0,2.058307409E0,1.525670528E0,-1.125388622E0
2.168061250E0,1.562848568E0,1.065950394E0,-1.269868374E0
2.184727188E0,1.210572839E0,-5.130910873E-1,-2.866779804E0
2.201393125E0,1.028492093E0,-4.937896729E-1,-4.944972992E-1
2.218059063E0,1.153474569E0,-2.938175201E-2,3.506669998E-1
2.234725000E0,1.108070970E0,-5.352783203E-2,-1.014483929E0
2.251390938E0,2.280038595E-1,-1.593160629E-1,-2.592065334E0
2.268056875E0,-3.801691532E-2,-6.192855835E-1,-2.183065414E0
2.284722813E0,3.475856781E-1,-8.626418114E-1,-1.506119251E0
2.301388750E0,6.787453890E-1,-1.438294411E0,-7.795376778E-1
2.318054688E0,7.853465676E-1,-1.110020161E0,-1.062971592E0
2.334720625E0,9.294144511E-1,-1.869883537E-1,-2.154714584E0
2.351386563E0,7.787439227E-1,4.443659782E-1,-2.454861164E0
2.368052500E0,7.513704896E-1,8.319535255E-1,-1.794494152E0
2.384718438E0,7.554166317E-1,1.306426048E0,-8.362503052E-1
2.401384375E0,3.778052926E-1,1.069371223E0,2.226171494E-1
2.418050313E0,1.929696798E-1,1.354183197E0,4.342308044E-1
2.434716250E0,6.068484187E-1,1.610199451E0,-8.712530136E-2
2.451382188E0,8.118050098E-1,2.529964924E0,-1.180786133E0
2.468048125E0,9.314701557E-1,3.133264065E0,-1.563759327E0
2.484714063E0,1.152396083E0,2.713272572E0,-1.007114887E0
2.501380000E0,7.258118391E-1,1.258744240E0,8.266930580E-1
2.518045938E0,7.999730110E-2,-1.409626007E-1,2.684013844E0
2.534711875E0,-6.106613874E-1,-6.147894859E-1,2.962932110E0
2.551377813E0,-9.150567055E-1,-2.770333290E-1,1.607858181E0
2.568043750E0,-1.394553304E0,2.582826614E-1,-3.215532303E-1
2.584709688E0,-1.693940043E0,4.622755051E-1,-2.089082718E0
2.601375625E0,-1.673646212E0,3.933377266E-1,-2.840548038E0
2.618041563E0,-1.454694986E0,1.197814941E-3,-2.551607609E0
2.634707500E0,-1.002318144E0,-1.864533424E-1,-1.913418293E0
2.651373438E0,-6.338424683E-1,-2.669668198E-1,-9.115586281E-1
2.668039375E0,-3.935289979E-1,-2.462158203E-1,7.681369781E-3
2.684705313E0,-3.622317314E-1,-1.411628723E-1,9.675836563E-2
2.701371250E0,-1.893371940E-1,-3.824973106E-1,1.204624176E-1
2.718037188E0,-2.275677919E-1,-1.046089649E0,-4.459667206E-1
2.734703125E0,-6.449107528E-1,-1.366687298E0,-1.770445347E0
2.751369063E0,-1.525343895E0,-1.378983498E0,-2.632005215E0
2.768035000E0,-1.686546445E0,-8.964266777E-1,-3.239357948E0
2.784700938E0,-1.656551361E0,-7.756476402E-1,-3.077256203E0
2.801366875E0,-1.575256109E0,-8.944511414E-1,-2.428217888E0
2.818032813E0,-1.373642206E0,-1.027670383E0,-2.313704014E0
2.834698750E0,-9.639672041E-1,-1.217461586E0,-2.499836922E0
2.851364688E0,-3.360139132E-1,-3.845920563E-1,-2.676906586E0
2.868030625E0,-1.515236259E0,4.440851212E-1,-4.067459106E0
2.884696563E0,-2.093037844E0,-5.549159050E-1,-3.457161903E0
2.901362500E0,-2.936453104E0,-9.395265579E-2,-9.173798561E-1
2.918028438E0,-3.158525229E0,9.259247780E-1,3.884444237E-1
2.934694375E0,-2.999505043E0,1.433839321E0,2.457470894E0
2.951360313E0,-1.968497753E0,1.610547066E0,3.543089867E0
2.968026250E0,-9.859258533E-1,1.563869476E0,3.154541969E0
2.984692188E0,-7.652442455E-1,1.486343861E0,1.484010696E0
3.001358125E0,-1.689441442E0,1.295597076E0,9.575119019E-1
3.018024063E0,-9.532124400E-1,1.698616505E0,4.373044968E-1
3.034690000E0,9.662150145E-1,2.117902756E0,1.887757301E0
3.051355938E0,3.585513830E-1,6.598744392E-1,1.526124954E0
3.068021875E0,1.021703482E-1,1.250829220E0,1.886003494E0
3.084687813E0,2.161492258E-1,3.420581818E-1,2.795669556E0
3.101353750E0,7.559634447E-1,1.615824699E-1,3.397962570E0
3.118019688E0,1.537580013E0,-2.937679291E-1,3.544758797E0
3.134685625E0,2.145354509E0,-4.475259781E-1,4.041986465E0
3.151351563E0,1.630926132E0,-5.574407578E-1,4.622373581E0
3.168017500E0,6.291201115E-1,-5.409955978E-1,4.342033386E0
3.184683438E0,-1.577638388E-1,-8.824062347E-1,2.188909531E0
3.201349375E0,2.280260324E-1,-1.180920601E0,1.143798828E-1
3.218015313E0,1.744361401E0,-9.548301697E-1,-7.887325287E-1
3.234681250E0,2.641688824E0,-4.760646820E-1,-1.292955875E0
3.251347188E0,2.343941927E0,-3.153963089E-1,-2.265366554E0
3.268013125E0,1.046598434E0,-2.511196136E-1,-7.989258766E-1
3.284679063E0,4.478550553E-1,-3.706407547E-2,-1.309652328E-1
3.301345000E0,5.104763508E-1,-5.620508194E-1,-1.023220539E0
3.318010938E0,9.539849758E-1,-7.986688614E-1,-1.290168285E0
3.334676875E0,1.706726909E0,-9.409699440E-1,-1.601514339E0
3.351342813E0,2.097968340E0,-1.118677616E0,-3.527447224E0
3.368008750E0,1.728067517E0,-1.315973759E0,-2.607739925E0
3.384674688E0,1.379411221E0,-1.046560287E0,-2.435814381E0
3.401340625E0,1.042275310E0,-1.014008999E0,-2.852095604E0
3.418006563E0,5.751219988E-1,-9.552464485E-1,-3.157071590E0
3.434672500E0,3.575140834E-1,-9.585223198E-1,-3.059176445E0
3.451338438E0,2.531981468E-2,-5.930428505E-1,-2.534024239E0
3.468004375E0,2.696686983E-2,-2.023873329E-1,-2.273631573E0
3.484670313E0,-6.404983997E-2,7.519769669E-2,-2.151778221E0
3.501336250E0,-3.635483980E-1,4.312229156E-1,-1.793827534E0
3.518002188E0,-9.898329973E-1,5.952816010E-1,-1.553309917E0
3.534668125E0,-1.630311012E0,7.759718895E-1,-7.948408127E-1
3.551334063E0,-2.002358437E0,1.137093067E0,-3.442130089E-1
3.568000000E0,-1.683604002E0,1.384159565E0,-7.072043419E-1
3.584665938E0,-1.318283081E0,1.766570568E0,-7.169361115E-1
3.601331875E0,-1.498038054E0,2.102853775E0,-6.511116028E-2
3.617997813E0,-1.984118819E0,2.432515621E0,8.788843155E-1
3.634663750E0,-2.253985405E0,2.821299553E0,1.410898685E0
3.651329688E0,-1.878986597E0,2.925161839E0,1.208136559E0
3.667995625E0,-1.345047712E0,3.044347763E0,1.132892132E0
3.684661563E0,-8.388372660E-1,2.328883648E0,2.198887825E0
3.701327500E0,-6.914566755E-1,1.413261890E0,4.099216938E0
3.717993438E0,-4.769155681E-1,4.693198204E-1,4.874434948E0
3.734659375E0,-5.188132524E-1,1.369271278E-1,3.592549324E0
3.751325313E0,-1.337466359E0,4.928984642E-1,8.246788979E-1
3.767991250E0,-2.142498255E0,1.000624657E0,-1.561816692E0
3.784657188E0,-2.259027481E0,1.177397728E0,-2.589134693E0
3.801323125E0,-2.037087440E0,1.207776546E0,-1.964286327E0
3.817989063E0,-1.504798770E0,7.107543945E-1,-7.571964264E-1
3.834655000E0,-6.885149479E-1,3.540859222E-1,2.690410614E-1
3.851320938E0,1.317475438E-1,1.152243614E-1,5.060214996E-1
3.867986875E0,9.867936373E-1,-4.987430573E-2,4.520063400E-1
3.884652813E0,1.272081733E0,-3.005256653E-1,-3.792881966E-1
3.901318750E0,1.079168677E0,-6.574029922E-1,-1.670314789E0
3.917984688E0,4.744595289E-1,-6.523213387E-1,-2.659208775E0
3.934650625E0,-7.280874252E-2,-7.526364326E-1,-2.851690769E0
3.951316563E0,-6.975213289E-1,-8.991403580E-1,-2.261595726E0
3.967982500E0,-7.107884288E-1,-1.205824852E0,-1.586925983E0
3.984648438E0,-1.746857166E-1,-1.413560867E0,-1.383431911E0
4.001314375E0,5.060684681E-2,-1.313467026E0,-1.606362820E0
4.017980313E0,-7.297515869E-3,-1.197573662E0,-1.775163174E0
4.034646250E0,-2.533841133E-1,-9.831843376E-1,-1.419973850E0
4.051312188E0,-3.646147847E-1,-8.708539009E-1,-7.196202278E-1
4.067978125E0,-2.812222242E-1,-7.029829025E-1,-2.913575172E-1
4.084644063E0,1.251544952E-1,-5.851125717E-1,1.232309341E-1
4.101310000E0,3.992425203E-1,-4.908795357E-1,9.405941963E-1
4.117975938E0,4.387574196E-1,-4.754614830E-1,1.195369244E0
4.134641875E0,5.808211565E-1,-4.287414551E-1,9.751892090E-1
4.151307813E0,5.363086462E-1,-2.387924194E-1,6.563987732E-1
4.167973750E0,4.012658596E-1,1.203241348E-1,3.143091202E-1
4.184639688E0,2.389085889E-1,2.737474442E-1,-1.938910484E-1
4.201305625E0,3.616273403E-3,9.026145935E-1,-4.535641670E-1
4.217971563E0,4.542140961E-1,1.088284969E0,-2.889957428E-1
4.234637500E0,1.304233074E0,7.657518387E-1,2.077379227E-1
4.251303438E0,2.051976442E0,4.263114929E-1,1.530669212E0
4.267969375E0,2.587293148E0,-8.177757263E-4,3.002338886E0
4.284635313E0,2.631064892E0,-4.032573700E-1,3.211627007E0
4.301301250E0,2.051871777E0,-7.841372490E-1,1.629067421E0
4.317967188E0,1.723873854E0,-8.269333839E-1,-6.926894188E-1
4.334633125E0,1.753740430E0,-7.520270348E-1,-2.954658508E0
4.351299063E0,1.471334100E0,-8.701734543E-1,-4.737088203E0
4.367965000E0,7.579144239E-1,-1.084203243E0,-5.789924622E0
4.384630938E0,-5.351703167E-1,-1.618242741E0,-6.586420536E0
4.401296875E0,-1.077059746E0,-1.364937782E0,-5.602662086E0
4.417962813E0,-9.485408068E-1,-4.007034302E-1,-3.410669804E0
4.434628750E0,-1.126238108E0,2.664833069E-1,-1.643092155E0
4.451294688E0,-1.815981030E0,6.799383163E-1,-9.097485542E-1
4.467960625E0,-2.368371487E0,8.373751640E-1,-4.746499062E-1
4.484626563E0,-2.145487547E0,1.170038700E0,4.844264984E-1
4.501292500E0,-7.298732996E-1,1.484086990E0,8.140292168E-1
4.517958438E0,-3.933467865E-1,1.926959038E0,-3.804621696E-1
4.534624375E0,-5.927474499E-1,2.064475536E0,-1.759636402E0
4.551290313E0,-4.749450684E-1,2.110054016E0,-1.794330120E0
4.567956250E0,-4.658687115E-1,2.015309334E0,-1.656352997E0
4.584622188E0,-3.621420860E-1,2.009472370E0,-1.602375031E0
4.601288125E0,2.411291599E-1,2.118005753E0,-1.304884434E0
4.617954063E0,8.460450172E-1,1.858751297E0,-1.355879307E0
4.634620000E0,5.638377666E-1,1.661633492E0,-2.128283024E0
4.651285938E0,-3.067612648E-1,1.693964481E0,-3.366802216E0
4.667951875E0,-1.026929021E0,1.859403133E0,-4.502260208E0
4.684617813E0,-1.403650165E0,2.205420017E0,-5.338191032E0
4.701283750E0,-2.407992125E0,2.141345024E0,-5.872581482E0
4.717949688E0,-2.969201326E0,1.809092522E0,-5.719884872E0
4.734615625E0,-1.960122705E0,1.432649612E0,-5.138929367E0
4.751281563E0,-6.652693748E-1,1.772183895E0,-4.141256332E0
4.767947500E0,-8.371129036E-1,2.167159081E0,-4.771306038E0
4.784613438E0,-2.226107121E0,2.553611755E0,-4.772552490E0
4.801279375E0,-4.043123245E0,2.876057148E0,-2.046894073E0
4.817945313E0,-4.758491993E0,3.564942598E0,4.904794693E-1
4.834611250E0,-4.122644901E0,4.110566139E0,6.349468231E-1
4.851277188E0,-3.825342894E0,4.562299252E0,7.122058868E-1
4.867943125E0,-3.137628078E0,4.651473045E0,2.955591202E0
4.884609063E0,-2.472402573E0,5.364353180E0,6.315637589E0
4.901275000E0,-1.586802721E0,6.430262089E0,7.837747574E0
4.917940938E0,2.799372673E-1,7.473179817E0,6.998977661E0
4.934606875E0,2.892785072E0,7.853315353E0,6.098352909E0
4.951272813E0,1.198366165E0,8.795045853E0,5.171965122E0
4.967938750E0,1.168282032E0,1.077736092E1,7.019565105E0
4.984604688E0,3.997474194E0,1.065146255E1,1.225270462E1
5.001270625E0,7.278707981E0,9.325931549E0,1.794437218E1
5.017936563E0,7.105848312E0,6.703002453E0,1.614260864E1
5.034602500E0,5.013746262E0,5.238667488E0,9.185539246E0
5.051268438E0,4.444356441E0,2.139455795E0,-3.505916595E-1
5.067934375E0,-3.737497330E-2,-3.536644459E0,-8.551695824E0
5.084600313E0,-7.119797707E0,-6.607108593E0,-1.180915260E1
5.101266250E0,-8.630535126E0,-1.224038124E1,-8.685564995E0
5.117932188E0,-1.120828438E1,-1.638191605E1,-5.402904510E0
5.134598125E0,-1.330583382E1,-2.196962738E1,-1.089581585E1
5.151264063E0,-1.248693848E1,-2.681312943E1,-1.626567841E1
5.167930000E0,-7.730170727E0,-3.026713562E1,-1.542366123E1
5.184595938E0,-6.141942978E0,-3.040192223E1,-1.303183174E1
5.201261875E0,-3.297625542E0,-2.823450661E1,-8.334999084E0
5.217927813E0,5.582466125E-1,-2.477292633E1,-7.597765923E-1
5.234593750E0,3.007031918E0,-2.224576187E1,3.031340122E0
5.251259688E0,6.206150532E0,-2.033615685E1,5.606024742E0
5.267925625E0,1.097277355E1,-1.759306717E1,9.964960098E0
5.284591563E0,1.928623962E1,-1.133906937E1,1.822418213E1
5.301257500E0,3.437782288E1,-5.308693886E0,2.745015144E1
5.317923438E0,4.527240753E1,4.007720947E-1,2.580915833E1
5.334589375E0,4.509404755E1,5.146198750E0,1.856398010E1
5.351255313E0,3.305893707E1,1.084600163E1,1.723897552E1
5.367921250E0,1.537234974E1,1.735693169E1,1.448582268E1
5.384587188E0,-8.257031441E-1,2.523342323E1,9.403090477E0
5.401253125E0,-1.208082104E1,3.418257523E1,5.710555077E0
5.417919063E0,-2.026343918E1,4.289664078E1,5.481131554E0
5.434585000E0,-2.128357315E1,4.528143311E1,1.141916943E1
5.451250938E0,-1.622465515E1,4.114827347E1,1.910297012E1
5.467916875E0,-1.778262520E1,3.771993256E1,2.526115990E1
5.484582813E0,-1.992776489E1,3.389988708E1,2.535264015E1
5.501248750E0,-1.370627594E1,3.242695618E1,2.076383781E1
5.517914688E0,1.106280327E0,3.271474838E1,1.616018677E1
5.534580625E0,2.077947617E1,3.140730667E1,1.990217590E1
5.551246563E0,3.840350342E1,2.386785316E1,3.070504189E1
5.567912500E0,4.538287354E1,1.281467438E1,3.581492233E1
5.584578438E0,5.083886337E1,1.182201028E0,3.318496704E1
5.601244375E0,5.666760254E1,-9.534849167E0,2.789062691E1
5.617910313E0,6.076706314E1,-1.755358887E1,2.083413696E1
5.634576250E0,5.860162354E1,-2.902781868E1,1.413735104E1
5.651242188E0,3.907309723E1,-3.869429398E1,9.646055222E0
5.667908125E0,1.506534386E1,-4.669167709E1,6.904000282E0
5.684574063E0,-1.245093346E1,-4.546851730E1,3.372968674E0
5.701240000E0,-3.230915451E1,-3.968989563E1,-2.521234751E0
5.717905938E0,-3.549805832E1,-3.729313278E1,-9.976296425E0
5.734571875E0,-2.951746559E1,-4.032092285E1,-6.813313484E0
5.751237813E0,-2.277172470E1,-4.668459320E1,8.892308235E0
5.767903750E0,-1.803877831E1,-4.995677567E1,1.417406654E1
5.784569688E0,-1.668962669E1,-4.846989059E1,4.855184555E0
5.801235625E0,-1.728199005E1,-4.529597473E1,-3.013598204E0
5.817901563E0,-5.941592216E0,-4.522370148E1,9.588192701E-1
5.834567500E0,9.612438202E0,-4.309888458E1,8.342209816E0
5.851233438E0,2.337189484E1,-3.676133728E1,1.729649162E1
5.867899375E0,3.888645554E1,-2.839130974E1,2.363090706E1
5.884565313E0,4.464831543E1,-1.485152435E1,1.630995560E1
5.901231250E0,5.526976776E1,-1.293591976E0,9.272558212E0
5.917897188E0,6.917155457E1,8.464709282E0,2.296843719E1
5.934563125E0,6.571715546E1,1.558196545E1,3.125720787E1
5.951229063E0,3.821164703E1,2.380791855E1,2.420550346E1
5.967895000E0,1.551228809E1,3.201879883E1,1.305822182E1
5.984560938E0,-4.654779434E-1,3.947250366E1,4.644017220E0
6.001226875E0,-8.106053352E0,4.341341782E1,7.182790756E0
6.017892813E0,-9.736382484E0,4.028803253E1,1.304532528E1
6.034558750E0,-1.627691650E1,3.770767212E1,1.096226311E1
6.051224688E0,-2.285545158E1,3.677688217E1,5.801706314E0
6.067890625E0,-2.234317780E1,3.318217850E1,8.451938629E-4
6.084556563E0,-1.936619186E1,3.253972626E1,-8.039433360E-1
6.101222500E0,-8.253239632E0,3.298699951E1,9.685771942E0
6.117888438E0,8.485703468E0,3.241055298E1,2.235841942E1
6.134554375E0,2.699176979E1,2.831102562E1,2.450886154E1
6.151220313E0,4.019818115E1,2.356370163E1,2.751215172E1
6.167886250E0,5.731446075E1,1.232464123E1,3.601755905E1
6.184552188E0,7.004878998E1,-4.931672573E0,3.440440750E1
6.201218125E0,6.764403534E1,-2.624761581E1,1.036526585E1
6.217884063E0,4.491497803E1,-3.149435043E1,-1.066009426E1
6.234550000E0,1.843185425E1,-3.792591095E1,4.583961487E0
6.251215938E0,-4.758484364E0,-3.988064957E1,2.209432030E1
6.267881875E0,-1.768980026E1,-4.232612991E1,1.826202011E1
6.284547813E0,-2.317359161E1,-4.431288528E1,3.048832893E0
6.301213750E0,-2.573014832E1,-4.617014313E1,-1.012164402E1
6.317879688E0,-2.493793488E1,-4.870430374E1,-9.068854332E0
6.334545625E0,-1.864592743E1,-5.165938187E1,1.121188045E0
6.351211563E0,-1.004042244E1,-5.144731140E1,1.179878235E1
6.367877500E0,2.378113270E0,-4.964157867E1,1.594614697E1
6.384543438E0,1.110213375E1,-4.467311096E1,8.645120621E0
6.401209375E0,1.457003498E1,-3.820461655E1,-2.869367599E-3
6.417875313E0,2.047707367E1,-3.170031357E1,4.787937164E0
6.434541250E0,3.012372971E1,-2.036586952E1,1.694100380E1
6.451207188E0,4.588867569E1,-4.913011551E0,2.072325897E1
6.467873125E0,6.471607971E1,9.188001633E0,1.265776920E1
6.484539063E0,6.874820709E1,2.245804405E1,9.521991730E0
6.501205000E0,5.481548691E1,3.257210159E1,2.375185204E1
6.517870938E0,3.100661850E1,3.584318542E1,3.110651588E1
6.534536875E0,1.120081711E1,3.653248596E1,1.968708038E1
6.551202813E0,-3.153869629E0,3.524864960E1,5.088523865E0
6.567868750E0,-1.067082310E1,2.746906471E1,-1.179668665E0
6.584534688E0,-1.777568054E1,1.922273445E1,-1.489847660E0
6.601200625E0,-2.659762955E1,1.810260201E1,-4.033658981E0
6.617866563E0,-3.135067368E1,1.873557854E1,-4.769197464E0
6.634532500E0,-3.035171509E1,1.940476608E1,-3.586855888E0
6.651198438E0,-2.275401306E1,2.143760300E1,-2.993733883E0
6.667864375E0,-9.688815117E0,2.549815178E1,-1.409384251E0
6.684530313E0,6.052214622E0,2.981638718E1,3.325683355E0
6.701196250E0,2.238014793E1,3.154530525E1,1.763368034E1
6.717862188E0,3.636643219E1,2.741435623E1,3.424842072E1
6.734528125E0,4.946044922E1,1.424023438E1,3.882421494E1
6.751194063E0,5.908163071E1,-2.412770748E0,2.233543587E1
6.767860000E0,6.024900818E1,-1.498080826E1,1.622140884E0
6.784525938E0,4.495589066E1,-2.414708710E1,-7.722015977E-1
6.801191875E0,2.172769356E1,-2.948979950E1,1.374957657E1
6.817857813E0,3.386668682E0,-3.135205841E1,1.833105659E1
6.834523750E0,-8.569982529E0,-3.277597809E1,9.395958900E0
6.851189688E0,-1.490351391E1,-3.573455811E1,1.209190190E-1
6.867855625E0,-1.744628334E1,-4.231572723E1,-4.665493011E0
6.884521563E0,-2.469800568E1,-4.530841827E1,-3.468915462E0
6.901187500E0,-2.929103851E1,-4.750258255E1,-3.244783401E0
6.917853438E0,-2.431360626E1,-4.712968445E1,-2.131885529E0
6.934519375E0,-4.717320442E0,-4.701547623E1,4.331057549E0
6.951185313E0,1.015684891E1,-4.275672150E1,8.021250725E0
6.967851250E0,1.524908829E1,-3.621206665E1,3.907734394E0
6.984517188E0,2.014664459E1,-3.024983215E1,8.729503751E-1
7.001183125E0,2.703156281E1,-2.285563469E1,6.823649883E0
7.017849063E0,3.283315277E1,-1.048691654E1,1.556850338E1
7.034515000E0,4.465149689E1,1.433180213E0,1.461946201E1
7.051180938E0,5.415299225E1,9.065828323E0,9.695669174E0
7.067846875E0,4.621970749E1,2.065822601E1,1.919247246E1
7.084512813E0,3.694907761E1,2.998674393E1,3.906157303E1
7.101178750E0,2.691535950E1,3.366028976E1,3.810457611E1
7.117844688E0,1.193936157E1,3.300411224E1,2.429004097E1
7.134510625E0,-8.539581299E-1,2.733839989E1,1.257992649E1
7.151176563E0,-1.295470619E1,2.016559601E1,4.895462513E0
7.167842500E0,-2.494121170E1,1.630540848E1,-9.947593212E-1
7.184508438E0,-3.307402802E1,1.656372261E1,-4.492281437E0
7.201174375E0,-3.539278412E1,1.730607414E1,-4.155784607E0
7.217840313E0,-3.046298599E1,1.936993408E1,-7.360401154E-1
7.234506250E0,-1.483250427E1,2.158156967E1,4.856744289E0
7.251172188E0,-1.091662407E0,2.529656601E1,8.324072838E0
7.267838125E0,8.737220764E0,3.001379204E1,1.449506950E1
7.284504063E0,2.486035156E1,2.979739380E1,2.751093674E1
7.301170000E0,4.381851578E1,2.062801743E1,3.613497162E1
7.317835938E0,5.435037994E1,3.517091751E0,2.983179665E1
7.334501875E0,5.275680161E1,-1.007541180E1,1.655716896E1
7.351167813E0,4.902433395E1,-1.989968300E1,6.520032406E0
7.367833750E0,3.621381378E1,-2.646544838E1,3.917047977E0
7.384499688E0,1.649533272E1,-3.226818466E1,7.624672890E0
7.401165625E0,-2.868813276E0,-3.576020050E1,1.024680138E1
7.417831563E0,-1.330804634E1,-3.898070908E1,7.125277042E0
7.434497500E0,-1.805351830E1,-4.471591187E1,-5.177200437E-1
7.451163438E0,-2.626989365E1,-4.634829712E1,-7.757346153E0
7.467829375E0,-3.155764008E1,-4.573749542E1,-1.209645653E1
7.484495313E0,-2.297459793E1,-4.542231750E1,-6.957090855E0
7.501161250E0,-1.326102257E0,-4.480875015E1,5.051632881E0
7.517827188E0,1.017807007E1,-3.957268524E1,1.191228199E1
7.534493125E0,8.301735878E0,-3.216641998E1,5.915173531E0
7.551159063E0,1.115351391E1,-2.553077888E1,-2.116326809E0
7.567825000E0,2.407466507E1,-1.857825089E1,-4.355132580E-1
7.584490938E0,3.934014511E1,-1.003870106E1,1.420742226E1
7.601156875E0,4.767407990E1,3.822064400E-1,2.179761887E1
7.617822813E0,4.707604599E1,1.266030407E1,1.647534561E1
7.634488750E0,4.270162582E1,2.155129623E1,1.884287643E1
7.651154688E0,3.237417603E1,2.250546074E1,2.447503662E1
7.667820625E0,1.310932159E1,2.265433884E1,2.028945160E1
7.684486563E0,-1.859286308E0,2.142943192E1,1.056650639E1
7.701152500E0,-1.046925354E1,1.839052391E1,7.423921824E-1
7.717818438E0,-1.570609856E1,1.592883301E1,-5.305936813E0
7.734484375E0,-2.142546463E1,1.613350105E1,-1.020993233E1
7.751150313E0,-2.508715057E1,1.671038818E1,-1.319379234E1
7.767816250E0,-2.392482758E1,1.646425819E1,-1.164771843E1
7.784482188E0,-1.498206997E1,1.617360687E1,-5.344174385E0
7.801148125E0,-5.679081917E0,1.669103050E1,1.734230757E0
7.817814063E0,-6.104710579E0,1.895077705E1,5.987097740E0
7.834480000E0,-1.112326622E1,2.138252449E1,6.994922161E0
7.851145938E0,-1.221736240E1,2.369757652E1,9.127582550E0
7.867811875E0,-1.464425087E0,2.538854790E1,1.550221443E1
7.884477813E0,1.818115425E1,2.199718475E1,2.138680840E1
7.901143750E0,3.870748138E1,1.061572838E1,2.257623291E1
7.917809688E0,4.184465790E1,1.141285419E0,1.909691238E1
7.934475625E0,4.272843170E1,-7.428833008E0,1.288792324E1
7.951141563E0,4.249286652E1,-1.164404774E1,6.480354786E0
7.967807500E0,3.432778168E1,-1.873985481E1,9.609476089E0
7.984473438E0,1.340711689E1,-2.239940834E1,1.476719093E1
8.001139375E0,-4.483777523E0,-2.518460846E1,1.849287796E1
8.017805313E0,-1.017525101E1,-3.237952805E1,1.593370247E1
8.034471250E0,-1.491331005E1,-4.082918930E1,5.943677425E0
8.051137188E0,-2.291446114E1,-4.496961212E1,-6.241788864E0
8.067803125E0,-3.088586617E1,-4.405391693E1,-1.433753967E1
8.084469063E0,-3.073177719E1,-4.248742676E1,-1.453685665E1
8.101135000E0,-2.390629578E1,-4.019944382E1,-8.233963013E0
8.117800938E0,-1.593094444E1,-3.700421143E1,-2.936287165E0
8.134466875E0,-7.081932545E0,-3.344704819E1,-2.960107803E0
8.151132813E0,5.974448204E0,-2.919303322E1,-5.790865898E0
8.167798750E0,2.260100174E1,-2.346017647E1,-6.105031490E0
8.184464688E0,3.917657089E1,-2.103888512E1,-6.152456999E-1
8.201130625E0,4.606689835E1,-1.694577789E1,1.221515751E1
8.217796563E0,5.556306458E1,-8.313144684E0,2.459161568E1
8.234462500E0,5.108663559E1,1.343636274E0,3.495604706E1
8.251128438E0,2.848315430E1,8.832334518E0,3.246675491E1
8.267794375E0,4.189498901E0,1.354655743E1,1.620967674E1
8.284460313E0,-1.210272026E1,1.468324089E1,8.436419368E-1
8.301126250E0,-1.724743080E1,1.541244793E1,-2.861278534E0
8.317792188E0,-1.738133430E1,1.758178139E1,2.117482901E0
8.334458125E0,-1.875738144E1,1.957660294E1,5.656322479E0
8.351124063E0,-2.027693558E1,2.085139847E1,5.244305134E0
8.367790000E0,-1.790574265E1,2.095281601E1,3.681095600E0
8.384455938E0,-1.016281414E1,1.964240456E1,5.416893005E0
8.401121875E0,2.711400986E-1,1.782294464E1,1.057456303E1
8.417787813E0,6.778097153E0,1.592902279E1,1.476060486E1
8.434453750E0,8.803506851E0,1.348396587E1,1.394869423E1
8.451119688E0,7.950407982E0,1.000087929E1,9.506528854E0
8.467785625E0,4.344171524E0,5.243864536E0,6.331151962E0
8.484451563E0,1.002808571E0,-7.001445293E-1,7.381923676E0
8.501117500E0,1.906931877E0,-6.830402374E0,1.167034626E1
8.517783438E0,8.438744545E0,-1.779610252E1,8.382946968E0
8.534449375E0,8.704539299E0,-2.788791275E1,-1.313767433E-1
8.551115313E0,1.632571411E1,-3.160085297E1,-3.625776291E0
8.567781250E0,2.676931381E1,-3.443602371E1,-9.553443193E-1
8.584447188E0,1.796387482E1,-2.941671562E1,6.730489254E0
8.601113125E0,-1.667046547E0,-2.595096779E1,6.452973366E0
8.617779063E0,-2.003548431E1,-2.043707466E1,-3.698925495E0
8.634445000E0,-2.855097961E1,-1.464311218E1,-1.562846756E1
8.651110938E0,-2.457491875E1,-1.197253609E1,-2.061055565E1
8.667776875E0,-1.578314400E1,-1.383236408E1,-1.870186043E1
8.684442813E0,-1.016313648E1,-8.807273865E0,-5.536302567E0
8.701108750E0,1.000166607E1,-4.899744034E0,1.756562042E1
8.717774688E0,3.957254410E1,-1.944540262E0,3.513959503E1
8.734440625E0,5.077557373E1,2.430370808E0,2.111075592E1
8.751106563E0,3.021060562E1,4.950564384E0,-2.535047770E0
8.767772500E0,-4.819478989E-1,8.675407410E0,-2.110004425E1
8.784438438E0,-8.158956528E0,1.217835426E1,-1.668885612E1
8.801104375E0,-1.505173683E0,1.038755035E1,-4.085843086E0
8.817770313E0,2.880020142E-1,8.280764580E0,6.079269409E0
8.834436250E0,-9.105367661E-1,5.558268070E0,1.087649441E1
8.851102188E0,2.614240646E-1,8.054590225E-2,9.713042259E0
8.867768125E0,2.619705200E0,-6.166886330E0,5.809300423E0
8.884434063E0,6.042349815E0,-1.201584721E1,1.755398750E0
8.901100000E0,1.018250751E1,-1.331189823E1,5.376198888E-1
8.917765938E0,1.241440678E1,-1.420876408E1,4.836126328E0
8.934431875E0,6.292528152E0,-1.500074673E1,1.097502518E1
8.951097813E0,-2.743843555E0,-1.412895203E1,1.071668625E1
8.967763750E0,-6.142333031E0,-1.323501778E1,3.025195360E0
8.984429688E0,-6.230097771E0,-1.128995514E1,-4.312633038E0
9.001095625E0,-6.419150352E0,-9.715229034E0,-6.540078163E0
9.017761563E0,-8.875517845E0,-7.819421768E0,-4.804003716E0
9.034427500E0,-9.703349113E0,-4.597516537E0,-2.406310141E-1
9.051093438E0,-7.074189663E0,-4.360795021E-1,6.123613834E0
9.067759375E0,9.996223450E-1,9.927654266E-1,1.291934586E1
9.084425313E0,9.640959740E0,7.290616035E-1,1.514074516E1
9.101091250E0,1.271329975E1,7.339210510E-1,1.067077255E1
9.117757188E0,8.802180290E0,1.619510651E-1,5.622161865E0
9.134423125E0,1.951508522E0,-1.454245806E0,2.446168900E0
9.151089063E0,-3.736965656E0,-3.186300278E0,5.921987295E-1
9.167755000E0,-6.847000122E0,-3.749678612E0,1.612713337E-1
9.184420938E0,-6.715453625E0,-5.116090775E0,-1.188925624E0
9.201086875E0,-4.295855999E0,-6.508312225E0,-2.809551001E0
9.217752813E0,-1.288321495E0,-8.814407349E0,-4.891098022E0
9.234418750E0,-1.555828571E0,-1.026526833E1,-9.738391876E0
9.251084688E0,-4.672904968E0,-1.074374008E1,-1.214007664E1
9.267750625E0,-2.842362881E0,-1.213134384E1,-7.338331699E0
9.284416563E0,6.279425621E0,-1.479699516E1,1.577291489E0
9.301082500E0,1.328234100E1,-1.649923897E1,7.546813011E0
9.317748438E0,1.255597210E1,-1.578293228E1,4.595314026E0
9.334414375E0,8.972963333E0,-1.307693863E1,1.175713539E0
9.351080313E0,6.703311920E0,-9.482851028E0,3.255981445E0
9.367746250E0,6.632538795E0,-6.123911858E0,5.963306427E0
9.384412188E0,7.374464989E0,-3.586094379E0,6.403707027E0
9.401078125E0,5.067494392E0,-1.258675575E0,1.678346753E0
9.417744063E0,1.224102974E0,1.810253143E0,-4.923156500E-1
9.434410000E0,-2.686393738E0,4.293993473E0,4.208541393E0
9.451075938E0,-4.837048054E0,6.866184711E0,1.125207138E1
9.467741875E0,-2.815890312E0,9.284447670E0,1.678007889E1
9.484407813E0,2.821590424E0,1.035278511E1,1.722105980E1
9.501073750E0,5.627543449E0,1.043918037E1,1.210873318E1
9.517739688E0,-4.428033829E-1,1.120648384E1,5.257110596E0
9.534405625E0,-7.239487648E0,1.156732559E1,3.444458008E0
9.551071563E0,-1.007535553E1,1.111336994E1,7.683042526E0
9.567737500E0,-9.251971245E0,1.039385986E1,1.219463348E1
9.584403438E0,-4.449005604E0,8.932698250E0,1.359630680E1
9.601069375E0,1.553441048E0,6.828867435E0,1.162548923E1
9.617735313E0,2.656617165E0,4.621281624E0,8.311791420E0
9.634401250E0,-4.664392471E-1,3.476748705E0,6.191173077E0
9.651067188E0,-2.485887527E0,3.197459698E0,5.716399670E0
9.667733125E0,-1.855926514E-1,3.949469805E0,6.316353798E0
9.684399063E0,5.803991318E0,6.114206314E0,8.955077171E0
9.701065000E0,1.262841892E1,7.907586098E0,1.270332432E1
9.717730938E0,1.807199097E1,9.215296745E0,1.661946678E1
9.734396875E0,2.172910500E1,1.047230911E1,1.844480896E1
9.751062813E0,2.665722656E1,1.130570507E1,2.008676338E1
9.767728750E0,3.121471405E1,8.959917068E0,2.168782425E1
9.784394688E0,3.166859055E1,5.994006634E0,2.154282761E1
9.801060625E0,2.819248199E1,2.701098680E0,2.203635025E1
9.817726563E0,2.069275856E1,-3.285036087E0,2.262010956E1
9.834392500E0,1.053587818E1,-8.083469391E0,2.411595154E1
9.851058438E0,3.420571327E0,-1.128897858E1,2.591612053E1
9.867724375E0,1.480655670E-1,-1.428998756E1,2.467297745E1
9.884390313E0,-1.244967461E0,-1.661286163E1,1.777505684E1
9.901056250E0,-2.611634731E0,-1.768286324E1,8.673310280E0
9.917722188E0,-4.583563805E0,-1.806177902E1,5.650761724E-1
9.934388125E0,-7.099606514E0,-1.871074677E1,-3.398984432E0
9.951054063E0,-8.821294785E0,-1.906408691E1,-2.335582733E0
9.967720000E0,-7.199989796E0,-2.003243256E1,-1.078132391E0
9.984385938E0,-5.854371071E0,-2.086785889E1,-4.151484966E0
1.000105188E1,-7.263501644E0,-2.082374001E1,-8.883524895E0
1.001771781E1,-1.035179996E1,-1.967781639E1,-1.174358845E1
1.003438375E1,-1.240686893E1,-1.866963768E1,-1.108034229E1
1.005104969E1,-1.273193836E1,-1.770326233E1,-8.435268402E0
1.006771562E1,-1.165519428E1,-1.693585014E1,-7.201894760E0
1.008438156E1,-8.620896339E0,-1.583876610E1,-6.328355789E0
1.010104750E1,-4.167213917E0,-1.445774841E1,-5.927303314E0
1.011771344E1,1.464935303E0,-1.258735180E1,-6.768734932E0
1.013437938E1,6.357311249E0,-1.038581467E1,-8.084685326E0
1.015104531E1,9.936203957E0,-8.082296371E0,-7.422464848E0
1.016771125E1,1.475682163E1,-8.308540344E0,-5.715801239E0
1.018437719E1,1.924825859E1,-9.321279526E0,-4.581302643E0
1.020104312E1,1.987453461E1,-7.045287132E0,-6.180783510E-1
1.021770906E1,1.890998077E1,-1.232057095E0,5.527880669E0
1.023437500E1,2.107964516E1,5.900732994E0,1.360618305E1
1.025104094E1,2.687103844E1,1.222310066E1,2.016831207E1
1.026770688E1,2.793369865E1,1.869656944E1,1.985972023E1
1.028437281E1,1.965974426E1,2.343502998E1,1.335802841E1
1.030103875E1,6.944705009E0,2.745359802E1,7.611702442E0
1.031770469E1,-2.553391933E0,3.037360954E1,8.828735352E0
1.033437062E1,-4.480439663E0,3.087080002E1,1.467905331E1
1.035103656E1,-2.657063007E0,2.809509468E1,2.020084953E1
1.036770250E1,1.367759705E-1,2.271904755E1,2.226387596E1
1.038436844E1,1.990807533E0,1.716747284E1,1.687564659E1
1.040103438E1,6.000537872E-1,1.317888260E1,5.994658470E0
1.041770031E1,-2.823851109E0,1.053904724E1,-2.620878458E0
1.043436625E1,-5.042787075E0,8.371203423E0,-2.904305935E0
1.045103219E1,-2.909735680E0,6.228390694E0,1.663506746E0
1.046769812E1,2.053083420E0,5.166247368E0,5.219656944E0
1.048436406E1,7.526345253E0,5.539330959E0,9.005448341E0
1.050103000E1,1.547325516E1,5.754495144E0,1.099666309E1
1.051769594E1,2.613784409E1,7.254827499E0,9.104516983E0
1.053436188E1,3.989471817E1,9.386489868E0,8.131845474E0
1.055102781E1,4.948940277E1,6.143523693E0,1.708305168E1
1.056769375E1,4.767912292E1,-6.789061546E0,2.489391899E1
1.058435969E1,3.322407150E1,-2.047550392E1,1.995273781E1
1.060102562E1,1.116645241E1,-2.509600830E1,1.167350006E1
1.061769156E1,-6.722065926E0,-2.570101547E1,1.073582077E1
1.063435750E1,-1.875748062E1,-2.832521057E1,1.239418602E1
1.065102344E1,-2.662944794E1,-3.303064346E1,1.146373081E1
1.066768938E1,-3.297134018E1,-3.675969696E1,7.164945126E0
1.068435531E1,-3.134236908E1,-4.276076508E1,3.727135658E0
1.070102125E1,-2.776068115E1,-4.648230743E1,4.618559837E0
1.071768719E1,-2.474023247E1,-4.580440903E1,5.505612850E0
1.073435312E1,-2.003971481E1,-4.286116409E1,4.271263599E0
1.075101906E1,-1.028159142E1,-3.973520660E1,2.682245493E0
1.076768500E1,1.371935844E0,-3.465802002E1,4.243226051E0
1.078435094E1,1.320153236E1,-2.675978088E1,9.487210274E0
1.080101688E1,2.820212746E1,-1.748187256E1,1.456397915E1
1.081768281E1,4.433518219E1,-5.154343605E0,1.794957352E1
1.083434875E1,5.741313553E1,9.207456589E0,1.935925865E1
1.085101469E1,6.502658081E1,1.796570778E1,1.445479774E1
1.086768062E1,5.343482208E1,2.151265717E1,5.143461704E0
1.088434656E1,2.978768158E1,2.245109940E1,2.840709925E0
1.090101250E1,5.554138184E0,2.313942528E1,6.875892639E0
1.091767844E1,-1.542681503E1,2.658788681E1,8.069857597E0
1.093434438E1,-2.691347694E1,3.069555664E1,8.612787247E0
1.095101031E1,-2.737756729E1,3.005378723E1,1.245282555E1
1.096767625E1,-1.844513130E1,2.375289917E1,1.812246132E1
1.098434219E1,-8.485313416E0,1.880360413E1,1.881744766E1
1.100100812E1,-6.581341743E0,1.856576157E1,1.245644665E1
1.101767406E1,-1.180171871E1,1.723338699E1,3.566058636E0
1.103434000E1,-1.668497467E1,1.839353371E1,2.576199293E0
1.105100594E1,-9.330890656E0,2.268150902E1,1.035110664E1
1.106767188E1,1.565604210E1,2.417011261E1,1.859880066E1
1.108433781E1,4.479907608E1,1.955235863E1,2.454693794E1
1.110100375E1,5.309539032E1,7.710897923E0,2.566640091E1
1.111766969E1,4.443616104E1,-5.688578129E0,2.409893799E1
1.113433562E1,3.596644592E1,-1.341615295E1,1.790959549E1
1.115100156E1,3.310187912E1,-2.261308670E1,1.062558746E1
1.116766750E1,2.356932449E1,-3.047407150E1,3.517150879E0
1.118433344E1,7.559158802E0,-3.426961517E1,1.603747606E0
1.120099938E1,-1.260515785E1,-3.335596466E1,2.580770969E0
1.121766531E1,-2.890504837E1,-3.095580673E1,4.879029751E0
1.123433125E1,-3.413376617E1,-3.191063881E1,5.812781334E0
1.125099719E1,-2.495594406E1,-4.053343201E1,7.177069187E0
1.126766312E1,-1.629779053E1,-5.131575775E1,8.563264847E0
1.128432906E1,-2.089086914E1,-5.564344788E1,4.204766273E0
1.130099500E1,-2.734960556E1,-5.551098251E1,2.839294910E0
1.131766094E1,-1.810052872E1,-5.652727127E1,7.917160988E0
1.133432688E1,1.340574265E0,-5.334893799E1,1.231009674E1
1.135099281E1,2.598343658E1,-4.512847900E1,1.405726337E1
1.136765875E1,4.657314301E1,-3.326415253E1,1.915438271E1
1.138432469E1,6.836399078E1,-2.001567268E1,3.420668793E1
1.140099062E1,7.066454315E1,-1.064332008E0,4.229943848E1
1.141765656E1,6.099045944E1,1.405329323E1,3.145220566E1
1.143432250E1,3.228876877E1,2.209627533E1,2.683531380E1
1.145098844E1,1.359913826E1,2.734578705E1,2.583857536E1
1.146765438E1,-1.127471447E0,3.280995560E1,1.697312927E1
1.148432031E1,-7.225702286E0,3.692792511E1,1.090054512E1
1.150098625E1,-6.475990295E0,3.213883209E1,6.507816315E0
1.151765219E1,-7.001124382E0,2.521115685E1,6.348648071E0
1.153431812E1,-1.194807816E1,2.315082550E1,7.230566025E0
1.155098406E1,-1.606733894E1,2.165729141E1,4.220564842E0
1.156765000E1,-1.860560799E1,1.947868729E1,2.027462959E0
1.158431594E1,-1.921393204E1,2.073996353E1,5.076936722E0
1.160098188E1,-1.224009037E1,2.461548805E1,9.886917114E0
1.161764781E1,7.230498314E0,2.738961029E1,1.116270447E1
1.163431375E1,3.005473518E1,2.573479652E1,1.253294373E1
1.165097969E1,4.209937668E1,2.066274834E1,2.451721001E1
1.166764562E1,5.099572754E1,9.103988647E0,3.655215836E1
1.168431156E1,5.690680313E1,-1.116374016E1,2.993174171E1
1.170097750E1,4.979323578E1,-2.539036751E1,1.225895119E1
1.171764344E1,3.677067566E1,-3.443880081E1,5.009110451E0
1.173430938E1,1.654268456E1,-3.661094284E1,1.163583279E1
1.175097531E1,-3.324494362E-1,-3.676624298E1,1.741071701E1
1.176764125E1,-1.032257080E1,-3.795509338E1,1.287942123E1
1.178430719E1,-2.042131996E1,-3.933098984E1,2.488305569E0
1.180097312E1,-2.970620346E1,-4.141230011E1,-4.077387810E0
1.181763906E1,-3.381574249E1,-4.566525650E1,-2.961794376E0
1.183430500E1,-3.545035553E1,-5.001628113E1,-6.252526045E-1
1.185097094E1,-2.631869125E1,-5.512464905E1,2.147140026E0
1.186763688E1,-7.697542191E0,-5.600876236E1,7.443764210E0
1.188430281E1,4.256318092E0,-4.972512436E1,7.340773582E0
1.190096875E1,9.729955673E0,-4.338872528E1,3.952609301E0
1.191763469E1,2.053690910E1,-3.731363297E1,7.906954765E0
1.193430062E1,4.005703354E1,-2.668286133E1,1.835924530E1
1.195096656E1,5.824903870E1,-1.213950348E1,2.416504669E1
1.196763250E1,6.876971436E1,5.531391144E0,2.213167381E1
1.198429844E1,6.778871155E1,1.836410141E1,2.223941040E1
1.200096438E1,4.550037384E1,2.243574905E1,2.520287323E1
1.201763031E1,1.895823669E1,2.550580597E1,2.173728180E1
1.203429625E1,1.624629974E0,2.770113945E1,1.045436382E1
1.205096219E1,-5.082764149E0,2.568073463E1,2.974619389E0
1.206762812E1,-1.029444599E1,2.008259964E1,9.382537603E-1
1.208429406E1,-1.691544533E1,1.648567581E1,1.480827212E0
1.210096000E1,-2.263459206E1,1.600638771E1,-6.371058822E-1
1.211762594E1,-2.764079285E1,1.631163025E1,-4.546313286E0
1.213429188E1,-3.162531853E1,1.672752571E1,-6.409453869E0
1.215095781E1,-2.658065796E1,1.749484825E1,-5.233432770E0
1.216762375E1,-1.048680592E1,1.874165726E1,-1.970521092E0
1.218428969E1,-2.012662888E-1,2.096146965E1,2.925699949E0
1.220095562E1,1.802780151E0,2.264355087E1,1.280974483E1
1.221762156E1,1.064821529E1,2.594695091E1,2.005014229E1
1.223428750E1,3.197151184E1,2.652832985E1,2.586690331E1
1.225095344E1,4.865454865E1,1.685058403E1,2.517087746E1
1.226761938E1,5.498445892E1,1.416204929E0,2.398346519E1
1.228428531E1,5.215628052E1,-1.263374043E1,2.340477180E1
1.230095125E1,4.313607407E1,-2.602939796E1,1.959207726E1
1.231761719E1,2.754608917E1,-3.296900177E1,1.177016258E1
1.233428312E1,1.246222687E1,-3.323075104E1,6.210181236E0
1.235094906E1,-1.114487648E-1,-3.237040329E1,5.689917088E0
1.236761500E1,-1.058788395E1,-3.305845642E1,7.832685947E0
1.238428094E1,-1.530663395E1,-3.605298996E1,1.174179459E1
1.240094688E1,-1.916517448E1,-3.852935028E1,1.140168095E1
1.241761281E1,-2.785579681E1,-3.904604340E1,5.578390121E0
1.243427875E1,-2.926558685E1,-3.960081100E1,2.470302582E-2
1.245094469E1,-2.046942902E1,-4.036888885E1,9.125382900E-1
1.246761062E1,-8.585650444E0,-4.092146301E1,4.691606045E0
1.248427656E1,-3.746884108E0,-4.008105469E1,7.061820030E0
1.250094250E1,-1.152826786E0,-4.097436142E1,6.218443871E0
1.251760844E1,3.045345306E0,-4.047898102E1,5.184606075E0
1.253427438E1,8.127011299E0,-3.475220871E1,4.778860569E0
1.255094031E1,2.574140167E1,-2.605897522E1,8.353823662E0
1.256760625E1,5.058801651E1,-1.693790436E1,1.384542179E1
1.258427219E1,6.707868958E1,-5.601021767E0,1.880730820E1
1.260093812E1,5.992840576E1,9.290246964E0,3.010876465E1
1.261760406E1,4.028215790E1,1.749506950E1,3.683147430E1
1.263427000E1,1.449408340E1,2.260836220E1,2.975682259E1
1.265093594E1,-7.980743408E0,2.812938690E1,1.534004116E1
1.266760188E1,-1.461267662E1,3.219061279E1,5.871552467E0
1.268426781E1,-1.015776253E1,3.358012009E1,5.474811077E0
1.270093375E1,-3.812151432E0,3.177427101E1,7.136385918E0
1.271759969E1,-3.563832760E0,2.726750374E1,4.899389267E0
1.273426562E1,-5.197487354E0,2.252852058E1,3.144684792E0
1.275093156E1,-2.378736973E0,1.798336220E1,4.757484913E0
1.276759750E1,9.318475723E-1,1.307039070E1,7.842076302E0
1.278426344E1,5.342056274E0,7.046411991E0,9.820365906E0
1.280092938E1,6.672400475E0,-3.931098878E-1,7.893701553E0
1.281759531E1,6.648676872E0,-9.761202812E0,6.291399479E0
1.283426125E1,8.196390152E0,-2.028943443E1,5.046068668E0
1.285092719E1,6.804564476E0,-2.552687263E1,1.309302092E0
1.286759312E1,1.036867523E1,-2.974866676E1,-8.549058437E-2
1.288425906E1,1.403989220E1,-3.472438431E1,3.212913275E0
1.290092500E1,2.450882912E0,-3.210506821E1,6.594745636E0
1.291759094E1,-9.850914955E0,-2.942330742E1,6.120079041E0
1.293425688E1,-1.524860764E1,-2.793080902E1,3.239758492E0
1.295092281E1,-1.806965256E1,-2.283690643E1,-1.556376338E0
1.296758875E1,-1.544528198E1,-1.755928802E1,-1.056976509E1
1.298425469E1,-3.780177593E0,-1.132416821E1,-1.275331020E1
1.300092063E1,1.328605461E1,-3.951582432E0,-7.270998001E0
1.301758656E1,2.644406891E1,8.122289658E0,5.157242298E0
1.303425250E1,3.021856689E1,1.371040726E1,2.383106041E1
1.305091844E1,2.333166122E1,1.433729267E1,3.656961441E1
1.306758438E1,1.607181931E1,1.156177807E1,2.703489304E1
1.308425031E1,5.017704010E0,6.977538109E0,4.781765938E0
1.310091625E1,-2.300210476E0,6.274713993E0,-9.935117722E0
1.311758219E1,1.008362770E0,5.651837826E0,-1.054591942E1
1.313424813E1,6.181322098E0,6.732392311E-1,-2.707566977E0
1.315091406E1,4.775216103E0,-5.860979080E0,5.365679741E0
1.316758000E1,-4.817066193E-1,-1.295722771E1,9.326402664E0
1.318424594E1,-5.075413227E0,-2.060307503E1,5.760713577E0
1.320091188E1,-1.108240509E1,-2.636088562E1,-3.262746334E0
1.321757781E1,-1.681145477E1,-2.650072670E1,-1.247067165E1
1.323424375E1,-1.009060478E1,-2.539629936E1,-1.189273357E1
1.325090969E1,3.620716572E0,-2.764291191E1,-4.827060223E0
1.326757563E1,1.142675781E1,-3.054568481E1,1.385817647E0
1.328424156E1,8.125935555E0,-2.913646507E1,1.756614923E0
1.330090750E1,-2.091285229E0,-2.536628342E1,5.879731774E-1
1.331757344E1,-5.292701721E0,-2.339682579E1,1.231493831E0
1.333423938E1,7.137832642E-1,-2.045005417E1,-6.350640655E-1
1.335090531E1,1.821041870E1,-1.571033669E1,5.361973047E-1
1.336757125E1,3.094894409E1,-7.830593109E0,9.375197411E0
1.338423719E1,3.046461868E1,4.542844772E0,2.387097931E1
1.340090313E1,3.355469513E1,1.437744617E1,2.532412720E1
1.341756906E1,3.248203278E1,1.794713783E1,1.064012814E1
1.343423500E1,2.000380516E1,1.743042946E1,-3.854208231E0
1.345090094E1,5.903659821E0,1.412388611E1,-8.399156570E0
1.346756688E1,-3.666855812E0,1.015048027E1,-4.492276192E0
1.348423281E1,-7.247809410E0,5.804266930E0,6.241202354E-2
1.350089875E1,-7.922972679E0,2.441265345E0,2.249555826E0
1.351756469E1,-7.598772049E0,-3.529572487E-1,1.823330164E0
1.353423063E1,-6.707870483E0,-2.754887104E0,4.158425331E-2
1.355089656E1,-6.206704140E0,-5.065191746E0,-1.290214181E0
1.356756250E1,-6.064476013E0,-7.710688591E0,-1.835740447E0
1.358422844E1,-7.259919643E0,-1.066203880E1,-3.375693798E0
1.360089438E1,-8.254797935E0,-1.240205574E1,-5.378810883E0
1.361756031E1,-6.249920368E0,-1.400371552E1,-7.669110298E0
1.363422625E1,-1.159005642E0,-1.518150520E1,-8.980314255E0
1.365089219E1,3.735174179E0,-1.661508942E1,-8.804051399E0
1.366755813E1,6.012345314E0,-1.960904694E1,-6.178395271E0
1.368422406E1,4.936868668E0,-2.323833466E1,-2.074141502E0
1.370089000E1,3.103113174E-1,-2.460127258E1,1.307730198E0
1.371755594E1,-4.829075813E0,-2.338768005E1,9.487485886E-2
1.373422188E1,-3.625697136E0,-1.944302940E1,-2.790703058E0
1.375088781E1,1.209048462E1,-1.310971832E1,-1.064000988E1
1.376755375E1,1.044996262E1,-1.286353016E1,-1.996208572E1
1.378421969E1,5.212761879E0,-8.835783958E0,-7.164568424E0
1.380088563E1,4.673939705E0,-4.474591255E0,6.864268303E0
1.381755156E1,1.026558495E1,2.368222237E0,1.187115288E1
1.383421750E1,2.127836609E1,6.750105381E0,2.596933246E-1
1.385088344E1,2.275291443E1,9.684704781E0,-6.083208084E0
1.386754938E1,2.036502838E1,6.293849945E0,-3.953660488E0
1.388421531E1,5.549669266E0,8.286774635E0,-1.703494787E0
1.390088125E1,-6.954524040E0,1.002926636E1,1.337639809E0
1.391754719E1,-1.293117619E1,1.007864857E1,-6.126503348E-1
1.393421313E1,-1.640521049E1,8.303221703E0,-8.873198509E0
1.395087906E1,-2.296985626E1,3.199273109E0,-1.788615227E1
1.396754500E1,-2.852015305E1,-1.207717657E-1,-1.522352982E1
1.398421094E1,-3.027261353E1,9.698206186E-1,-5.955883026E0
1.400087688E1,-2.925714874E1,7.994241714E0,4.960825443E0
1.401754281E1,-1.599885178E1,7.808568478E0,8.032364845E0
1.403420875E1,-3.538630009E0,6.544864655E0,2.255969429E1
1.405087469E1,3.628380775E0,1.031149197E1,3.142145538E1
1.406754063E1,2.248462868E1,5.747306824E0,1.623046303E1
1.408420656E1,4.469151688E1,2.631305695E0,7.650767326E0
1.410087250E1,4.686403656E1,4.717342377E0,4.391936779E0
1.411753844E1,4.765548325E1,7.141931057E-1,7.205143929E0
1.413420438E1,3.552486038E1,-7.449048519E0,1.275241756E1
1.415087031E1,1.963560486E1,-1.125847721E1,1.492288589E1
1.416753625E1,1.534862137E1,-1.176097107E1,9.025933266E0
1.418420219E1,1.800538254E1,-1.003205109E1,-8.304374218E-1
1.420086813E1,2.075460052E1,-6.540914059E0,-9.892325401E0
1.421753406E1,1.938362503E1,-2.655681133E0,-1.393472576E1
1.423420000E1,1.642344666E1,1.036643028E0,-1.184727859E1
1.425086594E1,1.521131134E1,2.607606411E0,-1.107750416E1
1.426753188E1,1.279874992E1,1.732965946E0,-1.557748318E1
1.428419781E1,1.137037373E1,-7.536621094E-1,-1.939081383E1
1.430086375E1,8.370758057E0,-3.909388065E0,-2.698957825E1
1.431752969E1,5.193741798E0,-6.472417831E0,-2.565721130E1
1.433419563E1,4.539788246E0,-6.819797516E0,-1.399586868E1
1.435086156E1,6.617262840E0,-9.456331253E0,-9.364233971E0
1.436752750E1,5.183243752E0,-1.228426552E1,-1.214424610E1
1.438419344E1,3.113083839E-1,-1.407864189E1,-1.365945721E1
1.440085938E1,-2.476811409E0,-1.522390461E1,-1.152731037E1
1.441752531E1,-2.662750721E0,-1.535334206E1,-8.852664948E0
1.443419125E1,1.540159702E0,-1.570736694E1,-5.968934536E0
1.445085719E1,9.391775131E0,-1.661458206E1,9.562187195E-1
1.446752313E1,1.224238777E1,-1.551062584E1,4.994095325E0
1.448418906E1,1.501501942E1,-1.513728333E1,4.448477268E0
1.450085500E1,2.011015320E1,-1.587979603E1,1.694410801E0
1.451752094E1,2.315626907E1,-1.462147427E1,9.017127037E0
1.453418688E1,2.390347481E1,-8.010427475E0,2.464493561E1
1.455085281E1,2.210434723E1,1.845960379E0,3.551542664E1
1.456751875E1,1.561218643E1,1.042644501E1,3.077943802E1
1.458418469E1,7.913695335E0,1.713561821E1,1.986377335E1
1.460085063E1,-8.149356842E-1,2.144643211E1,1.432095909E1
1.461751656E1,-1.147123623E1,2.543573189E1,1.591060543E1
1.463418250E1,-1.808104134E1,3.017010689E1,1.763474846E1
1.465084844E1,-1.955145645E1,3.336165237E1,1.058353519E1
1.466751438E1,-1.987529564E1,3.136648750E1,-3.917418480E0
1.468418031E1,-2.073472977E1,2.827604866E1,-1.318295860E1
1.470084625E1,-2.182819748E1,2.521138573E1,-1.241108131E1
1.471751219E1,-2.354326630E1,2.358767700E1,-6.404351234E0
1.473417813E1,-2.306148148E1,2.686769104E1,5.120999813E-1
1.475084406E1,-1.189401340E1,3.345672607E1,4.715182781E-1
1.476751000E1,4.082048416E0,4.183309174E1,-1.740722895E0
1.478417594E1,2.495920372E1,5.029972839E1,9.074697495E0
1.480084188E1,5.617029190E1,4.889094543E1,2.967176819E1
1.481750781E1,6.913336182E1,2.762259293E1,3.559943390E1
1.483417375E1,6.447884369E1,1.539659977E0,2.060084724E1
1.485083969E1,4.445072174E1,-1.819552803E1,8.630320549E0
1.486750563E1,2.311417961E1,-3.062235451E1,4.767054081E0
1.488417156E1,1.259167671E0,-3.566380310E1,2.797903299E0
1.490083750E1,-1.540111160E1,-3.884037018E1,7.224884987E0
1.491750344E1,-2.588478661E1,-4.392620850E1,1.114808273E1
1.493416938E1,-2.383336258E1,-5.197431183E1,1.322080421E1
1.495083531E1,-1.688130188E1,-5.682099533E1,1.286553764E1
1.496750125E1,-1.345045853E1,-5.641365051E1,1.616807556E1
1.498416719E1,-2.707853317E0,-5.209237671E1,1.940757370E1
1.500083313E1,8.321941376E0,-4.592353821E1,1.513384533E1
1.501749906E1,1.282610893E1,-3.690861130E1,1.082599640E1
1.503416500E1,1.629799271E1,-2.773569679E1,7.529746532E0
1.505083094E1,2.916106415E1,-1.871841049E1,8.982721329E0
1.506749688E1,4.218288803E1,-7.493436813E0,1.458158493E1
1.508416281E1,5.146440125E1,9.582943916E0,2.381403923E1
1.510082875E1,6.677053070E1,2.424093628E1,1.168045425E1
1.511749469E1,6.100628281E1,2.433212471E1,-1.154373074E1
1.513416063E1,2.371548080E1,2.487226486E1,-1.041604519E1
1.515082656E1,-4.165201187E-1,2.609074402E1,7.211436272E0
1.516749250E1,-1.064109039E1,2.744084167E1,1.207096767E1
1.518415844E1,-1.599736786E1,2.914333725E1,7.756766796E0
1.520082438E1,-2.301116943E1,3.160031700E1,3.688274384E0
1.521749031E1,-2.520749855E1,2.781049156E1,1.179909134E1
1.523415625E1,-2.337708092E1,2.196516228E1,2.340309334E1
1.525082219E1,-2.041925049E1,1.980065346E1,1.923510361E1
1.526748813E1,-1.789720917E1,1.973114014E1,1.768420100E0
1.528415406E1,-1.465349579E1,2.541884804E1,-1.345684910E1
1.530082000E1,-6.237205505E0,3.297478104E1,-7.710044861E0
1.531748594E1,4.462643623E0,4.005788040E1,1.017164230E1
1.533415188E1,3.065111160E1,4.381941605E1,2.614905930E1
1.535081781E1,6.494497681E1,3.343658066E1,3.481826782E1
1.536748375E1,6.970431519E1,6.273272038E0,2.730786896E1
1.538414969E1,6.295198441E1,-2.038659477E1,1.043958282E1
1.540081563E1,3.616559601E1,-3.457287598E1,7.021095753E-1
1.541748156E1,1.514171600E1,-3.828607178E1,7.304012775E-2
1.543414750E1,4.147434235E-1,-4.116071701E1,8.854530334E0
1.545081344E1,-1.480862999E1,-4.482036591E1,1.261882782E1
1.546747938E1,-2.327276230E1,-5.075925446E1,7.097360611E0
1.548414531E1,-2.984623337E1,-5.177947617E1,-2.939699888E0
1.550081125E1,-2.886247635E1,-5.325488663E1,-4.432981968E0
1.551747719E1,-1.644366455E1,-5.638825226E1,1.106644154E0
1.553414313E1,6.397013664E-1,-5.670705795E1,5.670660019E0
1.555080906E1,7.823073387E0,-5.317568207E1,7.226622581E0
1.556747500E1,1.203816605E1,-4.656867599E1,7.645665169E0
1.558414094E1,1.915755844E1,-3.752865601E1,5.490505219E0
1.560080688E1,3.593275070E1,-2.796938133E1,1.116014385E1
1.561747281E1,5.825690460E1,-1.400503349E1,3.029162979E1
1.563413875E1,6.890454865E1,5.209997177E0,3.510539246E1
1.565080469E1,6.699900055E1,1.783067703E1,1.523259926E1
1.566747063E1,4.129486084E1,2.299420738E1,-7.853382826E-1
1.568413656E1,1.540720558E1,2.542216110E1,4.250403404E0
1.570080250E1,3.077833176E0,2.413697052E1,1.564424038E1
1.571746844E1,-5.990270615E0,2.398362350E1,1.780957985E1
1.573413438E1,-1.285159779E1,2.369839478E1,1.644024277E1
1.575080031E1,-1.618558502E1,1.999510956E1,1.430152798E1
1.576746625E1,-1.761944580E1,1.434994125E1,1.127120495E1
1.578413219E1,-2.157229805E1,1.365245056E1,6.790220261E0
1.580079813E1,-2.327476120E1,1.580056000E1,1.151658177E0
1.581746406E1,-2.030042267E1,1.599198151E1,-3.108030081E0
1.583413000E1,-1.626552773E1,1.598608971E1,-2.573484182E0
1.585079594E1,-1.111878109E1,1.720890617E1,5.218266845E-1
1.586746188E1,-3.193528652E0,2.047243118E1,4.512155056E0
1.588412781E1,7.433083534E0,2.559103203E1,9.233795166E0
1.590079375E1,2.290848541E1,2.601849747E1,1.416773605E1
1.591745969E1,4.448276138E1,1.775512505E1,1.903180313E1
1.593412563E1,5.321158218E1,6.039435863E0,1.900453568E1
1.595079156E1,4.659589005E1,-9.526534081E0,1.698019028E1
1.596745750E1,2.834308243E1,-1.929680061E1,1.443191051E1
1.598412344E1,1.186461067E1,-2.694617462E1,1.241770935E1
1.600078938E1,-2.079367638E-1,-3.489770508E1,6.989925861E0
1.601745531E1,-1.149548721E1,-4.024259949E1,-6.317020655E-1
1.603412125E1,-2.104219437E1,-4.342737579E1,-5.381434917E0
1.605078719E1,-2.807099724E1,-4.784357071E1,-4.134124279E0
1.606745312E1,-3.675777054E1,-5.046409988E1,-3.792189360E0
1.608411906E1,-3.439393616E1,-5.111928558E1,-2.942559242E0
1.610078500E1,-1.763044357E1,-4.862960434E1,-1.949688673E0
1.611745094E1,-1.388196468E0,-4.081895447E1,-3.894247293E0
1.613411688E1,7.365780830E0,-3.124219322E1,-8.474441528E0
1.615078281E1,1.714832687E1,-2.138023949E1,-8.242295265E0
1.616744875E1,2.389896393E1,-1.354138279E1,-3.019444466E0
1.618411469E1,2.545397949E1,-7.850534916E0,6.895088673E0
1.620078062E1,3.011095428E1,-4.710047245E0,1.326792812E1
1.621744656E1,4.265908813E1,3.554330349E0,1.586621761E1
1.623411250E1,4.976644135E1,1.066476822E1,2.694361305E1
1.625077844E1,4.201311874E1,1.419737530E1,4.093280792E1
1.626744438E1,3.488960648E1,1.536438084E1,2.848095703E1
1.628411031E1,1.858807945E1,1.330447578E1,1.593305111E0
1.630077625E1,2.043495178E-1,1.525553608E1,-1.622088623E1
1.631744219E1,-5.489711761E0,1.523105526E1,-8.642040253E0
1.633410812E1,-7.146006584E0,1.510824585E1,6.225684166E0
1.635077406E1,-7.026394844E0,1.690776443E1,1.791828346E1
1.636744000E1,-2.568050861E0,1.547869778E1,1.854167938E1
1.638410594E1,-1.505374908E-2,1.224312687E1,1.289184380E1
1.640077188E1,-2.597007751E-1,9.241222382E0,9.920343399E0
1.641743781E1,3.057392120E0,5.402203560E0,1.054644394E1
1.643410375E1,9.835958481E0,-4.050650597E-1,1.165013885E1
1.645076969E1,1.576897621E1,-7.587528229E0,1.087274075E1
1.646743562E1,1.994558144E1,-1.767911148E1,8.056299210E0
1.648410156E1,1.689436913E1,-2.295897675E1,5.636301994E0
1.650076750E1,1.464190769E1,-2.520179558E1,4.088815212E0
1.651743344E1,1.527193451E1,-2.573376465E1,9.410122871E0
1.653409938E1,1.558326244E1,-2.856188583E1,1.352271748E1
1.655076531E1,6.685374737E0,-2.763065720E1,1.341413784E1
1.656743125E1,-1.703759193E0,-2.358456802E1,1.028194046E1
1.658409719E1,-4.351134777E0,-1.893302727E1,3.675306797E0
1.660076312E1,-3.879882574E0,-1.390307426E1,-3.757221699E0
1.661742906E1,-3.582213640E0,-1.018496513E1,-9.554967880E0
1.663409500E1,-6.269971371E0,-5.490899086E0,-1.454277802E1
1.665076094E1,-7.244344234E0,-1.311607361E0,-1.386740112E1
1.666742688E1,-7.910464287E0,2.414034843E0,-6.822560787E0
1.668409281E1,-1.218620777E0,3.327677727E0,5.318950653E0
1.670075875E1,1.362003613E1,5.228371143E0,1.381786823E1
1.671742469E1,1.800475693E1,6.104765892E0,7.784790039E0
1.673409062E1,9.870490074E0,4.494221687E0,-1.669229746E0
1.675075656E1,-2.262517929E0,2.638401508E0,-9.529120922E-1
1.676742250E1,-9.578124046E0,1.863816261E0,7.289492130E0
1.678408844E1,-1.165853119E1,1.698719501E0,1.440159893E1
1.680075438E1,-9.919994354E0,1.678137779E0,1.477010727E1
1.681742031E1,-5.005252838E0,1.018658161E0,9.814014435E0
1.683408625E1,-2.040552616E0,-5.878210068E-1,5.131423950E0
1.685075219E1,-3.344562531E0,-1.429825783E0,5.060604095E0
1.686741812E1,-1.129966736E0,-2.268620968E0,8.599350929E0
1.688408406E1,6.355025291E0,-2.920643568E0,1.177171135E1
1.690075000E1,1.697465515E1,-4.950995445E0,1.109582710E1
1.691741594E1,2.145757294E1,-6.018862724E0,6.276590347E0
1.693408188E1,1.600318909E1,-7.312525749E0,2.689663649E0
1.695074781E1,7.753095150E0,-9.583719254E0,1.042070150E0
1.696741375E1,1.999643803E0,-1.190133953E1,7.866166830E-1
1.698407969E1,-1.985685349E0,-1.326393986E1,5.479975939E-1
1.700074562E1,-3.257561684E0,-1.360159302E1,-1.831788063E0
1.701741156E1,-3.091543198E0,-1.336948490E1,-7.560605049E0
1.703407750E1,-3.553007126E0,-1.294077682E1,-1.179797459E1
1.705074344E1,-5.438439369E0,-1.254388809E1,-1.305200291E1
1.706740938E1,-6.900872707E0,-1.108130455E1,-8.998363495E0
1.708407531E1,-7.408989906E0,-9.128057480E0,6.145620346E-2
1.710074125E1,-4.025590420E0,-4.327519894E0,8.412651062E0
1.711740719E1,1.200338173E1,5.126132965E-1,1.341652012E1
1.713407312E1,3.046510124E1,3.292978764E0,1.563185215E1
1.715073906E1,2.826081085E1,6.927250862E0,1.824945641E1
1.716740500E1,1.176234150E1,7.422802925E0,1.788745117E1
1.718407094E1,-7.806110382E-1,6.727384567E0,1.468791199E1
1.720073688E1,-5.865071297E0,5.105587006E0,1.111415005E1
1.721740281E1,-7.878943443E0,3.692971468E0,7.728002071E0
1.723406875E1,-9.978784561E0,3.352830410E0,5.242768288E0
1.725073469E1,-1.215077400E1,3.863293886E0,3.523782253E0
1.726740062E1,-1.279342461E1,4.233388901E0,2.906086206E0
1.728406656E1,-1.247756195E1,4.195823669E0,4.716897011E0
1.730073250E1,-1.249973297E1,4.178142071E0,7.363590240E0
1.731739844E1,-9.018519402E0,3.971737623E0,8.340522766E0
1.733406438E1,-9.126539230E-1,4.031541348E0,7.343164921E0
1.735073031E1,2.577167511E0,5.739789963E0,5.804872990E0
1.736739625E1,4.087055206E0,7.352899551E0,5.862982750E0
1.738406219E1,1.282361126E1,1.167844009E1,9.739706039E0
1.740072812E1,3.253186798E1,1.430360413E1,1.530503273E1
1.741739406E1,4.910437012E1,1.495482349E1,1.839239120E1
1.743406000E1,5.006099319E1,1.445045280E1,1.507348633E1
1.745072594E1,4.043393707E1,8.919127464E0,1.311683178E1
1.746739188E1,2.824553680E1,1.734961987E0,1.626416588E1
1.748405781E1,1.670220184E1,-3.557842255E0,1.948557472E1
1.750072375E1,9.193144798E0,-6.884152412E0,1.929559517E1
1.751738969E1,5.698928833E0,-1.013125324E1,1.496408272E1
1.753405562E1,2.348301888E0,-1.254383278E1,8.912993431E0
1.755072156E1,-3.356443882E0,-1.403296852E1,4.766725063E0
1.756738750E1,-9.542430878E0,-1.485449219E1,3.307931423E0
1.758405344E1,-1.385068893E1,-1.532285118E1,1.881687164E0
1.760071938E1,-1.469547462E1,-1.660921860E1,1.128240526E-1
1.761738531E1,-1.287582397E1,-1.827283287E1,-2.447125435E0
1.763405125E1,-1.254629993E1,-1.834865570E1,-5.043313980E0
1.765071719E1,-1.170541477E1,-1.740233421E1,-5.459688663E0
1.766738312E1,-9.265246391E0,-1.652590370E1,-5.334851742E0
1.768404906E1,-7.712475300E0,-1.503260612E1,-6.670450211E0
1.770071500E1,-6.438157082E0,-1.300875473E1,-7.991262913E0
1.771738094E1,-1.798080921E0,-1.081370831E1,-7.713658333E0
1.773404688E1,5.514550209E0,-8.939556122E0,-7.137651920E0
1.775071281E1,1.266854382E1,-5.655438423E0,-4.179562092E0
1.776737875E1,1.840118980E1,1.004253626E-1,2.075366974E0
1.778404469E1,2.382779694E1,5.255654812E0,6.668816566E0
1.780071062E1,2.755068016E1,7.718941689E0,4.402899265E0
1.781737656E1,2.489241791E1,1.038106346E1,-1.394334078E0
1.783404250E1,1.776391983E1,1.382232285E1,6.767978072E-1
1.785070844E1,1.101300907E1,1.476464176E1,7.129958630E0
1.786737438E1,4.840148926E0,1.426508331E1,9.269820213E0
1.788404031E1,-7.521085739E-1,1.291598320E1,6.333560944E0
1.790070625E1,-6.170845985E0,1.259651947E1,3.325916290E0
1.791737219E1,-1.200093746E1,1.268182278E1,1.779793143E0
1.793403812E1,-1.644204330E1,1.224317837E1,2.587450743E0
1.795070406E1,-1.800802994E1,1.044892502E1,4.171905041E0
1.796737000E1,-1.782304955E1,7.629805088E0,4.115316868E0
1.798403594E1,-1.612203598E1,5.947769642E0,2.388285160E0
1.800070188E1,-1.356347466E1,5.990531445E0,-1.061452150E0
1.801736781E1,-1.240310478E1,7.161960125E0,-5.746932983E0
1.803403375E1,-1.252525902E1,8.679927826E0,-8.352266312E0
1.805069969E1,-1.389007187E1,1.038119507E1,-3.569826365E0
1.806736562E1,-9.935042381E0,1.223140621E1,3.516496420E0
1.808403156E1,8.118104935E-1,1.455006599E1,8.247511864E0
1.810069750E1,1.400809765E1,1.704260063E1,1.118225288E1
1.811736344E1,1.814787674E1,1.873676109E1,1.538641930E1
1.813402938E1,1.974051094E1,1.791061211E1,2.045970154E1
1.815069531E1,3.102015305E1,1.689586639E1,2.054559898E1
1.816736125E1,4.833993530E1,1.352838612E1,1.487672424E1
1.818402719E1,5.537494278E1,5.890357018E0,1.095256138E1
1.820069312E1,4.678707886E1,-6.419281006E0,1.316149235E1
1.821735906E1,2.790171051E1,-1.653559113E1,1.489133644E1
1.823402500E1,9.193485260E0,-2.189451981E1,1.422985554E1
1.825069094E1,-6.716321945E0,-2.468946457E1,9.527597427E0
1.826735688E1,-1.890246964E1,-2.546784210E1,3.502443075E0
1.828402281E1,-2.652016830E1,-2.479288292E1,-2.711712420E-1
1.830068875E1,-2.978542519E1,-2.519353867E1,6.635570526E-1
1.831735469E1,-2.509490204E1,-2.693117905E1,6.170192242E0
1.833402062E1,-1.779077911E1,-2.986982536E1,9.137911797E0
1.835068656E1,-1.384589005E1,-3.150074005E1,5.560856342E0
1.836735250E1,-1.509781837E1,-3.125896072E1,-1.808703393E-1
1.838401844E1,-1.703802490E1,-3.095419121E1,-2.329030752E0
1.840068438E1,-1.555612373E1,-3.073332977E1,-3.020825386E-1
1.841735031E1,-9.933648109E0,-2.971381760E1,2.045852184E0
1.843401625E1,-3.096964836E0,-2.766955566E1,2.201851368E0
1.845068219E1,4.345470428E0,-2.487983513E1,2.762754917E0
1.846734812E1,1.416204262E1,-2.047368431E1,2.689969540E0
1.848401406E1,2.730244637E1,-1.392832375E1,1.718873739E0
1.850068000E1,4.090404510E1,-7.477315903E0,6.627674103E0
1.851734594E1,5.468294525E1,-4.751272678E0,1.958953476E1
1.853401188E1,5.562189484E1,2.962397099E0,2.353566551E1
1.855067781E1,4.671649170E1,9.000580788E0,1.311678410E1
1.856734375E1,3.254258728E1,1.346748734E1,5.756885052E0
1.858400969E1,1.549879646E1,1.675171471E1,4.474094868E0
1.860067562E1,-3.028270245E0,2.177754402E1,4.773957253E0
1.861734156E1,-1.823906708E1,2.756429672E1,2.089915752E0
1.863400750E1,-2.330850410E1,2.932863998E1,1.499700189E0
1.865067344E1,-1.998142242E1,2.562360382E1,6.134461403E0
1.866733938E1,-1.652181625E1,2.286524963E1,8.502208710E0
1.868400531E1,-1.649324799E1,2.273766136E1,2.904672861E0
1.870067125E1,-1.893932343E1,2.375192451E1,-3.460670948E0
1.871733719E1,-1.830667305E1,2.590233803E1,-2.466366768E0
1.873400312E1,-7.426490784E0,2.687978745E1,9.574792862E0
1.875066906E1,9.116755486E0,2.669515610E1,2.275959396E1
1.876733500E1,2.730219841E1,2.447229385E1,2.813424873E1
1.878400094E1,4.093218994E1,1.919907761E1,2.834414101E1
1.880066688E1,4.716886902E1,9.645900726E0,3.057884979E1
1.881733281E1,4.811870575E1,-5.031548500E0,3.064764404E1
1.883399875E1,4.164840698E1,-1.640293312E1,2.398686600E1
1.885066469E1,3.546017838E1,-2.562147713E1,1.757591057E1
1.886733062E1,2.307055283E1,-3.270378113E1,1.190874577E1
1.888399656E1,6.981006622E0,-3.473818970E1,7.212314129E0
1.890066250E1,-9.125674248E0,-3.186856651E1,5.425133705E0
1.891732844E1,-1.928352356E1,-2.881927109E1,1.580655575E0
1.893399438E1,-2.262177658E1,-2.991549301E1,-1.493052959E0
1.895066031E1,-2.237277603E1,-3.441031265E1,1.851198435E0
1.896732625E1,-2.378219414E1,-3.979405594E1,6.017546654E0
1.898399219E1,-3.003913116E1,-4.340249634E1,5.842666626E0
1.900065812E1,-3.277107239E1,-4.414662933E1,5.702717781E0
1.901732406E1,-2.622430038E1,-4.530595779E1,1.104821968E1
1.903399000E1,-1.587147522E1,-4.590869522E1,1.464369488E1
1.905065594E1,-5.261786461E0,-4.531938553E1,1.289839172E1
1.906732188E1,5.609723091E0,-4.294477463E1,8.187762260E0
1.908398781E1,2.133882713E1,-3.859297180E1,7.162142754E0
1.910065375E1,3.468283081E1,-3.375363922E1,1.128531742E1
1.911731969E1,4.542603683E1,-2.793474197E1,2.753981209E1
1.913398562E1,6.177310944E1,-1.527939129E1,4.453417587E1
1.915065156E1,7.169821930E1,1.357655525E-1,3.628661728E1
1.916731750E1,5.951462555E1,1.144483185E1,1.730850601E1
1.918398344E1,3.572095108E1,1.624467850E1,1.061629677E1
1.920064938E1,1.917921448E1,2.358090019E1,1.522602749E1
1.921731531E1,1.092135525E1,3.039900589E1,1.847219849E1
1.923398125E1,7.122725487E0,2.848387527E1,1.612187576E1
1.925064719E1,-2.640223503E-1,2.541127968E1,1.060387325E1
1.926731312E1,-8.522830009E0,2.440934563E1,6.092070580E0
1.928397906E1,-1.535826302E1,2.394965172E1,6.986877918E-1
1.930064500E1,-1.980913162E1,2.129627419E1,-2.730395317E0
1.931731094E1,-2.017272758E1,2.035131073E1,-7.554113865E-3
1.933397688E1,-1.125607491E1,2.117345047E1,6.421676159E0
1.935064281E1,3.725658417E0,2.237401009E1,7.625295162E0
1.936730875E1,1.319968700E1,2.200614357E1,6.291423321E0
1.938397469E1,1.794901466E1,2.149253464E1,1.322534657E1
1.940064062E1,3.005350113E1,1.818935585E1,2.446160316E1
1.941730656E1,5.066683578E1,4.883041382E0,2.990965271E1
1.943397250E1,5.958090210E1,-1.369964123E1,1.993810654E1
1.945063844E1,4.941936111E1,-2.491375923E1,8.573828697E0
1.946730438E1,3.184764099E1,-2.949569511E1,8.089723587E0
1.948397031E1,1.438988113E1,-3.153147888E1,1.455478001E1
1.950063625E1,-5.434508324E-1,-2.979803085E1,1.566680717E1
1.951730219E1,-9.813068390E0,-2.910220909E1,8.655451775E0
1.953396812E1,-1.708337593E1,-2.782758141E1,1.169964552E0
1.955063406E1,-2.052924728E1,-2.969408798E1,-6.036858559E-1
1.956730000E1,-2.172303772E1,-3.324977112E1,1.749848843E0
1.958396594E1,-2.501262665E1,-3.616301346E1,1.482952356E0
1.960063188E1,-2.981664658E1,-4.068741608E1,-4.318842411E0
1.961729781E1,-3.027120590E1,-4.385280609E1,-9.332607269E0
1.963396375E1,-2.015121841E1,-4.655728149E1,-3.863601685E0
1.965062969E1,-7.301633358E0,-4.660714722E1,5.518943787E0
1.966729562E1,-8.380765915E-1,-4.316699219E1,4.522431374E0
1.968396156E1,9.979716301E0,-3.875764084E1,1.060399890E0
1.970062750E1,2.968431282E1,-3.503396225E1,5.729138374E0
1.971729344E1,4.969701004E1,-2.882350540E1,1.674595261E1
1.973395938E1,6.880333710E1,-1.793159294E1,3.076739883E1
1.975062531E1,6.879659271E1,-2.498845100E0,2.877788544E1
1.976729125E1,4.628257751E1,6.909724712E0,1.625168800E1
1.978395719E1,1.763520050E1,1.203474998E1,7.186356544E0
1.980062312E1,3.360856056E0,1.500242615E1,7.336102486E0
1.981728906E1,-1.789159775E-1,1.690801430E1,1.085767269E1
1.983395500E1,-4.942646027E-1,1.719854355E1,9.836017609E0
1.985062094E1,-3.282480717E0,1.580212975E1,5.945961475E0
1.986728688E1,-7.777049541E0,1.444803524E1,3.060289145E0
1.988395281E1,-1.232859612E1,1.394305897E1,2.794852972E0
1.990061875E1,-1.464648247E1,1.393491459E1,4.097931385E0
1.991728469E1,-1.447081947E1,1.372620296E1,5.793761253E0
1.993395062E1,-9.984230995E0,1.357019234E1,8.261757851E0
1.995061656E1,-3.890914917E-1,1.393227196E1,8.563591003E0
1.996728250E1,8.139211655E0,1.369784737E1,5.036958694E0
1.998394844E1,7.336267471E0,1.259753132E1,-3.747255206E-1
2.000061438E1,1.926717758E0,1.134488583E1,-3.361043692E0
2.001728031E1,-2.238153458E0,1.030601501E1,-2.143063307E0
2.003394625E1,-4.467713356E0,9.417800903E0,3.077730179E0
2.005061219E1,-5.119349957E0,7.627878189E0,9.037018776E0
2.006727812E1,-3.628752708E0,4.549819469E0,1.336109066E1
2.008394406E1,-1.027189255E0,9.771202803E-1,1.468936634E1
2.010061000E1,2.560725212E0,-6.969711304E0,1.522472191E1
2.011727594E1,1.568780136E1,-1.742847443E1,1.977732086E1
2.013394188E1,3.516708374E1,-2.104138565E1,1.991393661E1
2.015060781E1,4.122822571E1,-2.363058853E1,1.218551636E1
2.016727375E1,2.626434326E1,-2.415777588E1,1.061292410E0
2.018393969E1,1.781594276E0,-2.028457451E1,-3.537376165E0
2.020060562E1,-1.253931618E1,-1.625155640E1,-1.735302329E0
2.021727156E1,-1.607985497E1,-1.459123611E1,-1.241535544E0
2.023393750E1,-1.750290298E1,-1.428560638E1,-4.374724388E0
2.025060344E1,-2.041265869E1,-1.414899445E1,-8.388461113E0
2.026726938E1,-2.424668312E1,-1.488306999E1,-1.115212345E1
2.028393531E1,-2.733331299E1,-1.535238647E1,-1.259088039E1
2.030060125E1,-2.622914505E1,-1.636850548E1,-1.300164413E1
2.031726719E1,-2.218127823E1,-1.668203545E1,-1.204512215E1
2.033393312E1,-1.837551117E1,-1.754881096E1,-9.889008522E0
2.035059906E1,-1.216604900E1,-1.845992088E1,-5.623598576E0
2.036726500E1,-1.436653137E-1,-2.277309799E1,-1.376465321E0
2.038393094E1,1.942257881E1,-2.019585609E1,5.332300186E0
2.040059688E1,4.487550354E1,-1.531968594E1,1.203125286E1
2.041726281E1,5.511449432E1,-1.125836754E1,1.808204269E1
2.043392875E1,4.600478363E1,-6.082598686E0,2.075640678E1
2.045059469E1,2.776202774E1,8.763636351E-1,2.013484383E1
2.046726062E1,8.609148979E0,3.060982704E0,1.309352398E1
2.048392656E1,-4.984217167E0,3.852216482E0,3.200017691E0
2.050059250E1,-9.310040474E0,5.244112968E0,-3.546764612E0
2.051725844E1,-8.720766068E0,6.615672112E0,-6.191198826E0
2.053392438E1,-7.868499756E0,7.788962841E0,-5.605860233E0
2.055059031E1,-7.547732353E0,8.608413696E0,-3.677674532E0
2.056725625E1,-7.013911247E0,8.731610298E0,-1.701739073E0
2.058392219E1,-6.768287659E0,8.351969719E0,-2.831297219E-1
2.060058812E1,-7.534292698E0,7.659686089E0,1.222705603E0
2.061725406E1,-8.468845367E0,6.578690052E0,1.943137527E0
2.063392000E1,-8.830722809E0,5.475171089E0,2.506135941E0
2.065058594E1,-8.130940437E0,4.418004990E0,3.099243402E0
2.066725188E1,-7.084157944E0,3.300230503E0,3.043235779E0
2.068391781E1,-5.514404774E0,1.803307772E0,2.743519545E0
2.070058375E1,-4.013906479E0,8.708001375E-1,3.797194242E0
2.071724969E1,-1.408749580E0,-1.890173554E0,5.594631672E0
2.073391562E1,3.715648651E-1,-5.367220879E0,7.652409077E0
2.075058156E1,8.659408569E0,-7.164250851E0,8.564393044E0
2.076724750E1,2.413183212E1,-7.153797150E0,1.407621765E1
2.078391344E1,3.128959274E1,-9.391004562E0,2.060905075E1
2.080057938E1,2.884699821E1,-1.162930012E1,2.305520821E1
2.081724531E1,2.011471558E1,-1.295183468E1,1.907379723E1
2.083391125E1,8.930998802E0,-1.362316990E1,1.074422550E1
2.085057719E1,-2.438824177E0,-1.291908264E1,8.914071321E-2
2.086724312E1,-9.708915710E0,-1.102280807E1,-7.261544228E0
2.088390906E1,-1.264367867E1,-9.402069092E0,-9.634460449E0
2.090057500E1,-1.325719261E1,-8.743428230E0,-9.039768219E0
2.091724094E1,-1.341003132E1,-8.879051208E0,-7.776842117E0
2.093390688E1,-1.295827198E1,-8.686162949E0,-5.889764309E0
2.095057281E1,-1.150860500E1,-8.183122635E0,-4.668709755E0
2.096723875E1,-1.007630634E1,-7.558407784E0,-5.505458355E0
2.098390469E1,-8.868890762E0,-7.956290245E0,-7.360444069E0
2.100057062E1,-8.759112358E0,-8.669346809E0,-7.988664150E0
2.101723656E1,-7.512432098E0,-8.754744530E0,-7.341637611E0
2.103390250E1,-4.482498169E0,-9.157238960E0,-6.059583187E0
2.105056844E1,1.752236366E0,-6.160322189E0,-8.196517229E-1
2.106723438E1,1.350859070E1,-5.280700207E0,7.887917519E0
2.108390031E1,2.286090469E1,-4.128607750E0,1.774406624E1
2.110056625E1,2.837017632E1,-2.367833614E0,2.858535385E1
2.111723219E1,2.817654800E1,-1.934971452E0,2.952718163E1
2.113389812E1,1.814978790E1,-2.010632992E0,1.732276535E1
2.115056406E1,6.976776123E0,-1.709383130E0,1.664040089E0
2.116723000E1,-1.333494186E-1,-2.260227203E-1,-9.381240845E0
2.118389594E1,-3.742891788E0,1.449273825E0,-1.346006203E1
2.120056188E1,-5.452886581E0,1.993126631E0,-1.257153511E1
2.121722781E1,-6.761181355E0,1.344961882E0,-8.825813293E0
2.123389375E1,-7.902127743E0,5.984678268E-1,-5.434923172E0
2.125055969E1,-8.651353836E0,1.774375439E-1,-2.775943756E0
2.126722563E1,-8.652232170E0,-1.270327568E-1,-6.836056709E-1
2.128389156E1,-8.721161842E0,-2.165918350E-1,7.076263428E-3
2.130055750E1,-9.090917587E0,-3.388583660E-1,-7.691574097E-1
2.131722344E1,-9.641614914E0,-4.583740234E-1,-2.417455435E0
2.133388938E1,-9.696977615E0,-5.817422867E-1,-3.739749193E0
2.135055531E1,-9.419797897E0,-3.886954784E-1,-4.303295135E0
2.136722125E1,-8.268534660E0,4.790692329E-1,-3.570912600E0
2.138388719E1,-6.603495121E0,2.057497978E0,-1.534381866E0
2.140055313E1,-3.812464714E0,4.223727703E0,1.828934193E0
2.141721906E1,2.889146805E0,3.250895977E0,7.013176918E0
2.143388500E1,1.222170830E1,-1.262000084E0,1.142018318E1
2.145055094E1,2.072059822E1,-1.674307227E0,1.258859825E1
2.146721688E1,2.629858208E1,-1.778345823E0,1.132534599E1
2.148388281E1,2.690592575E1,-2.324020147E0,1.054273415E1
2.150054875E1,2.390881920E1,-2.349504471E0,1.003483963E1
2.151721469E1,1.730260849E1,-2.886374950E0,8.841346741E0
2.153388063E1,9.590030670E0,-3.614350796E0,6.502094746E0
2.155054656E1,2.627374649E0,-3.987394333E0,4.877442360E0
2.156721250E1,-2.360079288E0,-4.204769135E0,3.840421915E0
2.158387844E1,-5.572655201E0,-4.288845062E0,2.866012812E0
2.160054438E1,-7.501016617E0,-4.395843506E0,1.589715004E0
2.161721031E1,-8.335824966E0,-4.390969276E0,5.893537998E-1
2.163387625E1,-8.558313370E0,-4.259533882E0,-2.212119102E-1
2.165054219E1,-8.629052162E0,-4.213345528E0,-7.451369762E-1
2.166720813E1,-8.206670761E0,-4.286353111E0,-8.960447311E-1
2.168387406E1,-7.265704632E0,-4.347046852E0,-4.610092640E-1
2.170054000E1,-5.873251915E0,-4.561443329E0,-9.840035439E-2
2.171720594E1,-4.411286354E0,-4.615531921E0,4.790711403E-2
2.173387188E1,-3.815107822E0,-4.661520004E0,-2.910799980E-1
2.175053781E1,-3.785386562E0,-4.652010441E0,-1.321463823E0
2.176720375E1,-4.232656479E0,-4.246405602E0,-2.198259354E0
2.178386969E1,-4.871297836E0,-3.046998739E0,-2.726755381E0
2.180053563E1,-5.017503738E0,-1.752619743E0,-3.758995533E0
2.181720156E1,-4.731164932E0,-1.419876099E0,-3.962041855E0
2.183386750E1,-3.663054466E0,3.894653320E-1,5.117068291E-1
2.185053344E1,-8.140411377E-1,2.883877277E0,8.839344025E0
2.186719938E1,2.949827671E0,2.693096161E0,1.624637222E1
2.188386531E1,5.518461704E0,8.245372772E-2,1.640183258E1
2.190053125E1,5.530027390E0,-1.617102623E0,1.123213291E1
2.191719719E1,4.151727200E0,-2.770840406E0,5.053402424E0
2.193386313E1,2.025836468E0,-3.341966391E0,1.389972210E0
2.195052906E1,2.412002087E-1,-2.776645899E0,-5.537176132E-1
2.196719500E1,-8.585793972E-1,-1.995933533E0,-2.197171211E0
2.198386094E1,-1.770606041E0,-1.556493759E0,-2.843437195E0
2.200052688E1,-1.665646791E0,-2.462560654E0,-4.381101608E0
2.201719281E1,-5.524916649E-1,-2.166007042E0,1.584163666E0
2.203385875E1,-1.132121086E-1,-1.862012386E0,3.341320515E0
2.205052469E1,-2.529209852E-1,-1.955426693E0,6.091194153E-1
2.206719063E1,-2.163519859E-1,-1.612069607E0,-2.001807213E0
2.208385656E1,-9.891663194E-1,-2.420275927E0,-2.943733692E0
2.210052250E1,-2.358052492E0,-3.536167860E0,-1.598108768E0
2.211718844E1,-1.844564557E0,-4.830403805E0,4.715433121E-1
2.213385438E1,3.800257444E-1,-2.332344770E0,1.529792309E0
2.215052031E1,-3.574751616E-1,-1.807106495E0,3.010878563E-1
2.216718625E1,-2.606876373E0,-2.631299734E0,-1.796869278E0
2.218385219E1,-4.210761070E0,-2.976780653E0,-1.840397358E0
2.220051813E1,-3.723512650E0,-3.093551874E0,-2.087319374E0
2.221718406E1,-3.355259895E-1,-1.774006367E0,-5.467476845E-1
2.223385000E1,-5.684528351E-1,-1.004943848E0,1.611257076E0
2.225051594E1,-2.254180908E-1,-2.718645334E0,4.301599503E0
2.226718188E1,-3.783159256E-1,-2.581321478E0,3.080647469E0
2.228384781E1,-3.663978338E0,-2.761225700E-1,-2.413295746E0
2.230051375E1,-1.761631846E0,-2.517453909E0,1.222724915E0
2.231717969E1,2.603183985E0,-5.090047836E0,3.111340046E0
2.233384563E1,4.697860241E0,-4.637413502E0,5.356626987E0
2.235051156E1,3.863913536E0,-3.157622099E0,4.428541660E0
2.236717750E1,1.644697666E0,-2.702886105E0,5.121029377E0
2.238384344E1,-1.179498911E0,-2.214474678E0,4.695210934E0
2.240050938E1,-2.475305080E0,-7.262649536E-1,4.500506401E0
2.241717531E1,-8.230345249E-1,-7.311255932E-1,5.176032066E0
2.243384125E1,1.146292686E-1,-1.411038756E0,4.029416084E0
2.245050719E1,-1.876883507E-1,-1.404654145E0,5.210404396E0
2.246717313E1,1.857376099E-2,-8.359702826E-1,4.633266449E0
2.248383906E1,1.745345592E-1,-9.571421146E-1,4.910025597E0
2.250050500E1,9.473229647E-1,-1.147104383E0,4.791925430E0
2.251717094E1,2.353177786E0,-1.248548865E0,4.213829041E0
2.253383688E1,3.319914579E0,-1.294953704E0,2.403577805E0
2.255050281E1,2.475229740E0,-1.502138615E0,7.266664505E-1
2.256716875E1,1.293462038E0,-1.842699289E0,-6.354074478E-1
2.258383469E1,1.211977124E0,-2.164680958E0,-7.657299042E-1
2.260050063E1,1.894443989E0,-2.158560753E0,-5.229749680E-1
2.261716656E1,2.588564873E0,-1.805801511E0,-6.431007385E-1
2.263383250E1,2.085391521E0,-1.502338767E0,-1.068436623E0
2.265049844E1,1.475606203E0,-1.485408902E0,-1.171928883E0
2.266716438E1,1.085256219E0,-1.353597641E0,-1.140563011E0
2.268383031E1,3.542395830E-1,-1.106246710E0,-7.771005630E-1
2.270049625E1,3.805088997E-2,-9.261603355E-1,1.291084290E-1
2.271716219E1,3.814637661E-2,-6.984682083E-1,8.174610138E-1
2.273382813E1,6.839002371E-1,-3.920764923E-1,2.532863617E-1
2.275049406E1,8.944407701E-1,9.518146515E-3,-6.548814774E-1
2.276716000E1,1.079589248E0,-3.836448193E-1,-6.212062836E-1
2.278382594E1,9.518071413E-1,-4.377202988E-1,-4.529962540E-1
2.280049188E1,6.625982523E-1,-2.800650597E-1,-1.903047562E-1
2.281715781E1,-5.980861187E-2,-2.870280743E-1,2.119750977E-1
2.283382375E1,-2.803146839E-1,-5.678839684E-1,2.751550674E-1
2.285048969E1,1.972031593E-1,-6.385123730E-1,-1.293296814E-1
2.286715563E1,5.796365738E-1,-4.890816212E-1,-4.988994598E-1
2.288382156E1,3.840763569E-1,-4.552817345E-1,-4.512643814E-1
2.290048750E1,1.670861244E-2,-4.986495972E-1,1.505565643E-2
2.291715344E1,9.318089485E-2,-3.076155186E-1,3.119821548E-1
2.293381938E1,2.312223911E-1,5.132341385E-2,2.405223846E-1
2.295048531E1,-4.219603539E-2,-6.676769257E-2,3.298797607E-1
2.296715125E1,-1.466262341E-1,-1.222882271E-1,-1.495656967E-1
2.298381719E1,-5.181312561E-2,-2.498025894E-1,-1.959800720E0
2.300048313E1,1.312568188E-1,1.418137550E-1,-8.828959465E-1
2.301714906E1,-6.063222885E-2,-6.813156605E-1,1.944855690E0
2.303381500E1,8.742642403E-2,-9.011337757E-1,2.061549187E0
2.305048094E1,5.209422112E-2,-4.540259838E-1,1.351410866E0
2.306714688E1,6.166887283E-2,-6.224963665E-1,7.053232193E-1
2.308381281E1,1.448080540E-1,-4.900009632E-1,-2.411680222E-1
