"Time (s)","Acceleration x (m/s^2)","Acceleration y (m/s^2)","Acceleration z (m/s^2)"
5.566585000E-3,-1.949851394E0,3.693022728E0,8.188837051E0
2.223252300E-2,-1.511067510E0,3.638286829E0,8.880661964E0
3.889846000E-2,-9.056833982E-1,3.425325632E0,9.508479118E0
5.556439800E-2,-6.840481758E-1,3.314956665E0,9.802198410E0
7.223033500E-2,-1.279262781E0,3.386741400E0,9.819545746E0
8.889627300E-2,-1.948355794E0,3.584448338E0,9.629615784E0
1.055622100E-1,-2.132603168E0,3.401995659E0,8.937491417E0
1.222281480E-1,-1.918146491E0,3.118745327E0,8.668598175E0
1.388940850E-1,-1.804487348E0,3.517449379E0,8.985647202E0
1.555600230E-1,-1.770688772E0,3.812065601E0,9.391530037E0
1.722259600E-1,-1.588535190E0,3.645166159E0,9.732506752E0
1.888918980E-1,-8.186444640E-1,2.492722988E0,9.086744308E0
2.055578350E-1,-6.616154313E-1,1.835893154E0,9.302396774E0
2.222237730E-1,-9.864411354E-1,2.977867842E0,1.019970608E1
2.388897100E-1,-1.512862086E0,3.509373426E0,1.057178974E1
2.555556480E-1,-1.188335538E0,3.095415115E0,1.059541893E1
2.722215850E-1,-3.810569942E-1,2.378764868E0,9.500103951E0
2.888875230E-1,-3.260220960E-2,1.895414591E0,8.584251404E0
3.055534600E-1,-1.866401732E-1,2.509771824E0,8.591130257E0
3.222193980E-1,-1.552343667E-1,3.046063185E0,8.380263329E0
3.388853350E-1,7.716853023E-1,2.983550787E0,9.727721214E0
3.555512730E-1,1.464108348E0,2.731107950E0,9.755537987E0
3.722172100E-1,1.796112537E0,2.409572363E0,9.573683739E0
3.888831480E-1,1.645065546E0,2.208874464E0,9.053544044E0
4.055490850E-1,2.138884306E0,1.868495345E0,8.919545174E0
4.222150230E-1,2.600699186E0,1.200000525E0,9.250951767E0
4.388809600E-1,2.470589399E0,1.439880967E0,8.531310081E0
4.555468980E-1,1.759023786E0,1.306481123E0,8.565707207E0
4.722128350E-1,2.425424814E0,6.667001843E-1,9.428917885E0
4.888787730E-1,2.772982359E0,1.077368379E0,9.654740334E0
5.055447100E-1,2.799602509E0,1.421037555E0,9.981360435E0
5.222106480E-1,2.174477577E0,1.525723577E0,1.078983593E1
5.388765850E-1,1.675574064E0,1.523928881E0,9.608079910E0
5.555425230E-1,2.411067963E0,9.281160831E-1,8.485248566E0
5.722084600E-1,3.080160856E0,4.501497746E-1,8.149355888E0
5.888743980E-1,2.539382935E0,-2.856431901E-1,8.469096184E0
6.055403350E-1,1.629213095E0,-2.685943365E0,1.048385334E1
6.222062730E-1,1.944168359E-1,-1.972284079E0,1.136710358E1
6.388722100E-1,-3.888336942E-2,-1.764706671E-1,1.071834946E1
6.555381480E-1,1.301396370E0,-2.030908167E-1,9.710971832E0
6.722040850E-1,1.639382601E0,-4.785645287E-3,9.364909172E0
6.888700230E-1,1.432403445E0,4.307080805E-2,9.543772697E0
7.055359600E-1,1.690529227E0,1.319043487E-1,9.847362518E0
7.222018980E-1,2.030908108E0,6.095715761E-1,1.037767220E1
7.388678350E-1,3.024527788E0,1.355234981E0,1.065464115E1
7.555337730E-1,3.734897137E0,-9.990034252E-2,1.088824081E1
7.721997100E-1,3.033500910E0,6.296114326E-1,1.040638542E1
7.888656480E-1,2.801098108E0,1.806581169E-1,9.634401321E0
8.055315850E-1,3.122035265E0,-4.004986882E-1,8.022834778E0
8.221975230E-1,2.892025232E0,-7.061817646E-1,9.233603477E0
8.388634600E-1,2.385046005E0,3.589234054E-1,9.877870560E0
8.555293980E-1,2.613261461E0,3.619144261E-1,1.007737255E1
8.721953350E-1,3.221935749E0,7.815557122E-1,1.021017456E1
8.888612730E-1,2.972783089E0,1.310369492E0,9.637691498E0
9.055272100E-1,2.829811811E0,1.194317579E0,9.129216194E0
9.221931480E-1,3.229413271E0,1.308275819E0,8.879166603E0
9.388590850E-1,3.155235767E0,1.632204175E0,8.867501259E0
9.555250230E-1,3.394817114E0,1.802991867E0,8.985647202E0
9.721909600E-1,3.612264872E0,1.844567180E0,9.353842735E0
9.888568980E-1,3.677170277E0,2.140080690E0,9.235696793E0
1.005522835E0,3.744767427E0,1.768894196E0,9.050253868E0
1.022188773E0,3.567997694E0,1.820638895E0,8.380861282E0
1.038854710E0,3.600599766E0,2.059023857E0,8.894122124E0
1.055520648E0,4.103092670E0,2.012363911E0,9.248857498E0
1.072186585E0,4.337290287E0,2.231905222E0,9.487542152E0
1.088852523E0,4.707280159E0,1.980359793E0,8.853444099E0
1.105518460E0,4.370789528E0,2.168196440E0,8.143672943E0
1.122184398E0,3.766901016E0,2.733201742E0,7.684549809E0
1.138850335E0,3.214458227E0,2.346162558E0,8.462516785E0
1.155516273E0,3.511766434E0,2.668894529E0,8.922237396E0
1.172182210E0,3.998406649E0,2.431406975E0,8.465507507E0
1.188848148E0,3.966701746E0,1.587338686E0,8.649156570E0
1.205514085E0,3.538984776E0,1.654636860E0,9.231808662E0
1.222180023E0,3.665505171E0,1.951945066E0,8.896215439E0
1.238845960E0,4.147060871E0,1.776670814E0,8.358727455E0
1.255511898E0,3.826422453E0,1.357029557E0,7.896314621E0
1.272177835E0,3.414258718E0,1.052542806E0,8.931210518E0
1.288843773E0,3.652942896E0,6.930212379E-1,9.580862045E0
1.305509710E0,4.230510235E0,4.181457460E-1,9.765707016E0
1.322175648E0,4.296313286E0,6.798607111E-1,9.375079155E0
1.338841585E0,3.876372576E0,6.236293912E-1,9.450154305E0
1.355507523E0,3.478864908E0,6.296114326E-1,9.717252731E0
1.372173460E0,2.670390129E0,8.078767657E-1,9.425029755E0
1.388839398E0,2.557030201E0,1.153938770E0,9.258728027E0
1.405505335E0,2.755933523E0,1.266401410E0,9.237491608E0
1.422171273E0,3.273381472E0,3.831507266E-1,9.841979027E0
1.438837210E0,3.357130051E0,8.488538265E-1,9.703494072E0
1.455503148E0,3.236292601E0,1.117149115E0,9.164211273E0
1.472169085E0,3.445066452E0,1.528415442E0,8.753543854E0
1.488835023E0,3.736990690E0,1.855334878E0,8.300103188E0
1.505500960E0,3.606881142E0,2.078764677E0,8.520841599E0
1.522166898E0,4.472783566E0,-8.330013752E-1,7.511070251E0
1.538832835E0,2.440380096E0,1.201795220E0,1.069442177E1
1.555498773E0,2.441875458E0,2.362314224E0,1.104108143E1
1.572164710E0,3.959523201E0,6.059823632E-1,1.092203903E1
1.588830648E0,3.561417341E0,1.408475280E0,9.485149384E0
1.605496585E0,4.168895245E0,1.031605721E0,8.019844055E0
1.622162523E0,4.577469826E0,-1.983051747E-1,8.864211082E0
1.638828460E0,1.891227245E0,1.968993902E0,9.828818321E0
1.655494398E0,2.933899641E0,3.314657450E0,1.081466103E1
1.672160335E0,4.307978153E0,2.230110645E0,9.000003815E0
1.688826273E0,4.168895245E0,1.396810174E0,8.227720261E0
1.705492210E0,3.359822035E0,2.524128675E0,7.668099403E0
1.722158148E0,2.782553673E0,2.854039192E0,8.432905197E0
1.738824085E0,3.317349434E0,2.263610125E0,9.500701904E0
1.755490023E0,3.747459412E0,1.693520188E0,1.091695404E1
1.772155960E0,3.883252144E0,1.160519004E0,1.220489120E1
1.788821898E0,3.701098442E0,-1.426720470E-1,1.199880886E1
1.805487835E0,3.448356628E0,1.898704767E0,6.842575550E0
1.822153773E0,4.048655987E0,3.076272726E0,5.159224510E0
1.838819710E0,4.941477776E0,3.666701555E0,5.722435474E0
1.855485648E0,5.659025669E0,4.581357956E0,6.826424122E0
1.872151585E0,5.353940487E0,4.692325115E0,6.914958477E0
1.888817523E0,4.849354267E0,4.810171604E0,5.680561066E0
1.905483460E0,4.181158543E0,5.271089077E0,4.814658165E0
1.922149398E0,4.124628067E0,5.322834015E0,5.782256126E0
1.938815335E0,4.032504559E0,5.107480049E0,7.156932354E0
1.955481273E0,4.235894203E0,3.110669374E0,5.010570526E0
1.972147210E0,4.328915119E0,1.136590719E0,7.632505894E0
1.988813148E0,7.486543655E-1,4.325924397E0,1.610997772E1
2.005479085E0,3.075674295E0,4.902893543E0,8.544171333E0
2.022145023E0,3.367000580E0,3.556930780E0,1.054098225E1
2.038810960E0,3.256631613E0,3.068196774E0,9.302396774E0
2.055476898E0,3.523431301E0,3.554538012E0,7.760222912E0
2.072142835E0,2.624926329E0,4.013361931E0,6.920341969E0
2.088808773E0,1.604686737E0,3.922434568E0,9.019445419E0
2.105474710E0,2.398206472E0,3.356232882E0,9.947860718E0
2.122140648E0,3.000599623E0,2.946461916E0,1.009501934E1
2.138806585E0,2.667698145E0,3.056830883E0,9.727422714E0
2.155472523E0,2.973680258E0,3.296711445E0,8.250751495E0
2.172138460E0,2.483749866E0,3.588934898E0,8.286643982E0
2.188804398E0,2.684746981E0,3.377469063E0,8.807681084E0
2.205470335E0,2.601297379E0,3.318845034E0,9.565009117E0
2.222136273E0,2.744567633E0,3.343371391E0,9.164510727E0
2.238802210E0,3.283251762E0,3.728914976E0,9.487840652E0
2.255468148E0,3.166302681E0,3.627818346E0,8.976674080E0
2.272134085E0,2.541775942E0,3.483650684E0,8.508877754E0
2.288800023E0,2.284846544E0,3.569194078E0,8.143373489E0
2.305465960E0,2.515454769E0,3.396013498E0,7.974978924E0
2.322131898E0,2.883351326E0,3.021835804E0,7.994719505E0
2.338797835E0,3.454039574E0,2.464906454E0,8.799305916E0
2.355463773E0,2.597409010E0,2.376671076E0,9.747162819E0
2.372129710E0,3.126521826E0,2.736491680E0,1.007497978E1
2.388795648E0,2.899502754E0,2.301297188E0,8.704490662E0
2.405461585E0,3.058027267E0,2.425125837E0,8.683254242E0
2.422127523E0,2.792723179E0,2.292324066E0,9.813264847E0
2.438793460E0,3.134597778E0,2.025225163E0,9.074779510E0
2.455459398E0,2.411965132E0,2.078465462E0,9.943673134E0
2.472125335E0,2.403291225E0,2.270190477E0,9.299705505E0
2.488791273E0,2.432304144E0,2.381755829E0,9.034400940E0
2.505457210E0,2.597109795E0,2.586043119E0,8.905188560E0
2.522123148E0,2.826521635E0,2.655135870E0,8.758627892E0
2.538789085E0,2.917748213E0,2.273779631E0,8.964710236E0
2.555455023E0,3.031108141E0,2.658426046E0,8.902496338E0
2.572120960E0,2.811566591E0,2.633002281E0,8.678768158E0
2.588786898E0,3.106482029E0,2.238485575E0,8.603992462E0
2.605452835E0,3.219243765E0,2.260619164E0,8.932107925E0
2.622118773E0,3.196810961E0,2.170290232E0,9.214461327E0
2.638784710E0,3.142673492E0,2.318346024E0,9.304789543E0
2.655450648E0,2.809772015E0,2.405085802E0,9.085547447E0
2.672116585E0,2.924627542E0,2.653042078E0,9.110671997E0
2.688782523E0,3.008376360E0,2.630908489E0,9.205188751E0
2.705448460E0,3.056232691E0,2.517548561E0,9.352047920E0
2.722114398E0,3.313162088E0,2.903092146E0,9.551250458E0
2.738780335E0,2.925823927E0,2.811865807E0,9.328418732E0
2.755446273E0,3.100799084E0,2.661417007E0,9.329316139E0
2.772112210E0,3.000300407E0,2.762812853E0,9.297013283E0
2.788778148E0,3.246462107E0,2.979662418E0,9.518349648E0
2.805444085E0,3.196212769E0,2.906681299E0,9.382257462E0
2.822110023E0,3.249453068E0,2.784647465E0,9.698409081E0
2.838775960E0,3.025425196E0,3.058326483E0,9.288339615E0
2.855441898E0,3.081058264E0,3.197708368E0,8.726624489E0
2.872107835E0,3.113062143E0,3.367000580E0,8.371290207E0
2.888773773E0,3.495913982E0,3.097508907E0,8.255836487E0
2.905439710E0,3.305983543E0,2.981158018E0,8.795417786E0
2.922105648E0,3.212663412E0,2.604288340E0,9.161220551E0
2.938771585E0,3.382254839E0,2.619542599E0,9.127122879E0
2.955437523E0,3.815056562E0,2.689532757E0,8.896514893E0
2.972103460E0,4.000500202E0,2.838784933E0,8.874381065E0
2.988769398E0,4.355535507E0,2.705684185E0,8.749356270E0
3.005435335E0,4.487140656E0,2.531307220E0,8.406285286E0
3.022101273E0,4.700700283E0,2.295614243E0,8.484949112E0
3.038767210E0,4.976771832E0,2.372184515E0,9.177671432E0
3.055433148E0,5.310869694E0,2.493620396E0,9.348757744E0
3.072099085E0,5.312365532E0,2.393121719E0,8.845068932E0
3.088765023E0,5.114658356E0,2.183450699E0,8.694320679E0
3.105430960E0,5.089832783E0,2.065903187E0,8.886344910E0
3.122096898E0,5.462814331E0,1.832004786E0,9.007481575E0
3.138762835E0,5.327619553E0,1.676471353E0,8.943174362E0
3.155428773E0,5.137988567E0,1.928615093E0,9.666704178E0
3.172094710E0,4.769793034E0,1.950150490E0,8.621639252E0
3.188761667E0,4.723432064E0,1.981257200E0,8.327322006E0
3.205427604E0,4.293920040E0,2.141277075E0,7.883154392E0
3.222093542E0,3.892225027E0,2.011167526E0,7.561020374E0
3.238759479E0,3.441178083E0,2.106880426E0,7.693821907E0
3.255425417E0,3.179762125E0,1.931306958E0,7.904988766E0
3.272091354E0,3.017349243E0,1.963610053E0,7.881060600E0
3.288757292E0,3.118146896E0,2.158924341E0,7.963014603E0
3.305423229E0,3.247957706E0,2.283350945E0,8.049455643E0
3.322089167E0,2.880061150E0,2.443371058E0,7.868198872E0
3.338755104E0,2.760420084E0,2.519343138E0,7.804789066E0
3.355421042E0,3.003291607E0,2.552244425E0,8.102695465E0
3.372086979E0,2.988037348E0,2.624029160E0,8.506783485E0
3.388752917E0,2.784946442E0,2.721536636E0,8.711668968E0
3.405418854E0,2.568695068E0,2.754437923E0,8.594420433E0
3.422084792E0,2.542972326E0,2.837887764E0,8.514560699E0
3.438750729E0,2.571985245E0,2.900100946E0,8.784949303E0
3.455416667E0,2.810669184E0,2.924029350E0,9.271888733E0
3.472082604E0,2.965604544E0,2.865405083E0,9.990333557E0
3.488748542E0,3.199502945E0,2.971586704E0,1.051107121E1
3.505414479E0,3.349353552E0,3.055933714E0,1.053081226E1
3.522080417E0,3.090031385E0,3.143271685E0,1.033160973E1
3.538746354E0,2.956930637E0,3.106182814E0,1.006391335E1
3.555412292E0,2.931506872E0,3.238386393E0,9.737591743E0
3.572078229E0,2.752344131E0,3.333201885E0,9.481260300E0
3.588744167E0,2.798406124E0,3.470490217E0,9.449555397E0
3.605410104E0,3.086143017E0,3.517748356E0,9.588040352E0
3.622076042E0,3.583550930E0,3.458825111E0,9.834501266E0
3.638741979E0,4.001996040E0,3.287738323E0,1.045454121E1
3.655407917E0,4.020839214E0,3.242872953E0,1.057029438E1
3.672073854E0,3.997808456E0,3.240479946E0,1.009023380E1
3.688739792E0,3.966402531E0,3.158824921E0,9.279964447E0
3.705405729E0,3.920340776E0,3.107678413E0,8.644071579E0
3.722071667E0,3.987937927E0,3.120838881E0,7.901100159E0
3.738737604E0,4.034298897E0,3.096910715E0,7.566703320E0
3.755403542E0,4.236492634E0,3.159722328E0,7.836194992E0
3.772069479E0,4.639683247E0,3.142075300E0,8.550452232E0
3.788735417E0,5.056333542E0,2.983251572E0,9.294321060E0
3.805401354E0,5.230710506E0,2.951845884E0,9.525228500E0
3.822067292E0,5.109872818E0,2.962314367E0,9.082257271E0
3.838733229E0,4.931308270E0,2.956033230E0,8.528019905E0
3.855399167E0,4.663012981E0,2.857628345E0,7.853243828E0
3.872065104E0,4.423431873E0,2.825026274E0,7.341478825E0
3.888731042E0,4.581357956E0,2.570190668E0,7.023532867E0
3.905396979E0,4.404887199E0,2.462513685E0,7.173682213E0
3.922062917E0,4.299005032E0,2.409273386E0,7.575078487E0
3.938728854E0,4.271786690E0,2.382952213E0,7.860123158E0
3.955394792E0,4.496412754E0,2.354537487E0,7.954340458E0
3.972060729E0,4.647160530E0,2.465803623E0,7.951349735E0
3.988726667E0,4.633700848E0,2.478964329E0,7.924131393E0
4.005392604E0,4.847260475E0,2.533401012E0,7.948657513E0
4.022058542E0,5.372185707E0,2.574677229E0,8.106883049E0
4.038724479E0,5.505585670E0,2.682952404E0,8.670691490E0
4.055390417E0,5.449354649E0,2.785245657E0,9.001500130E0
4.072056354E0,5.406283855E0,2.739781857E0,9.067601204E0
4.088722292E0,5.179264545E0,2.667398930E0,8.865407944E0
4.105388229E0,4.849952221E0,2.595913410E0,8.325227737E0
4.122054167E0,4.742275238E0,2.597409010E0,7.813463211E0
4.138720104E0,4.725226402E0,2.677269459E0,7.477570534E0
4.155386042E0,4.738387108E0,2.662314177E0,7.380661488E0
4.172051979E0,4.902594566E0,2.772683144E0,7.647460938E0
4.188717917E0,5.021338463E0,2.864208698E0,7.776075363E0
4.205383854E0,4.917549610E0,2.818445921E0,7.796414375E0
4.222049792E0,5.012664318E0,2.849851847E0,7.700701237E0
4.238715729E0,5.023731232E0,2.949453115E0,7.434200764E0
4.255381667E0,4.961517811E0,2.878864765E0,7.376772881E0
4.272047604E0,4.995914459E0,2.954537868E0,7.559823990E0
4.288713542E0,5.050650597E0,2.981158018E0,7.693223953E0
4.305379479E0,5.183751106E0,2.901895761E0,7.914859295E0
4.322045417E0,5.331807137E0,2.810070992E0,8.076673508E0
4.338711354E0,5.136792183E0,2.819044113E0,8.124829292E0
4.355377292E0,4.964509010E0,2.777169704E0,8.064709663E0
4.372043229E0,5.103292465E0,2.682653189E0,8.153543472E0
4.388709167E0,5.333003521E0,2.554637194E0,8.160422325E0
4.405375104E0,5.131408215E0,2.703291416E0,8.097610474E0
4.422041042E0,4.992624283E0,2.725125790E0,7.979465485E0
4.438706979E0,5.097908497E0,2.698505640E0,8.207680702E0
4.455372917E0,5.345864773E0,2.571387053E0,8.243573189E0
4.472038854E0,5.379663467E0,2.677269459E0,8.138587952E0
4.488704792E0,5.332704544E0,2.716451883E0,7.978568077E0
4.505370729E0,5.271089077E0,2.610270500E0,7.935198307E0
4.522036667E0,5.354837894E0,2.451147795E0,8.181359291E0
4.538702604E0,5.316852093E0,2.445464849E0,8.212167740E0
4.555368542E0,5.178367138E0,2.605783939E0,7.920841217E0
4.572034479E0,5.101198673E0,2.536691189E0,7.716553688E0
4.588700417E0,5.070391178E0,2.427817583E0,7.576573849E0
4.605366354E0,4.971388340E0,2.426023006E0,7.501499176E0
4.622032292E0,4.904688358E0,2.414657116E0,7.435995579E0
4.638698229E0,4.978865623E0,2.368894339E0,7.459026337E0
4.655364167E0,4.775176525E0,2.500200510E0,7.501798153E0
4.672030104E0,4.515256405E0,2.605484724E0,7.395018578E0
4.688696042E0,4.237389565E0,2.742174864E0,7.351050377E0
4.705361979E0,4.008875370E0,2.825624466E0,7.253243446E0
4.722027917E0,3.714558125E0,2.823530674E0,7.190432072E0
4.738693854E0,3.540181160E0,2.761018276E0,7.315456867E0
4.755359792E0,3.425026417E0,2.889333248E0,7.779963493E0
4.772025729E0,3.669393539E0,3.027219772E0,8.226224899E0
4.788691667E0,4.191328049E0,3.432504177E0,8.357531548E0
4.805357604E0,4.598406792E0,3.720241070E0,8.283353806E0
4.822023542E0,4.818247318E0,3.844667673E0,8.819944382E0
4.838689479E0,4.931607246E0,3.790230989E0,1.014616585E1
4.855355417E0,4.934598446E0,3.664607763E0,1.119900799E1
4.872021354E0,4.884947300E0,3.625126362E0,1.140838051E1
4.888687292E0,4.766502857E0,3.696611881E0,1.091246796E1
4.905353229E0,4.633401871E0,3.730111361E0,1.003729248E1
4.922019167E0,4.568795681E0,3.646661758E0,9.233902931E0
4.938685104E0,4.449453831E0,3.483650684E0,8.615656853E0
4.955351042E0,4.258327007E0,3.209971666E0,8.410173416E0
4.972016979E0,4.047459602E0,2.859123945E0,8.260322571E0
4.988682917E0,3.930809498E0,2.537887573E0,7.874480247E0
5.005348854E0,4.032504559E0,2.280359983E0,7.443472862E0
5.022014792E0,4.145864487E0,1.907677889E0,6.985845566E0
5.038680729E0,4.445266247E0,1.472782373E0,6.623332977E0
5.055346667E0,4.947759151E0,7.974081635E-1,6.078666687E0
5.072012604E0,5.345864773E0,3.068794906E-1,5.439185143E0
5.088678542E0,5.622535229E0,-1.453639716E-1,4.971388340E0
5.105344479E0,5.866602898E0,-6.104688644E-1,4.494019985E0
5.122010417E0,5.942276001E0,-1.065105200E0,4.186542511E0
5.138676354E0,5.796912193E0,-1.458126307E0,3.948755503E0
5.155342292E0,5.862714767E0,-2.036292076E0,3.573680639E0
5.172008229E0,6.256034851E0,-2.667698145E0,3.297309637E0
5.188674167E0,7.072585583E0,-3.183351517E0,3.645465374E0
5.205340104E0,8.328517914E0,-3.267997503E0,4.409972191E0
5.222006042E0,9.766305923E0,-2.957229614E0,5.938985825E0
5.238671979E0,1.212532997E1,-2.407478571E0,8.809774399E0
5.255337917E0,1.399591827E1,-1.884048700E0,1.338574886E1
5.272003854E0,1.492194080E1,-1.355833173E0,1.684696770E1
5.288669792E0,1.432313728E1,9.487541914E-1,1.999382782E1
5.305335729E0,1.302174091E1,3.775275946E0,2.300938225E1
5.322001667E0,1.194556904E1,4.480560303E0,2.490300179E1
5.338667604E0,9.212067604E0,4.945665359E0,2.658545685E1
5.355333542E0,5.356034279E0,5.905785561E0,2.558495712E1
5.371999479E0,1.030708313E0,7.285845757E0,2.156292152E1
5.388665417E0,-2.976970434E0,9.074481010E0,1.802244186E1
5.405331354E0,-5.754439354E0,1.031127071E1,1.513819218E1
5.421997292E0,-6.636194706E0,1.080927753E1,1.190279675E1
5.438663229E0,-6.265905380E0,1.088166046E1,8.003992081E0
5.455329167E0,-4.599902630E0,1.065314579E1,4.884349346E0
5.471995104E0,-1.892124534E0,1.040788078E1,3.213261604E0
5.488661042E0,-1.247258782E-1,1.007378292E1,4.569992065E0
5.505326979E0,4.833501875E-1,1.017488003E1,1.082423210E1
5.521992917E0,1.660618901E0,1.065374374E1,1.962054825E1
5.538658854E0,5.501697540E0,1.208614731E1,2.898545647E1
5.555324792E0,1.201077366E1,1.249472141E1,3.924647903E1
5.571990729E0,2.117887306E1,1.014855862E1,4.532275391E1
5.588656667E0,2.790539742E1,5.123631477E0,4.084428787E1
5.605322604E0,2.724736977E1,-8.739784956E-1,2.770828819E1
5.621988542E0,2.152074814E1,-4.923830986E0,1.626820374E1
5.638654479E0,1.321705532E1,-6.945466995E0,9.340084076E0
5.655320417E0,5.719145298E0,-7.673183918E0,6.050550938E0
5.671986354E0,2.128415823E0,-8.968000412E0,3.780958891E0
5.688652292E0,7.537391186E-1,-9.712467194E0,1.276870012E0
5.705318229E0,1.478166223E0,-1.065613651E1,-7.450651526E-1
5.721984167E0,2.217249393E0,-1.247378445E1,-1.343569875E0
5.738650104E0,1.641177177E0,-1.407637787E1,-1.662712693E0
5.755316042E0,-5.419743061E-1,-1.440598869E1,-2.720639229E0
5.771981979E0,-1.529312730E0,-1.461296749E1,-3.964607954E0
5.788647917E0,-1.377667665E0,-1.436740494E1,-3.949652910E0
5.805313854E0,1.284646630E0,-1.488784313E1,-2.017149448E0
5.821979792E0,4.306781769E0,-1.437966728E1,6.514459848E-1
5.838645729E0,7.593622684E0,-1.396002674E1,3.168994427E0
5.855311667E0,1.236042404E1,-1.228086281E1,4.928018093E0
5.871977604E0,1.795663834E1,-7.079165936E0,8.332705498E0
5.888643542E0,2.441606331E1,1.291226864E0,1.558953857E1
5.905309479E0,2.771337318E1,1.106590748E1,2.840729141E1
5.921975417E0,3.110190964E1,1.286710453E1,3.828845215E1
5.938641354E0,2.576711082E1,1.366062450E1,3.513560867E1
5.955307292E0,1.697109413E1,1.495065498E1,2.582154655E1
5.971973229E0,9.440881729E0,1.519920921E1,1.687149429E1
5.988639167E0,4.093820572E0,1.508495235E1,1.038425159E1
6.005305104E0,2.184647083E0,1.446880054E1,6.484549522E0
6.021971042E0,2.176870346E0,1.304686546E1,4.244867325E0
6.038636979E0,1.672283888E0,1.117238808E1,2.972483873E0
6.055302917E0,-4.253242314E-1,9.938589096E0,2.206481695E0
6.071968854E0,-2.857329369E0,9.615557671E0,1.222134113E0
6.088634792E0,-5.536991596E0,9.852148056E0,2.087737769E-1
6.105300729E0,-7.525127888E0,1.018505001E1,-5.665007830E-1
6.121966667E0,-8.003992081E0,1.010130119E1,-2.150549293E-1
6.138632604E0,-7.233801842E0,9.553643227E0,2.746661186E0
6.155298542E0,-5.219045162E0,8.956933022E0,7.685148239E0
6.171964479E0,-1.791027784E0,8.882157326E0,1.248963642E1
6.188630417E0,2.342274189E0,1.018505001E1,1.633699608E1
6.205296354E0,6.858726978E0,1.257817173E1,2.173041916E1
6.221962292E0,1.116520977E1,1.355115318E1,3.022015381E1
6.238628229E0,1.269272804E1,1.304806232E1,3.724279022E1
6.255294167E0,1.697558022E1,1.050209904E1,3.943042755E1
6.271960104E0,2.306860542E1,5.916851997E0,3.525345612E1
6.288626042E0,2.400898361E1,1.491924882E0,2.468914413E1
6.305291979E0,1.815524292E1,-1.889133453E0,1.444367599E1
6.321957917E0,1.026132107E1,-3.652643681E0,7.193123817E0
6.338623854E0,4.275974274E0,-4.636393070E0,3.372683525E0
6.355289792E0,1.060618639E0,-6.347260952E0,2.060818434E0
6.371955729E0,6.765705943E-1,-8.972785950E0,5.060819983E-1
6.388621667E0,8.907282352E-1,-1.104526901E1,-1.121635556E0
6.405287604E0,3.427718580E-1,-1.214836025E1,-2.776870728E0
6.421953542E0,-1.322034448E-1,-1.265833092E1,-4.682754040E0
6.438619479E0,-3.783650696E-1,-1.246570873E1,-6.434898376E0
6.455285417E0,2.072782665E-1,-1.191864967E1,-7.089035988E0
6.471951354E0,1.177268744E0,-1.087448120E1,-6.067899227E0
6.488617292E0,2.339582443E0,-9.811470032E0,-3.881158352E0
6.505283229E0,3.310769320E0,-9.234500885E0,-1.747358680E0
6.521949167E0,4.596612453E0,-9.015258789E0,-8.973084623E-4
6.538615104E0,6.893423080E0,-8.487042427E0,1.211964726E0
6.555281042E0,1.044855881E1,-6.766603470E0,2.862414122E0
6.571946979E0,1.448255920E1,-2.914158821E0,5.980561256E0
6.588612917E0,1.848156357E1,2.981158018E0,1.260688496E1
6.605278854E0,2.208934212E1,8.106285095E0,2.064736748E1
6.621944792E0,2.308056831E1,1.361366558E1,2.964737129E1
6.638610729E0,2.630699158E1,1.522582912E1,3.741387558E1
6.655276667E0,2.585564423E1,1.349462223E1,3.407409286E1
6.671942604E0,1.846840286E1,1.187258816E1,2.246681023E1
6.688608542E0,9.301798820E0,1.062921715E1,1.224676514E1
6.705274479E0,2.952144861E0,9.888040543E0,7.906783104E0
6.721940417E0,-2.904288471E-1,8.888439178E0,5.425725460E0
6.738606354E0,-1.744367719E0,8.176573753E0,3.002394199E0
6.755272292E0,-3.146860838E0,8.550153732E0,2.802593410E-1
6.771938229E0,-4.250849247E0,9.608379364E0,-3.035893679E0
6.788604167E0,-5.964708805E0,1.084367371E1,-5.018048286E0
6.805270104E0,-7.836194992E0,1.159531975E1,-3.661317825E0
6.821936042E0,-9.110971451E0,1.169043446E1,1.031904817E0
6.838601979E0,-9.617053032E0,1.098814106E1,8.052745819E0
6.855267917E0,-8.660223007E0,1.011745262E1,1.337408352E1
6.871933854E0,-4.842474937E0,9.704092026E0,1.340848064E1
6.888599792E0,8.458628058E-1,1.090439224E1,1.148674488E1
6.905265729E0,5.693422318E0,1.316351604E1,1.235534000E1
6.921931667E0,9.012566566E0,1.410897923E1,1.944048691E1
6.938597604E0,1.121336555E1,1.321197033E1,2.989472961E1
6.955263542E0,1.322692490E1,1.184357452E1,3.673252106E1
6.971929479E0,1.768924141E1,9.647860527E0,3.658446503E1
6.988595417E0,2.353789711E1,6.317051888E0,3.037030411E1
7.005261354E0,2.371885490E1,2.701795816E0,2.026152420E1
7.021927292E0,1.726002884E1,-4.435695112E-1,1.165304661E1
7.038593229E0,9.503094673E0,-2.334198475E0,5.999404430E0
7.055259167E0,3.735794306E0,-3.475574970E0,3.868296862E0
7.071925104E0,5.656034350E-1,-5.699703693E0,3.360121250E0
7.088591042E0,5.982056609E-4,-8.947062492E0,2.394019127E0
7.105256979E0,4.064807594E-1,-1.192283726E1,5.359922647E-1
7.121922917E0,1.872383654E-1,-1.415713501E1,-3.344268799E0
7.138588854E0,1.354935765E-1,-1.599272919E1,-7.473981380E0
7.155254792E0,-2.536391914E-1,-1.653590012E1,-9.583254814E0
7.171920729E0,-2.886342406E-1,-1.633011818E1,-8.545666695E0
7.188586667E0,6.732804775E-1,-1.679282951E1,-4.929214478E0
7.205252604E0,1.684547186E0,-1.671386528E1,-5.811567903E-1
7.221918542E0,3.422035456E0,-1.593739510E1,2.945265532E0
7.238584479E0,7.151249409E0,-1.449751377E1,4.328616142E0
7.255250417E0,1.339591885E1,-1.116311550E1,5.189135075E0
7.271916354E0,2.085883331E1,-5.452943802E0,8.172685623E0
7.288582292E0,2.785544586E1,2.270788670E0,1.674258041E1
7.305248229E0,3.454278946E1,7.562515736E0,2.938475990E1
7.321914167E0,3.590759277E1,1.269870949E1,3.798785400E1
7.338580104E0,3.122454071E1,1.618086433E1,3.575086212E1
7.355246042E0,2.208575249E1,1.716670799E1,2.812733078E1
7.371911979E0,1.172333527E1,1.551087475E1,2.103949165E1
7.388577917E0,3.264109135E0,1.316830158E1,1.540768433E1
7.405243854E0,-1.903490424E0,1.230957699E1,1.020149994E1
7.421909792E0,-5.366502762E0,1.324427319E1,5.047958374E0
7.438575729E0,-7.774878979E0,1.528535080E1,9.113663435E-1
7.455241667E0,-9.256035805E0,1.754597092E1,-1.107577801E0
7.471907604E0,-9.990633011E0,1.935165405E1,-1.162612677E0
7.488573542E0,-9.563813210E0,1.968455505E1,8.422735929E-1
7.505239479E0,-7.933702469E0,1.880429649E1,5.815456390E0
7.521905417E0,-6.425626278E0,1.754357719E1,1.306421375E1
7.538571354E0,-2.408375978E0,1.656551170E1,1.932892227E1
7.555237292E0,4.244568348E0,1.687837219E1,2.474058914E1
7.571903229E0,1.133420277E1,1.734587097E1,3.097030258E1
7.588569167E0,1.883091545E1,1.631994820E1,3.784787369E1
7.605235104E0,2.598007202E1,1.271964741E1,4.317100525E1
7.621901042E0,3.257798004E1,5.127519608E0,4.096811295E1
7.638566979E0,3.447848129E1,-2.096710920E0,2.997877693E1
7.655232917E0,2.666920471E1,-8.222636223E0,1.691366768E1
7.671898854E0,1.404407406E1,-1.201256752E1,8.360522270E0
7.688564792E0,3.059821844E0,-1.454447365E1,4.006183147E0
7.705230729E0,-2.491825581E0,-1.607677650E1,1.309173107E0
7.721896667E0,-2.444567442E0,-1.829821396E1,-1.675274968E0
7.738562604E0,-1.770389676E0,-2.021456528E1,-5.679364681E0
7.755228542E0,-1.619940877E0,-2.148365974E1,-8.476873398E0
7.771894479E0,-2.049153566E0,-2.219402885E1,-9.860523224E0
7.788560417E0,-2.989233732E0,-2.196312141E1,-9.165408134E0
7.805226354E0,-1.775474429E0,-2.133530426E1,-4.427918434E0
7.821892292E0,2.712563515E0,-2.060997963E1,1.456032634E0
7.838558229E0,7.458727360E0,-1.974168396E1,4.274478436E0
7.855224167E0,1.202393341E1,-1.932922173E1,4.168296814E0
7.871890104E0,1.852493286E1,-1.770898056E1,5.159224510E0
7.888556042E0,2.698804855E1,-1.261855030E1,9.975976944E0
7.905221979E0,3.526153183E1,-4.126721859E0,1.876122475E1
7.921887917E0,4.076322937E1,4.162015915E0,3.298535919E1
7.938553854E0,4.365316010E1,9.373882294E0,4.271427536E1
7.955219792E0,3.831597137E1,1.396899986E1,3.893122482E1
7.971885729E0,2.619034195E1,1.624876213E1,2.726352119E1
7.988551667E0,1.297627735E1,1.607288933E1,1.694148254E1
8.005217604E0,3.631706476E0,1.540917969E1,1.138056374E1
8.021883542E0,-1.503889084E0,1.496650696E1,7.949255943E0
8.038549479E0,-4.351048946E0,1.504008675E1,3.779463291E0
8.055215417E0,-5.589633465E0,1.601157188E1,-8.045865893E-1
8.071881354E0,-6.658627033E0,1.734078598E1,-4.365705013E0
8.088547292E0,-7.943274021E0,1.856531334E1,-5.505585670E0
8.105213229E0,-7.832605839E0,1.753490257E1,-2.814258575E0
8.121879167E0,-7.214360237E0,1.541426468E1,4.406682014E0
8.138545104E0,-5.683252811E0,1.399651718E1,1.191176987E1
8.155211042E0,-1.481456280E0,1.346172142E1,1.561556053E1
8.171876979E0,5.432903767E0,1.495633793E1,1.656072617E1
8.188542917E0,1.308664608E1,1.735364723E1,1.978804588E1
8.205208854E0,1.969741631E1,1.729203224E1,2.978914642E1
8.221874792E0,2.387767792E1,1.412124252E1,4.355924225E1
8.238540729E0,2.922683334E1,8.261219978E0,4.952963257E1
8.255206667E0,3.641487122E1,1.960319996E0,4.329124451E1
8.271872604E0,3.572334671E1,-4.218546391E0,2.803999329E1
8.288538542E0,2.436551476E1,-8.198408127E0,1.491536045E1
8.305204479E0,1.219113255E1,-9.935896873E0,8.504988670E0
8.321870417E0,3.554239035E0,-1.078146076E1,6.066403389E0
8.338536354E0,-5.401797295E-1,-1.300199986E1,4.259523392E0
8.355202292E0,-1.559821248E0,-1.669801331E1,1.336989641E0
8.371868229E0,-1.603490233E0,-2.004826546E1,-3.649652719E0
8.388534167E0,-3.012264490E0,-2.171905327E1,-8.368298531E0
8.405200104E0,-4.599902630E0,-2.330728912E1,-1.119781208E1
8.421866042E0,-6.155536175E0,-2.385853577E1,-9.305686951E0
8.438531979E0,-5.191228867E0,-2.400150681E1,-1.558624864E0
8.455197917E0,-1.954936147E0,-2.474657249E1,5.927021503E0
8.471863854E0,1.627418518E0,-2.442772865E1,7.358228683E0
8.488529792E0,6.239583969E0,-2.377538490E1,3.717249870E0
8.505195729E0,1.319492149E1,-2.276501465E1,3.028116941E0
8.521861667E0,2.002074623E1,-1.972822380E1,6.223731518E0
8.538527604E0,2.684029198E1,-1.501885033E1,1.080628586E1
8.555193542E0,3.435973740E1,-9.445966721E0,2.053939056E1
8.571859479E0,4.591587448E1,-9.418748021E-1,3.545265961E1
8.588525417E0,4.996841812E1,9.844371796E0,4.151816559E1
8.605191354E0,3.998586273E1,1.641267014E1,3.340200806E1
8.621857292E0,2.419083786E1,1.852014732E1,2.477050018E1
8.638523229E0,1.198893833E1,1.844477463E1,1.961336899E1
8.655189167E0,3.468695641E0,1.904058647E1,1.287368488E1
8.671855104E0,-2.801397085E0,2.176302147E1,6.169594288E0
8.688521042E0,-6.515058041E0,2.558884621E1,2.487339020E0
8.705186979E0,-8.652746201E0,2.811536789E1,2.617448807E0
8.721852917E0,-8.903693199E0,2.770021248E1,6.869494915E0
8.738518854E0,-6.286543369E0,2.408794785E1,1.563171196E1
8.755184792E0,-2.602493763E0,2.044248199E1,2.186890411E1
8.771850729E0,3.090629578E0,1.779661751E1,2.369133759E1
8.788516667E0,1.033519936E1,1.643540192E1,2.447827721E1
8.805182604E0,1.819412613E1,1.515254974E1,2.766043091E1
8.821848542E0,2.755305290E1,1.151575851E1,3.550619888E1
8.838514479E0,3.652703476E1,5.116453171E0,4.102793503E1
8.855180417E0,4.319553375E1,-1.773679733E0,4.010580063E1
8.871846354E0,4.603850555E1,-7.152146816E0,3.275325394E1
8.888512292E0,3.891208267E1,-1.101266670E1,2.207438660E1
8.905178229E0,2.577129745E1,-1.418046474E1,1.373240948E1
8.921844167E0,1.269003582E1,-1.622064590E1,7.859824181E0
8.938510104E0,3.279064417E0,-1.691934967E1,3.913162231E0
8.955176042E0,-5.219344497E-1,-1.859821320E1,6.628118753E-1
8.971841979E0,-1.888535261E0,-2.094796562E1,-4.461417675E0
8.988507917E0,-3.909872293E0,-2.184317970E1,-1.106979561E1
9.005173854E0,-6.426822662E0,-2.215275192E1,-1.511037636E1
9.021839792E0,-8.229515076E0,-2.261576271E1,-1.479452324E1
9.038505729E0,-7.070192814E0,-2.269053841E1,-1.058913708E1
9.055171667E0,-3.725325823E0,-2.246322060E1,-4.324129581E0
9.071837604E0,1.331605792E0,-2.264537430E1,7.160521746E-1
9.088503542E0,7.060920715E0,-2.069881248E1,2.953640461E0
9.105169479E0,1.566880131E1,-1.770928001E1,3.792623997E0
9.121835417E0,2.633480835E1,-1.218066406E1,6.905686378E0
9.138501354E0,3.220410156E1,-4.174279213E0,1.762612915E1
9.155167292E0,3.439144135E1,7.854440212E-1,3.685694504E1
9.171833229E0,3.294647598E1,5.493621826E0,4.600979233E1
9.188499167E0,2.623401070E1,1.077428246E1,4.146073532E1
9.205165104E0,1.537717533E1,1.516840172E1,2.784078979E1
9.221831042E0,4.218546391E0,2.144028854E1,1.302891922E1
9.238496979E0,-3.585943937E0,2.830589485E1,5.285147190E0
9.255162917E0,-8.869894028E0,3.370290756E1,3.147758245E0
9.271828854E0,-1.045214844E1,3.586960602E1,5.235795021E0
9.288494792E0,-7.727920055E0,3.355305481E1,8.440382957E0
9.305160729E0,-1.823929071E0,2.719293404E1,1.093310547E1
9.321826667E0,2.682653189E0,2.029861450E1,1.204816151E1
9.338492604E0,5.904289722E0,1.308156109E1,1.395404434E1
9.355158542E0,1.103749275E1,5.778367519E0,1.666900063E1
9.371824479E0,1.447418404E1,4.500001907E0,2.191017914E1
9.388490417E0,1.786840248E1,2.569592476E0,3.055544853E1
9.405156354E0,2.056750679E1,-5.914459229E0,3.579662704E1
9.421822292E0,1.913450623E1,-1.452622795E1,2.844737053E1
9.438488229E0,1.237388420E1,-1.717119408E1,1.393609810E1
9.455154167E0,7.312765121E0,-1.813729668E1,2.739183664E0
9.471820104E0,5.467898846E0,-1.792134476E1,-1.628016710E0
9.488486042E0,6.917949200E0,-1.620628929E1,-3.738785267E0
9.505151979E0,9.231210709E0,-1.409731483E1,-5.915955067E0
9.521817917E0,8.456833839E0,-9.987043381E0,-7.303792000E0
9.538483854E0,7.384849072E0,-5.692524910E0,-4.659124851E0
9.555149792E0,8.851349831E0,-3.757628918E0,4.752145767E0
9.571815729E0,9.704689980E0,-2.711666346E0,1.205833054E1
9.588481667E0,5.573183060E0,-1.094716340E-1,9.762416840E0
9.605147604E0,5.443671346E-1,3.206980467E0,5.427519798E0
9.621813542E0,-5.575276613E-1,6.018547058E0,4.331307888E0
9.638479479E0,-5.623133108E-2,7.488936901E0,5.766403675E0
9.655145417E0,6.738786697E-1,8.056633949E0,5.419743061E0
9.671811354E0,2.604886532E0,9.687043190E0,5.643472195E0
9.688477292E0,1.055832958E1,9.484251976E0,9.768698692E0
9.705143229E0,2.133530426E1,7.406085014E0,1.516062546E1
9.721809167E0,2.344487572E1,6.620342255E0,1.425823212E1
9.738475104E0,1.967797470E1,5.009075165E0,9.976574898E0
9.755141042E0,1.113679504E1,5.263910770E0,7.374380112E0
9.771806979E0,5.323431969E0,5.068895817E0,8.921339989E0
9.788472917E0,3.262613773E0,2.861217737E0,1.060768223E1
9.805138854E0,2.025524378E0,4.902295470E-1,9.531210899E0
9.821804792E0,8.524430394E-1,2.772683203E-1,5.531308651E0
9.838470729E0,-1.331007600E0,1.905584097E0,7.770691514E-1
9.855136667E0,-2.558525562E0,4.287639141E0,-8.775677085E-1
9.871802604E0,5.052743912E0,1.694716692E0,5.322834015E0
9.888468542E0,1.266610718E1,-2.983550787E0,2.070898247E1
9.905134479E0,1.813729668E1,-9.764810562E0,3.336043549E1
9.921800417E0,1.692742538E1,-9.404091835E0,2.770409966E1
9.938466354E0,8.290532112E0,-4.641477585E0,1.328405380E1
9.955132292E0,-2.673979402E-1,-2.159522474E-1,4.623531342E0
9.971798229E0,-3.816252947E0,-1.441675574E-1,5.240281582E0
9.988464167E0,-3.154338360E0,-9.104689956E-1,6.613163471E0
1.000513010E1,-1.838585138E0,-1.913360834E0,6.173183441E0
1.002179604E1,-2.468794823E0,-2.330010980E-1,5.327320576E0
1.003846198E1,-3.176471949E0,1.987538338E0,2.798106909E0
1.005512792E1,-2.360818624E0,4.489234447E0,2.526222467E0
1.007179385E1,-5.943173170E-1,5.224728107E0,4.120141506E0
1.008845979E1,2.475374937E0,4.873581409E0,6.189035892E0
1.010512573E1,7.815258026E0,3.735794306E0,1.453310776E1
1.012179167E1,1.451097393E1,6.064310074E0,2.715106010E1
1.013845760E1,2.155903244E1,3.132503986E0,3.366551971E1
1.015512354E1,2.089801598E1,6.101697683E-2,2.888615417E1
1.017178948E1,1.306062412E1,-2.756531715E0,2.365065956E1
1.018845542E1,3.315554857E0,-4.951946259E0,1.906959915E1
1.020512135E1,-1.685444474E0,-6.270092487E0,1.531735516E1
1.022178729E1,-2.551347256E0,-6.582954407E0,1.115025425E1
1.023845323E1,-1.650449395E0,-6.133103371E0,6.746563435E0
1.025511917E1,-1.312463164E0,-5.322834015E0,1.430309772E0
1.027178510E1,-2.847458839E0,-2.981158018E0,-2.828914642E0
1.028845104E1,-6.314659119E0,-1.431506157E0,-3.776472330E0
1.030511698E1,-9.919745445E0,3.215355575E-1,-9.966106415E-1
1.032178292E1,-1.186959648E1,1.973480463E0,3.321835995E0
1.033844885E1,-1.117448139E1,3.223132133E0,6.350850582E0
1.035511479E1,-8.244769096E0,5.066203594E0,7.626822948E0
1.037178073E1,-5.249852657E0,8.777471542E0,8.926724434E0
1.038844667E1,-3.671188116E0,1.353888988E1,1.209362507E1
1.040511260E1,2.006680965E0,1.678894043E1,2.128176498E1
1.042177854E1,1.168744278E1,1.708924103E1,3.255973434E1
1.043844448E1,1.917697716E1,1.605643845E1,3.633591080E1
1.045511042E1,2.292892456E1,1.541934872E1,3.073520851E1
1.047177635E1,2.385016060E1,1.322243881E1,2.397518539E1
1.048844229E1,2.005843353E1,8.746664047E0,1.816630936E1
1.050510823E1,1.346142197E1,4.214957237E0,1.221775246E1
1.052177417E1,7.948956966E0,8.273184299E-1,7.495816231E0
1.053844010E1,4.270590305E0,-1.705783486E0,3.903890133E0
1.055510604E1,1.870589137E0,-3.365504980E0,1.253240824E0
1.057177198E1,4.710869491E-1,-4.877768993E0,-1.395613790E0
1.058843792E1,-1.022931695E0,-6.004190445E0,-4.061816216E0
1.060510385E1,-2.481357098E0,-6.648158550E0,-5.641079426E0
1.062176979E1,-2.894119024E0,-7.162615299E0,-5.888736725E0
1.063843573E1,-1.911566138E0,-7.377371311E0,-5.787639618E0
1.065510167E1,1.351944804E-1,-6.851249218E0,-5.754439354E0
1.067176760E1,2.504388094E0,-5.495715618E0,-5.508875847E0
1.068843354E1,5.052444935E0,-4.112963200E0,-4.223930359E0
1.070509948E1,6.830910206E0,-1.645364642E0,9.625129104E-1
1.072176542E1,8.430512428E0,2.463410854E0,1.061366367E1
1.073843135E1,1.313659668E1,6.342774391E0,2.209741783E1
1.075509729E1,1.796112442E1,1.045753193E1,2.584039116E1
1.077176323E1,1.730279922E1,1.469342613E1,2.197299194E1
1.078842917E1,9.508479118E0,1.783938980E1,1.912074661E1
1.080509510E1,1.007079244E0,2.071077728E1,1.682961845E1
1.082176104E1,-4.593322277E0,2.362762833E1,1.389960766E1
1.083842698E1,-6.978667259E0,2.370988083E1,1.408774376E1
1.085509292E1,-6.516254425E0,2.194487572E1,1.865025711E1
1.087175885E1,-3.065205812E0,2.166132545E1,2.178814507E1
1.088842479E1,2.049751759E0,2.329711914E1,2.528376007E1
1.090509073E1,7.537391186E0,2.401556396E1,3.191875839E1
1.092175667E1,1.266670609E1,2.240130615E1,4.207659149E1
1.093842260E1,1.832603073E1,1.570888042E1,4.897599411E1
1.095508854E1,2.350050926E1,4.882255554E0,4.688227463E1
1.097175448E1,2.563311195E1,-3.722035646E0,3.477848053E1
1.098842042E1,2.501067924E1,-8.952446938E0,2.294896317E1
1.100508635E1,2.246561432E1,-1.364985657E1,1.538525105E1
1.102175229E1,1.394686604E1,-1.697677803E1,1.029990482E1
1.103841823E1,5.457430363E0,-1.924487495E1,8.084450722E0
1.105508417E1,1.953141540E-1,-2.283410835E1,6.705586433E0
1.107175010E1,-4.180859566E0,-2.646910477E1,5.679065228E0
1.108841604E1,-6.112764359E0,-3.126312447E1,7.039684296E0
1.110508198E1,-6.024528980E0,-3.586063385E1,7.711469173E0
1.112174792E1,-5.382056236E0,-4.026432419E1,4.591527462E0
1.113841385E1,-4.118346691E0,-4.241696930E1,-2.443670183E-1
1.115507979E1,1.992623091E0,-4.214329147E1,-1.590329766E0
1.117174573E1,1.487049580E1,-4.000559998E1,2.059622049E0
1.118841167E1,3.064278603E1,-3.318635559E1,6.946064949E0
1.120507760E1,4.715954208E1,-2.259961128E1,1.141705418E1
1.122174354E1,5.712325668E1,-1.129950714E1,1.857578087E1
1.123840948E1,5.333691406E1,-6.244967937E0,3.854687881E1
1.125507542E1,4.049074554E1,4.033999920E0,6.044030762E1
1.127174135E1,2.727399063E1,2.222902298E1,5.837948990E1
1.128840729E1,1.951376724E1,3.396163177E1,4.126811600E1
1.130507323E1,1.744906044E1,4.343511581E1,2.491975212E1
1.132173917E1,1.637677765E1,4.774010086E1,1.869153404E1
1.133840510E1,1.284347534E1,4.709224701E1,1.711466408E1
1.135507104E1,3.919742584E0,4.067529297E1,1.574208069E1
1.137173698E1,-2.759223700E0,3.152184868E1,2.117648125E1
1.138840292E1,-2.006381750E0,2.168704987E1,3.566292953E1
1.140506885E1,6.787839413E0,1.428006649E1,4.982125854E1
1.142173479E1,1.803171349E1,1.022243786E1,6.053332901E1
1.143840073E1,2.851945496E1,3.831208229E0,6.761997223E1
1.145506667E1,3.905894089E1,-3.981956005E0,6.261149597E1
1.147173260E1,4.520311356E1,-1.314527035E1,4.916772079E1
1.148839854E1,4.097379684E1,-2.400629234E1,3.390689468E1
1.150506448E1,3.084797096E1,-3.046840858E1,1.996571159E1
1.152173042E1,1.769671822E1,-3.309333420E1,9.012566566E0
1.153839635E1,4.310370922E0,-3.207818222E1,1.391426325E0
1.155506229E1,-2.449054003E0,-3.166781044E1,-4.266701698E0
1.157172823E1,-5.487639427E0,-3.327130127E1,-6.597311020E0
1.158839417E1,-1.031904793E1,-3.902334976E1,-5.823532343E-1
1.160506010E1,-1.576870155E1,-4.824079895E1,6.228517532E0
1.162172604E1,-1.817468452E1,-5.133202744E1,1.063639545E1
1.163839198E1,-1.161535931E1,-4.958885574E1,1.303609753E1
1.165505792E1,-3.661616802E0,-4.755884552E1,1.247288704E1
1.167172385E1,1.033460140E1,-4.717150879E1,2.177319145E1
1.168838979E1,3.022404099E1,-4.235415649E1,3.205155945E1
1.170505573E1,5.001178741E1,-3.109652519E1,3.798516083E1
1.172172167E1,5.920531082E1,-1.746940041E1,4.822793961E1
1.173838760E1,6.073193359E1,-1.032861900E1,6.066642761E1
1.175505354E1,5.227151108E1,-2.410768747E0,7.102585602E1
1.177171948E1,3.868655777E1,6.579963207E0,6.235426712E1
1.178838542E1,2.585923386E1,1.784776497E1,4.447120667E1
1.180505135E1,1.731476402E1,3.119223785E1,2.340928268E1
1.182171729E1,1.218126202E1,4.052424622E1,1.181904793E1
1.183838323E1,5.530112267E0,4.472364807E1,8.249854088E0
1.185504917E1,-1.155733347E0,4.514508438E1,6.910471916E0
1.187171510E1,-6.899405003E0,4.156213379E1,4.073481560E0
1.188838104E1,-1.026401234E1,3.442882919E1,6.725626469E0
1.190504698E1,-6.786045074E0,2.597558594E1,2.245035934E1
1.192171292E1,4.378566265E0,1.988256073E1,4.834070206E1
1.193837885E1,2.130958176E1,1.674796295E1,7.330052948E1
1.195504479E1,4.188307190E1,1.039920712E1,7.835178375E1
1.197171073E1,5.963631821E1,-3.946063757E0,7.400611877E1
1.198837667E1,6.180900192E1,-1.984128571E1,6.127779388E1
1.200504260E1,5.018466949E1,-3.187209892E1,4.607170486E1
1.202170854E1,3.205634689E1,-4.037469482E1,2.797987366E1
1.203837448E1,1.215135193E1,-4.233860397E1,1.257906818E1
1.205504042E1,-3.594617844E0,-4.050600052E1,-2.112563372E0
1.207170635E1,-8.975776672E0,-3.781557083E1,-1.454477215E1
1.208837229E1,-1.007079220E1,-3.522414398E1,-1.700579071E1
1.210503823E1,-1.530568981E1,-3.582175064E1,-8.269595146E0
1.212170417E1,-1.958615112E1,-4.231467438E1,2.026122570E0
1.213837010E1,-2.100479507E1,-4.744668198E1,8.753244400E0
1.215503604E1,-1.799612045E1,-4.907948303E1,1.317727470E1
1.217170198E1,-1.188245773E1,-4.803621292E1,1.746132469E1
1.218836792E1,1.725225091E0,-4.915366364E1,2.547339249E1
1.220503385E1,2.336142731E1,-4.798985291E1,3.160739326E1
1.222169979E1,4.786004257E1,-3.915106583E1,3.625574875E1
1.223836573E1,5.959803391E1,-2.739542580E1,4.630919266E1
1.225503167E1,5.654808044E1,-1.340967751E1,6.633263397E1
1.227169760E1,4.848456955E1,-1.968694806E0,6.688238525E1
1.228836354E1,4.182773590E1,8.741878510E0,5.306981659E1
1.230502948E1,3.538864899E1,1.664208221E1,3.516462326E1
1.232169542E1,2.688605499E1,2.422493553E1,1.969173431E1
1.233836135E1,1.717926979E1,2.907668304E1,1.189442253E1
1.235502729E1,6.247660160E0,3.275534821E1,9.906584740E0
1.237169323E1,-4.660620213E0,3.592015457E1,7.237092018E0
1.238835917E1,-1.412333679E1,3.915076447E1,8.215457916E0
1.240502510E1,-1.492313766E1,3.822264862E1,1.718734550E1
1.242169104E1,-6.610172749E0,3.374717331E1,2.735654259E1
1.243835698E1,3.233301640E0,2.961147881E1,3.759961700E1
1.245502292E1,1.403749371E1,2.496760941E1,4.888716125E1
1.247168885E1,2.664049149E1,1.898046684E1,5.520092392E1
1.248835479E1,4.048506546E1,9.594321251E0,5.905575943E1
1.250502073E1,4.999473953E1,-7.350451946E0,5.864150238E1
1.252168667E1,5.100989532E1,-2.360310173E1,5.144030380E1
1.253835260E1,4.491836548E1,-3.027159882E1,4.105006790E1
1.255501854E1,3.237937546E1,-3.372414398E1,2.976880646E1
1.257168448E1,1.655923080E1,-3.773720551E1,1.943420601E1
1.258835042E1,4.188336849E0,-4.095106506E1,7.435696602E0
1.260501635E1,-3.149253607E0,-4.271577072E1,-7.093522549E0
1.262168229E1,-7.755138397E0,-4.335256195E1,-1.567538071E1
1.263834823E1,-1.121157074E1,-4.221028900E1,-1.543071461E1
1.265501417E1,-1.129831028E1,-3.971068573E1,-9.766006470E0
1.267168010E1,-8.105387688E0,-3.564527893E1,-6.205187321E0
1.268834604E1,-3.649951935E0,-3.317409134E1,-3.866203070E0
1.270501198E1,6.455536366E0,-2.875634384E1,1.944168359E-1
1.272167792E1,1.966511345E1,-2.239771652E1,3.422035456E0
1.273834385E1,2.827419090E1,-1.427587891E1,6.225526333E0
1.275500979E1,3.014418221E1,-4.450949192E0,1.457767391E1
1.277167573E1,2.790778923E1,5.685346603E0,2.604288292E1
1.278834167E1,2.058844376E1,1.523779392E1,2.971825981E1
1.280500760E1,1.176251793E1,2.446212578E1,2.635963249E1
1.282167354E1,4.046861172E0,3.229622650E1,2.197927284E1
1.283833948E1,-8.650053740E-1,3.672354507E1,1.961665916E1
1.285500542E1,-1.955534339E0,3.513710403E1,1.903699875E1
1.287167135E1,6.735795736E-1,2.679871559E1,1.902952003E1
1.288833729E1,6.027221203E0,1.561436462E1,1.836551285E1
1.290500323E1,1.141705418E1,7.601399422E0,1.360738373E1
1.292166917E1,1.567867088E1,3.658924818E0,6.137589931E0
1.293833510E1,2.101556396E1,8.344969153E-2,1.228116274E0
1.295500104E1,2.514228439E1,-4.526622295E0,1.144367456E0
1.297166698E1,2.326541519E1,-8.458927155E0,3.448655605E0
1.298833292E1,1.718136406E1,-9.555438042E0,4.881358147E0
1.300499885E1,1.059123135E1,-8.836095810E0,3.611068487E0
1.302166479E1,5.477170944E0,-6.734001160E0,-3.687937856E-1
1.303833073E1,4.208974838E0,-4.376771927E0,-4.252345085E0
1.305499667E1,5.459823132E0,-3.299702406E0,-4.514657974E0
1.307166260E1,2.120040894E0,-2.194218397E0,6.122635007E-1
1.308832854E1,-6.425326824E0,1.283151150E0,8.246563911E0
1.310499448E1,-1.388674641E1,4.565804482E0,1.486182117E1
1.312166042E1,-1.503410435E1,6.910172462E0,1.748465347E1
1.313832635E1,-9.466305733E0,8.951848984E0,1.528206062E1
1.315499229E1,4.049852192E-1,1.015364361E1,1.337169075E1
1.317165823E1,1.171795177E1,1.017757225E1,1.575613880E1
1.318832417E1,2.069283104E1,9.301200867E0,2.181087685E1
1.320499010E1,2.356451797E1,5.977570057E0,2.786980438E1
1.322165604E1,2.146720886E1,1.535593987E0,2.726023102E1
1.323832198E1,1.711974907E1,-1.317248821E0,2.025673866E1
1.325498792E1,1.230688477E1,-2.767598391E0,1.136740303E1
1.327165385E1,8.225327492E0,-3.865305901E0,3.894618034E0
1.328831979E1,4.326821327E0,-4.507180691E0,-1.276570916E0
1.330498573E1,2.365903407E-1,-4.034897327E0,-4.205684662E0
1.332165167E1,-3.609872103E0,-2.689532757E0,-4.279862404E0
1.333831760E1,-6.480959892E0,-1.786242127E0,-1.906182289E0
1.335498354E1,-7.460222721E0,-9.466604590E-1,1.449751377E0
1.337164948E1,-6.478567123E0,7.414759398E-1,4.259523392E0
1.338831542E1,-5.221737385E0,5.056931496E0,5.969494343E0
1.340498135E1,3.711866140E-1,9.075976372E0,9.868897438E0
1.342164729E1,9.396614075E0,9.458230019E0,1.691127396E1
1.343831323E1,1.550489235E1,7.486843109E0,2.476451874E1
1.345497917E1,1.732134438E1,4.522733688E0,2.912603569E1
1.347164510E1,1.451456261E1,2.878266573E0,2.644128799E1
1.348831104E1,8.681758881E0,2.321336985E0,1.936272049E1
1.350497698E1,3.319144011E0,1.547558069E0,1.339651680E1
1.352164292E1,-2.829512656E-1,5.973083377E-1,9.364610672E0
1.353830885E1,-8.979067206E-1,4.695914313E-2,6.428617001E0
1.355497479E1,9.305089116E-1,-2.413759828E-1,4.829314232E0
1.357164073E1,2.821736097E0,-2.186441720E-1,3.773481369E0
1.358830667E1,3.426223040E0,7.686942816E-2,2.387438774E0
1.360497260E1,2.615953445E0,5.605186820E-1,1.480259895E0
1.362163854E1,1.024726272E0,1.662712693E0,1.402194023E0
1.363830448E1,-4.546363056E-1,3.467798233E0,3.279662609E0
1.365497042E1,7.660023570E-1,4.684249401E0,8.171190262E0
1.367163635E1,5.551946640E0,4.580760002E0,1.374915886E1
1.368830229E1,1.156152058E1,3.956532240E0,1.560180187E1
1.370496823E1,1.572234058E1,4.509872437E0,1.388495159E1
1.372163417E1,1.634716606E1,6.725327015E0,1.366600800E1
1.373830010E1,1.442004681E1,8.074878693E0,1.695524216E1
1.375496604E1,1.163450146E1,7.852645874E0,1.972583199E1
1.377163198E1,8.958129883E0,7.575676441E0,2.074068832E1
1.378829792E1,7.016055107E0,7.400701523E0,1.926850319E1
1.380496385E1,5.346762180E0,7.517052174E0,1.560898018E1
1.382162979E1,4.233202457E0,7.393522739E0,1.141825008E1
1.383829573E1,4.292424679E0,5.650650501E0,8.206185341E0
1.385496167E1,4.532604218E0,2.673979282E0,6.082854271E0
1.387162760E1,4.371686935E0,-3.690928817E-1,5.170590401E0
1.388829354E1,3.653541088E0,-2.216052771E0,4.959125042E0
1.390495948E1,3.561716557E0,-3.280559778E0,4.278964996E0
1.392162542E1,4.127020836E0,-4.000500202E0,2.804986238E0
1.393829135E1,4.603790760E0,-4.568496704E0,1.570289850E0
1.395495729E1,4.377369881E0,-5.198706150E0,9.017950296E-1
1.397162323E1,3.343072414E0,-5.516054630E0,7.133602500E-1
1.398828917E1,2.737389088E0,-5.353940487E0,6.598208547E-1
1.400495510E1,3.168396235E0,-4.662415028E0,5.084748194E-2
1.402162104E1,4.686941147E0,-3.938287020E0,-1.530210137E0
1.403828698E1,6.392126560E0,-3.195016384E0,-3.317050457E0
1.405495292E1,7.983952045E0,-2.666800737E0,-4.050749779E0
1.407161885E1,9.163015366E0,-1.995614052E0,-3.127419233E0
1.408828479E1,1.051047325E1,-1.036391258E0,-1.327717423E0
1.410495073E1,1.275853062E1,1.045364380E0,1.377667665E0
1.412161667E1,1.482234001E1,4.206283092E0,5.907878876E0
1.413828260E1,1.553270912E1,8.090133667E0,1.136710358E1
1.415494854E1,1.552822208E1,1.295085335E1,1.641147232E1
1.417161448E1,1.510020638E1,1.903281021E1,1.985085678E1
1.418828042E1,1.316830158E1,2.482314301E1,2.277099800E1
1.420494635E1,1.029033375E1,2.895763969E1,2.718425941E1
1.422161229E1,7.426125050E0,3.171746254E1,3.140729332E1
1.423827823E1,6.597311020E0,3.301467133E1,3.411447144E1
1.425494417E1,8.692227364E0,3.257529068E1,3.514517975E1
1.427161010E1,1.213699436E1,3.014687347E1,3.620789337E1
1.428827604E1,1.638814354E1,2.460330200E1,3.804019547E1
1.430494198E1,2.072543335E1,1.495633793E1,3.850291061E1
1.432160792E1,2.370958138E1,3.549752474E0,3.560848999E1
1.433827385E1,2.398296165E1,-5.831009865E0,2.954537773E1
1.435493979E1,2.155993080E1,-1.247288704E1,2.249552345E1
1.437160573E1,1.723460388E1,-1.731326866E1,1.653799438E1
1.438827167E1,1.236969662E1,-2.134547424E1,1.374497128E1
1.440493760E1,7.182057381E0,-2.486860657E1,1.357837105E1
1.442160354E1,1.167099237E0,-2.759642410E1,1.371356583E1
1.443826948E1,-4.194318771E0,-2.965634537E1,1.229910851E1
1.445493542E1,-6.762714863E0,-3.173301506E1,9.990633011E0
1.447160135E1,-7.270292282E0,-3.370201111E1,8.000402451E0
1.448826729E1,-6.282954216E0,-3.628416443E1,6.855735779E0
1.450493323E1,-2.467897415E0,-3.883132553E1,6.466304302E0
1.452159917E1,5.215157032E0,-4.052574158E1,5.580361366E0
1.453826510E1,1.633759499E1,-4.051407623E1,4.978865623E0
1.455493104E1,2.852842712E1,-3.867339706E1,5.414658546E0
1.457159698E1,3.957339859E1,-3.441267776E1,9.130113602E0
1.458826292E1,4.754418945E1,-2.744358253E1,2.190030861E1
1.460492885E1,5.115316391E1,-1.666301918E1,4.306362915E1
1.462159479E1,5.091806793E1,-2.925225794E-1,5.510161972E1
1.463826073E1,4.518965149E1,1.822792435E1,5.113072968E1
1.465492667E1,3.648306656E1,3.364308548E1,4.293890381E1
1.467159260E1,2.691925430E1,4.426542282E1,3.414468002E1
1.468825854E1,2.045414734E1,5.100301361E1,2.536242485E1
1.470492448E1,1.692922020E1,5.160810089E1,2.240728760E1
1.472159042E1,1.434168148E1,4.471377945E1,2.736671257E1
1.473825635E1,1.309531975E1,3.344956589E1,3.612504196E1
1.475492229E1,1.483460331E1,2.268545341E1,4.341268158E1
1.477158823E1,2.040359879E1,1.381675625E1,5.016762161E1
1.478825417E1,2.950051308E1,5.959922791E0,5.527360535E1
1.480492010E1,4.085953903E1,-8.144569993E-1,5.834569168E1
1.482158604E1,5.165685272E1,-7.376473904E0,5.987649918E1
1.483825198E1,5.727789307E1,-1.685414505E1,5.638895798E1
1.485491792E1,5.349244690E1,-2.672723007E1,4.681258392E1
1.487158385E1,4.150889206E1,-3.362992477E1,3.465046310E1
1.488824979E1,2.558316231E1,-3.781168365E1,2.327797699E1
1.490491573E1,1.015364361E1,-3.972145462E1,1.204307652E1
1.492158167E1,-1.785943031E0,-3.961437607E1,1.502692580E0
1.493824760E1,-1.004088211E1,-3.917918015E1,-7.788637877E-1
1.495491354E1,-1.637229156E1,-4.199224091E1,5.491827011E0
1.497157948E1,-2.138076782E1,-4.713262558E1,1.058285618E1
1.498824542E1,-2.218894386E1,-5.036502838E1,1.254407406E1
1.500491135E1,-1.823450470E1,-5.185844803E1,1.256949711E1
1.502157729E1,-1.147956657E1,-5.375476074E1,1.430818176E1
1.503824323E1,1.424028635E0,-5.622744370E1,2.225235367E1
1.505490917E1,2.031596184E1,-5.598217773E1,3.009572601E1
1.507157510E1,3.973850250E1,-4.998068237E1,3.719164276E1
1.508824104E1,5.310720444E1,-4.152025986E1,4.781637192E1
1.510490698E1,5.874738693E1,-3.042324448E1,6.269733810E1
1.512157292E1,5.775974655E1,-1.699741554E1,7.111678314E1
1.513823885E1,5.228855896E1,-1.200897813E0,6.967301178E1
1.515490479E1,4.345186615E1,1.308694553E1,5.421956635E1
1.517157073E1,3.258216858E1,2.526162720E1,3.711178207E1
1.518823667E1,2.109691811E1,3.323212051E1,2.358036995E1
1.520490260E1,1.059033394E1,3.906163406E1,1.407548046E1
1.522156854E1,2.765205622E0,4.315246201E1,1.009143066E1
1.523823448E1,-1.422533035E0,4.351138687E1,1.266042423E1
1.525490042E1,-1.857129455E0,3.839044571E1,2.222573280E1
1.527156635E1,1.884347759E-2,3.009662437E1,3.670111465E1
1.528823229E1,5.361119270E0,2.170499420E1,5.327858734E1
1.530489823E1,1.619223022E1,1.303131199E1,6.629464722E1
1.532156417E1,3.131367302E1,2.755036116E0,7.279355621E1
1.533823010E1,4.551806641E1,-9.271589279E0,7.464260864E1
1.535489604E1,5.361029434E1,-2.279432678E1,7.070850372E1
1.537156198E1,5.248716354E1,-3.451108170E1,6.032455444E1
1.538822792E1,4.250550461E1,-4.229104614E1,4.506372833E1
1.540489385E1,2.715823746E1,-4.548546600E1,2.709662247E1
1.542155979E1,1.130937672E1,-4.382783508E1,1.031605625E1
1.543822573E1,-1.418943882E0,-4.010370636E1,-1.674975872E0
1.545489167E1,-1.043210888E1,-3.808177185E1,-4.381856441E0
1.547155760E1,-1.798924065E1,-3.912414551E1,1.007976532E0
1.548822354E1,-2.297917366E1,-4.228805542E1,6.362515450E0
1.550488948E1,-2.290678978E1,-4.503322220E1,8.444271088E0
1.552155542E1,-1.937887192E1,-4.646293259E1,1.041565800E1
1.553822135E1,-1.375633717E1,-4.831048965E1,1.482533073E1
1.555488729E1,-5.822634697E0,-5.244678497E1,2.174208450E1
1.557155323E1,5.124229908E0,-5.729673767E1,3.078097153E1
1.558821917E1,2.029831505E1,-5.730241776E1,4.136502457E1
1.560488510E1,4.125674820E1,-5.072484970E1,5.300999451E1
1.562155104E1,5.787549973E1,-3.919832230E1,6.160172272E1
1.563821698E1,6.331319046E1,-2.438794708E1,6.610531616E1
1.565488292E1,5.673621750E1,-1.055922699E1,6.513024139E1
1.567154885E1,4.479543304E1,1.859821439E0,5.686034393E1
1.568821479E1,3.538505936E1,1.338574886E1,4.426273346E1
1.570488073E1,2.842822838E1,2.413969231E1,3.027159882E1
1.572154667E1,2.035035896E1,3.281606674E1,1.986341858E1
1.573821260E1,9.518648148E0,3.882085419E1,1.410808277E1
1.575487854E1,-2.047957182E0,4.179423523E1,1.390439320E1
1.577154448E1,-8.634500504E0,3.949832153E1,2.097488594E1
1.578821042E1,-7.123732090E0,3.236861038E1,3.161905670E1
1.580487635E1,8.919246197E-1,2.555115891E1,4.148316956E1
1.582154229E1,1.245583820E1,2.018674850E1,4.903401947E1
1.583820823E1,2.473012161E1,1.298734379E1,5.739992523E1
1.585487417E1,3.727060699E1,-4.322035909E-1,6.529384613E1
1.587154010E1,4.776821899E1,-1.557667732E1,6.636254120E1
1.588820604E1,5.098177719E1,-2.709123802E1,5.950112534E1
1.590487198E1,4.544299316E1,-3.440011597E1,4.900680161E1
1.592153792E1,3.417399216E1,-3.863720703E1,3.776591873E1
1.593820385E1,2.084088707E1,-4.066871262E1,2.650320244E1
1.595486979E1,8.991330147E0,-4.232574081E1,1.551117325E1
1.597153573E1,5.679962635E-1,-4.518307114E1,4.726422787E0
1.598820167E1,-6.948158741E0,-4.812145615E1,-4.884349346E0
1.600486760E1,-1.584587002E1,-5.060042191E1,-1.103779221E1
1.602153354E1,-2.494996262E1,-5.193023300E1,-1.301516056E1
1.603819948E1,-2.858077049E1,-5.090431213E1,-9.202198029E0
1.605486542E1,-2.331955147E1,-4.922813797E1,1.710868180E-1
1.607153135E1,-9.078369141E0,-4.905406189E1,8.770293236E0
1.608819729E1,1.137189007E1,-4.868706131E1,1.375813198E1
1.610486323E1,2.997578621E1,-4.429533386E1,1.693520164E1
1.612152917E1,4.211278152E1,-3.567608643E1,2.470649147E1
1.613819510E1,4.836642456E1,-2.528645325E1,3.792564011E1
1.615486104E1,4.852345276E1,-1.678684807E1,4.616293335E1
1.617152698E1,4.436472702E1,-7.302595615E0,4.521926498E1
1.618819292E1,3.948157501E1,1.872981906E0,3.746562195E1
1.620485885E1,3.088745117E1,1.148824024E1,2.868426132E1
1.622152479E1,1.692473412E1,2.329741859E1,2.407299232E1
1.623819073E1,5.114957333E0,3.383062363E1,2.463201523E1
1.625485667E1,-4.378865361E-1,3.988685608E1,2.725365257E1
1.627152260E1,1.076770201E-2,4.104259109E1,2.919722176E1
1.628818854E1,3.024527788E0,3.875624847E1,2.957139969E1
1.630485448E1,5.130211830E0,3.259772110E1,2.998296547E1
1.632152042E1,7.494021416E0,2.174178505E1,3.198515892E1
1.633818635E1,1.255005550E1,7.690831184E0,3.497977829E1
1.635485229E1,2.098325920E1,-5.204987526E0,3.416920853E1
1.637151823E1,3.033949471E1,-1.434347630E1,2.824069023E1
1.638818417E1,3.327429199E1,-1.909322929E1,2.143580246E1
1.640485010E1,2.968984413E1,-2.294836617E1,1.599482250E1
1.642151604E1,2.243390846E1,-2.558166695E1,1.180588818E1
1.643818198E1,1.440718555E1,-2.708645248E1,8.863015175E0
1.645484792E1,7.951349735E0,-2.721267509E1,7.388737202E0
1.647151385E1,4.470989227E0,-2.569263458E1,5.958427429E0
1.648817979E1,3.568296671E0,-2.341825676E1,3.017349243E0
1.650484573E1,3.783650875E0,-2.120130539E1,-1.043569803E0
1.652151167E1,3.834498405E0,-1.847318840E1,-3.438187122E0
1.653817760E1,7.511070251E0,-1.695135307E1,7.806583643E-1
1.655484354E1,1.230449200E1,-1.550160217E1,8.330312729E0
1.657150948E1,1.495514107E1,-1.237687492E1,1.219322586E1
1.658817542E1,1.365494156E1,-6.384050846E0,9.535398483E0
1.660484135E1,6.684350014E0,2.121237278E0,3.907479286E0
1.662150729E1,-3.674478292E0,1.123220825E1,1.310967684E0
1.663817323E1,-1.185703468E1,1.732014847E1,4.553242207E0
1.665483917E1,-1.547916985E1,1.985893250E1,1.075783157E1
1.667150510E1,-1.381914902E1,1.971446609E1,1.492104340E1
1.668817104E1,-6.522535324E0,1.738295937E1,1.461775398E1
1.670483698E1,3.678665638E0,1.233918858E1,1.115503979E1
1.672150292E1,1.209093285E1,8.247760773E0,7.645068169E0
1.673816885E1,1.817797470E1,4.489533424E0,1.035135078E1
1.675483479E1,2.116990089E1,-1.574776411E0,2.104218292E1
1.677150073E1,2.222154617E1,-1.034417248E1,2.934348297E1
1.678816667E1,1.886920166E1,-1.410180092E1,2.562713051E1
1.680483260E1,1.343270779E1,-1.357508087E1,1.743679810E1
1.682149854E1,8.503194809E0,-1.208554935E1,1.219741344E1
1.683816448E1,5.465506077E0,-1.149242783E1,9.125926018E0
1.685483042E1,2.844467878E0,-1.099292660E1,6.352644920E0
1.687149635E1,5.312066078E-1,-8.811868668E0,4.819443703E0
1.688816229E1,-6.613163352E-1,-5.627918720E0,3.448954821E0
1.690482823E1,-1.083350420E0,-2.521735907E0,2.111067772E0
1.692149417E1,-8.958129883E-1,2.721835673E-1,2.009970903E0
1.693816010E1,-5.324030519E-1,2.110768557E0,3.034398317E0
1.695482604E1,7.079764009E-1,2.701496840E0,5.319842815E0
1.697149198E1,2.730509758E0,3.135195971E0,8.865707397E0
1.698815792E1,6.213263035E0,3.976273060E0,1.253539944E1
1.700482385E1,1.092443180E1,4.846363068E0,1.515404510E1
1.702148979E1,1.513998699E1,3.935296059E0,1.619731522E1
1.703815573E1,1.674736595E1,1.330110312E0,1.727976799E1
1.705482167E1,1.533470345E1,-1.874178290E0,1.820489311E1
1.707148760E1,1.206431293E1,-3.576073408E0,1.781934929E1
1.708815354E1,8.663214684E0,-3.649353743E0,1.614347649E1
1.710481948E1,5.786443233E0,-2.755933523E0,1.354726410E1
1.712148542E1,3.652643681E0,-1.711466432E0,1.029721355E1
1.713815135E1,2.312663078E0,-7.417750359E-1,7.331010342E0
1.715481729E1,1.234098315E0,4.800600410E-1,4.865505695E0
1.717148323E1,-2.063809521E-2,2.237887383E0,2.674577475E0
1.718814917E1,-1.795813441E0,4.135993958E0,1.777568102E0
1.720481510E1,-3.557828188E0,5.262415409E0,2.610270500E0
1.722148104E1,-5.018945694E0,5.483751297E0,4.358825684E0
1.723814698E1,-5.436492920E0,4.482953072E0,6.058926105E0
1.725481292E1,-4.781457901E0,2.966800928E0,6.500102520E0
1.727147885E1,-3.448655605E0,2.286641121E0,5.025226593E0
1.728814479E1,-2.203789711E0,3.269493103E0,2.225025892E0
1.730481073E1,-1.365105271E0,6.517749786E0,6.744768620E-1
1.732147667E1,-5.982056856E-1,1.123190975E1,5.429912567E0
1.733814260E1,3.127419233E0,1.380269814E1,1.958166504E1
1.735480854E1,9.974780083E0,1.142483044E1,3.499323654E1
1.737147448E1,1.600439453E1,8.051848412E0,3.930958939E1
1.738814042E1,1.727169228E1,6.395715714E0,3.335205841E1
1.740480635E1,1.428814220E1,4.483551502E0,2.638086891E1
1.742147229E1,9.678070068E0,9.954141974E-1,2.153570366E1
1.743813823E1,5.117948532E0,-2.662015200E0,1.785344887E1
1.745480417E1,2.250449657E0,-5.796313763E0,1.507508183E1
1.747147010E1,1.181456208E0,-8.460422516E0,1.248933792E1
1.748813604E1,1.483849168E0,-1.072463131E1,8.881559372E0
1.750480198E1,2.262712955E0,-1.213250828E1,4.203890324E0
1.752146792E1,3.239881754E0,-1.304566860E1,-3.577269912E-1
1.753813385E1,4.407280445E0,-1.372433376E1,-3.456731319E0
1.755479979E1,5.589932919E0,-1.391127300E1,-4.596313000E0
1.757146573E1,6.971189499E0,-1.354726410E1,-2.706880569E0
1.758813167E1,9.145368576E0,-1.257966709E1,2.560320139E0
1.760479760E1,1.202034473E1,-1.008215809E1,1.002203846E1
1.762146354E1,1.542114353E1,-6.433701992E0,1.704706764E1
1.763812948E1,1.821685791E1,-1.587039590E0,2.114447594E1
1.765479542E1,1.925653839E1,4.081856251E0,2.151446724E1
1.767146135E1,1.763151360E1,1.025204849E1,1.954188347E1
1.768812729E1,1.327418327E1,1.636660767E1,1.660499191E1
1.770479323E1,8.227421761E0,2.140649033E1,1.383141232E1
1.772145917E1,4.152743816E0,2.409213448E1,1.172542953E1
1.773812510E1,1.226919770E0,2.489462852E1,1.110598755E1
1.775479104E1,1.501496136E-1,2.399462700E1,1.146132183E1
1.777145698E1,7.770691514E-1,2.220389938E1,1.212682533E1
1.778812292E1,1.993819475E0,2.031416702E1,1.408206081E1
1.780478885E1,3.277868032E0,1.858924103E1,1.884736633E1
1.782145479E1,5.512764454E0,1.667139435E1,2.656152725E1
1.783812073E1,1.014287567E1,1.408774376E1,3.564019775E1
1.785478667E1,1.653530121E1,9.380762100E0,4.033012772E1
1.787145260E1,2.153031921E1,3.062513828E0,3.730949020E1
1.788811854E1,2.241476631E1,-3.408575773E0,3.031078148E1
1.790478448E1,1.963161469E1,-8.807980537E0,2.403440857E1
1.792145042E1,1.504876041E1,-1.290509033E1,1.951646042E1
1.793811635E1,1.012193871E1,-1.698036766E1,1.553240967E1
1.795478229E1,5.035695076E0,-2.045624161E1,1.040130138E1
1.797144823E1,6.188437343E-1,-2.307967186E1,4.293621063E0
1.798811417E1,-2.893520832E0,-2.491526604E1,-2.084746838E0
1.800478010E1,-6.006583214E0,-2.585265350E1,-6.963412762E0
1.802144604E1,-8.094619751E0,-2.707448959E1,-8.520841599E0
1.803811198E1,-8.933603287E0,-2.891277504E1,-6.975975513E0
1.805477792E1,-7.512865067E0,-3.153800011E1,-3.209971666E0
1.807144385E1,-2.664707184E0,-3.505395508E1,2.881855726E0
1.808810979E1,5.460421085E0,-3.755295944E1,9.663115501E0
1.810477573E1,1.669980812E1,-3.704029465E1,1.330917835E1
1.812144167E1,2.930370331E1,-3.395116043E1,1.401835155E1
1.813810760E1,3.862224960E1,-2.774298477E1,1.785075569E1
1.815477354E1,4.143800354E1,-2.266840553E1,2.881556702E1
1.817143948E1,3.791876221E1,-1.646351624E1,4.766382980E1
1.818810542E1,3.329044342E1,-6.358327866E0,6.157390594E1
1.820477135E1,3.150061226E1,8.107182503E0,5.926483154E1
1.822143729E1,2.994916725E1,2.380888367E1,4.570530701E1
1.823810323E1,2.471456718E1,3.585465240E1,3.349473190E1
1.825476917E1,1.757797432E1,4.246063614E1,2.522483635E1
1.827143510E1,1.087687397E1,4.337350082E1,1.895294952E1
1.828810104E1,6.158228397E0,3.892584229E1,1.730309868E1
1.830476698E1,4.136891365E0,3.087279510E1,2.294298172E1
1.832143292E1,5.129314423E0,2.207378960E1,3.459542847E1
1.833809885E1,1.091007519E1,1.528624821E1,5.152225876E1
1.835476479E1,2.292982101E1,9.708279610E0,6.553492737E1
1.837143073E1,3.704269028E1,2.525325298E0,6.960691071E1
1.838809667E1,4.672285461E1,-7.507780075E0,6.749225616E1
1.840476260E1,4.800391006E1,-1.965793610E1,6.216792679E1
1.842142854E1,4.311896133E1,-3.046033287E1,5.231368256E1
1.843809448E1,3.478535843E1,-3.799264145E1,3.904637909E1
1.845476042E1,2.341137695E1,-4.084009933E1,2.532084846E1
1.847142635E1,1.202483082E1,-4.108895111E1,1.417896938E1
1.848809229E1,1.624726534E0,-4.022484589E1,4.949553490E0
1.850475823E1,-6.699903488E0,-3.901586914E1,1.345962752E-2
1.852142417E1,-1.352692509E1,-3.879932022E1,8.030911088E-1
1.853809010E1,-1.811127472E1,-4.205535507E1,4.081557274E0
1.855475604E1,-2.065215302E1,-4.612853622E1,5.923432350E0
1.857142198E1,-1.929422569E1,-4.885994339E1,6.631109715E0
1.858808792E1,-1.452084446E1,-5.068895721E1,8.769993782E0
1.860475385E1,-4.078267097E0,-5.318198013E1,1.630409622E1
1.862141979E1,1.113230801E1,-5.512913895E1,2.737867737E1
1.863808573E1,2.802832794E1,-5.373232651E1,3.698257065E1
1.865475167E1,4.361786652E1,-4.624757767E1,4.968935394E1
1.867141760E1,5.303152847E1,-3.318007660E1,6.388507462E1
1.868808354E1,5.165954590E1,-1.762792397E1,7.148438263E1
1.870474948E1,4.200271225E1,-3.688536167E0,7.106055450E1
1.872141542E1,2.770709229E1,7.766803265E0,6.295217133E1
1.873808135E1,1.546630859E1,2.050409698E1,4.977310562E1
1.875474729E1,8.766405106E0,3.202853012E1,3.517150116E1
1.877141323E1,5.422734261E0,3.979712677E1,2.539951324E1
1.878807917E1,7.480561733E-1,4.401238251E1,2.169961166E1
1.880474510E1,-7.035496712E0,4.279682922E1,2.298365974E1
1.882141104E1,-1.383201027E1,3.564139175E1,3.145724297E1
1.883807698E1,-1.455015659E1,2.618226624E1,4.504877472E1
1.885474292E1,-6.369693756E0,1.797697830E1,6.037181091E1
1.887140885E1,9.999904633E0,8.310273170E0,7.008129120E1
1.888807479E1,2.773849678E1,-3.011965513E0,7.379734039E1
1.890474073E1,3.828306961E1,-1.520638752E1,7.148886871E1
1.892140667E1,4.092922974E1,-2.732124901E1,6.330451584E1
1.893807260E1,3.777967834E1,-3.582294846E1,5.056034088E1
1.895473854E1,2.932523727E1,-4.090979004E1,3.450091171E1
1.897140448E1,1.696870232E1,-4.068157578E1,1.936182404E1
1.898807042E1,5.635396481E0,-3.752723694E1,7.208677292E0
1.900473635E1,-2.844767094E0,-3.366372299E1,-1.805384636E0
1.902140229E1,-8.230113029E0,-3.188585663E1,-2.726322412E0
1.903806823E1,-1.314915848E1,-3.272783279E1,3.197708368E0
1.905473417E1,-1.669173241E1,-3.579722595E1,7.819146156E0
1.907140010E1,-1.758006859E1,-3.838895035E1,7.269694328E0
1.908806604E1,-1.654846191E1,-3.996911240E1,7.385746002E0
1.910473198E1,-1.287876987E1,-4.205475616E1,1.198265743E1
1.912139792E1,-4.832305431E0,-4.523302078E1,2.013919258E1
1.913806385E1,8.137092590E0,-4.728217697E1,2.858944511E1
1.915472979E1,2.409841537E1,-4.380570221E1,3.793999863E1
1.917139573E1,3.767708588E1,-3.473391342E1,4.902923584E1
1.918806167E1,4.276512527E1,-2.180728912E1,6.092006683E1
1.920472760E1,4.175116730E1,-7.839784145E0,6.656353760E1
1.922139354E1,3.612773514E1,3.506382465E0,6.066373825E1
1.923805948E1,2.705145836E1,1.184686470E1,4.972345352E1
1.925472542E1,1.650718689E1,1.863171387E1,3.885854340E1
1.927139135E1,7.383054256E0,2.637967300E1,2.776661301E1
1.928805729E1,7.094719410E-1,3.515594864E1,1.773051643E1
1.930472323E1,-6.008377552E0,4.248486328E1,1.217707443E1
1.932138917E1,-1.236790180E1,4.490849686E1,1.337079430E1
1.933805510E1,-1.444128323E1,4.093850327E1,2.157518387E1
1.935472104E1,-1.107039356E1,3.401158142E1,3.627459335E1
1.937138698E1,-3.170190811E0,2.793560600E1,5.417679596E1
1.938805292E1,1.010159969E1,2.044457626E1,6.698736572E1
1.940471885E1,2.701407051E1,1.008754253E1,7.302117157E1
1.942138479E1,4.182983017E1,-3.492324591E0,7.427799988E1
1.943805073E1,4.865535736E1,-1.745414543E1,7.086583710E1
1.945471667E1,4.749932480E1,-2.847578621E1,6.216194153E1
1.947138260E1,3.985874176E1,-3.447309494E1,4.847260284E1
1.948804854E1,2.671586418E1,-3.633680725E1,3.350789261E1
1.950471448E1,1.297089291E1,-3.647409439E1,2.037907219E1
1.952138042E1,1.918445587E0,-3.540958786E1,9.372686386E0
1.953804635E1,-5.411069393E0,-3.518974686E1,3.244368315E0
1.955471229E1,-1.112692451E1,-3.647947693E1,9.954141974E-1
1.957137823E1,-1.572383595E1,-3.914209366E1,-2.608176768E-1
1.958804417E1,-1.960319901E1,-4.148675919E1,-1.581655741E0
1.960471010E1,-2.120908356E1,-4.309832382E1,-7.420741320E-1
1.962137604E1,-1.907917213E1,-4.487529373E1,3.940979004E0
1.963804198E1,-1.161356449E1,-4.777210617E1,1.215254784E1
1.965470792E1,2.390728951E0,-5.038686371E1,2.160389900E1
1.967137385E1,1.981316948E1,-4.934538651E1,2.950619507E1
1.968803979E1,3.540659714E1,-4.268645859E1,3.783261871E1
1.970470573E1,4.164408875E1,-3.325903702E1,4.598077774E1
1.972137167E1,3.728107452E1,-2.541416931E1,5.704848099E1
1.973803760E1,2.971706200E1,-1.826022720E1,6.103911209E1
1.975470354E1,2.294178581E1,-1.056670475E1,5.572255707E1
1.977136948E1,1.824975967E1,-4.069293976E0,4.725764847E1
1.978803542E1,1.405902958E1,6.571289301E-1,3.734059525E1
1.980470135E1,1.036002445E1,3.126521826E0,2.911646461E1
1.982136729E1,6.430411816E0,3.817449331E0,2.337997055E1
1.983803323E1,1.811665893E0,5.630311489E0,1.975065804E1
1.985469917E1,-3.906582117E0,9.974182129E0,1.770479393E1
1.987136510E1,-1.053529930E1,1.570888042E1,1.728096581E1
1.988803104E1,-1.673390579E1,1.959661865E1,1.753969002E1
1.990469698E1,-2.237737846E1,2.032194328E1,1.835623932E1
1.992136292E1,-2.607877541E1,1.940997887E1,1.947907257E1
1.993802885E1,-2.506990242E1,1.719003868E1,2.030010986E1
1.995469479E1,-1.751665878E1,1.036421204E1,2.458116722E1
1.997136073E1,-5.076971531E0,-2.851347208E0,3.321477127E1
1.998802667E1,5.325226784E0,-1.490279865E1,3.981028748E1
2.000469260E1,1.256351566E1,-2.109721756E1,3.890101624E1
2.002135854E1,1.717059708E1,-2.336322212E1,3.027189827E1
2.003802448E1,1.797518349E1,-2.199632072E1,2.202413750E1
2.005469042E1,1.783221245E1,-2.143161583E1,1.730848312E1
2.007135635E1,1.671775436E1,-2.267797661E1,1.346142197E1
2.008802229E1,1.518036556E1,-2.463171577E1,1.202303600E1
2.010468823E1,1.487408447E1,-2.554308319E1,1.127468109E1
2.012135417E1,1.551865101E1,-2.412832642E1,8.518747330E0
2.013802010E1,1.570529175E1,-2.076970100E1,5.724828243E0
2.015468604E1,1.611117363E1,-1.744337845E1,1.841277003E0
2.017135198E1,1.372343636E1,-1.334507084E1,-4.267300129E0
2.018801792E1,7.733004570E0,-8.991928101E0,-5.521139145E0
2.020468385E1,1.967199326E0,-5.856732368E0,1.253839016E0
2.022134979E1,-1.504188180E0,-3.068794966E0,7.637889862E0
2.023801573E1,-3.038286448E0,-1.983051747E-1,8.342276573E0
2.025468167E1,-1.574178219E0,2.827419043E0,7.402196884E0
2.027134760E1,1.420738459E0,5.306682587E0,6.711568356E0
2.028801354E1,4.059722900E0,6.533303261E0,6.956832886E0
2.030467948E1,5.520840168E0,6.630511761E0,7.695915699E0
2.032134542E1,6.271588326E0,5.839384556E0,7.797311783E0
2.033801135E1,6.825526714E0,5.148158073E0,7.509574890E0
2.035467729E1,7.318747044E0,5.055735111E0,8.366803169E0
2.037134323E1,7.890332699E0,4.486243248E0,1.117328548E1
2.038800917E1,9.126823425E0,2.490629196E0,1.517767429E1
2.040467510E1,9.795916557E0,2.907279432E-1,1.692353630E1
2.042134104E1,7.806583881E0,-8.177471161E-1,1.428126240E1
2.043800698E1,3.008675337E0,5.054838061E-1,9.213264465E0
2.045467292E1,-1.413260818E0,2.413759947E0,6.453143597E0
2.047133885E1,-4.047459602E0,3.266501904E0,6.548557281E0
2.048800479E1,-5.256732464E0,3.405584812E0,6.413064003E0
2.050467073E1,-5.180460930E0,3.527319670E0,4.722833633E0
2.052133667E1,-4.171288013E0,3.899702787E0,2.298007011E0
2.053800260E1,-2.857030153E0,4.156332970E0,6.963114142E-1
2.055466854E1,-1.390529037E0,3.315255880E0,8.464609981E-1
2.057133448E1,1.899302900E-1,8.733802438E-1,2.979961395E0
2.058800042E1,2.501995087E0,-2.618346214E0,8.583054543E0
2.060466635E1,6.199803352E0,-5.978467464E0,1.606959915E1
2.062133229E1,1.171376419E1,-8.019246101E0,2.042872238E1
2.063799823E1,1.686850166E1,-8.755039215E0,1.749751472E1
2.065466417E1,1.765843201E1,-6.322734833E0,1.206820107E1
2.067133010E1,1.602712631E1,-4.257429600E0,1.288325596E1
2.068799604E1,1.278036499E1,-4.147060871E0,1.810170364E1
2.070466198E1,9.399306297E0,-4.104289055E0,2.389293289E1
2.072132792E1,7.283751965E0,-2.391626120E0,2.582035065E1
2.073799385E1,6.859025955E0,1.070788145E0,2.200170517E1
2.075465979E1,7.124928474E0,5.149653435E0,1.496291828E1
2.077132573E1,6.865307331E0,7.992625713E0,8.953942299E0
2.078799167E1,5.251049519E0,8.786145210E0,5.577370644E0
2.080465760E1,2.750250578E0,7.725526810E0,4.834399223E0
2.082132354E1,4.537389874E-1,5.865705490E0,5.487041473E0
2.083798948E1,-1.028315544E0,4.068396568E0,6.560222149E0
2.085465542E1,-1.581057549E0,2.922832966E0,7.375576496E0
2.087132135E1,-1.162313581E0,2.400898457E0,7.899305820E0
2.088798729E1,-1.384846121E-1,2.260320187E0,8.930911064E0
2.090465323E1,1.100399256E0,1.649253011E0,1.098096180E1
2.092131917E1,2.120938063E0,4.387838542E-1,1.379402447E1
2.093798510E1,2.675175667E0,-6.601199508E-1,1.618535233E1
2.095465104E1,2.940479994E0,-9.248259664E-1,1.673450470E1
2.097131698E1,2.918346405E0,-4.537389874E-1,1.521266937E1
2.098798292E1,2.663211584E0,3.726821244E-1,1.277198982E1
2.100464885E1,2.255534410E0,1.202393413E0,1.042373371E1
2.102131479E1,1.822134495E0,1.657927036E0,8.423932076E0
2.103798073E1,1.266700506E0,1.798804402E0,6.883552551E0
2.105464667E1,7.328019142E-1,1.804487348E0,5.788537025E0
2.107131260E1,2.264208496E-1,1.734497309E0,5.154139996E0
2.108797854E1,-1.932204217E-1,1.639681697E0,4.984249592E0
2.110464448E1,-4.019941986E-1,1.562513232E0,5.372185707E0
2.112131042E1,-3.535395563E-1,1.708774447E0,5.801398277E0
2.113797635E1,-6.729813665E-2,1.777568102E0,6.224030972E0
2.115464229E1,1.926222295E-1,1.806282043E0,6.924230576E0
2.117130823E1,4.609174728E-1,1.805982947E0,7.981558800E0
2.118797417E1,9.185447693E-1,1.939980984E0,9.051150322E0
2.120464010E1,1.441675663E0,2.309672117E0,1.062891865E1
2.122130604E1,1.999203324E0,3.138785124E0,1.298016548E1
2.123797198E1,2.413460732E0,3.929912090E0,1.565922928E1
2.125463792E1,2.973680258E0,3.747160196E0,1.790758514E1
2.127130385E1,3.683750391E0,2.751745939E0,1.880579185E1
2.128796979E1,4.083351612E0,2.179562330E0,1.817438507E1
2.130463573E1,4.159922123E0,2.271985054E0,1.663938904E1
2.132130167E1,4.215555191E0,2.569293261E0,1.485374546E1
2.133796760E1,4.193421841E0,2.704786777E0,1.316860008E1
2.135463354E1,4.061517239E0,2.688635349E0,1.172782230E1
2.137129948E1,3.523431301E0,2.534298182E0,1.039143085E1
2.138796542E1,3.771686792E0,2.178066730E0,9.512367249E0
2.140463135E1,3.419044495E0,1.561017632E0,8.719446182E0
2.142129729E1,2.883351326E0,1.384247899E0,8.155936241E0
2.143796323E1,2.365005970E0,1.386939883E0,7.540980339E0
2.145462917E1,1.835294962E0,1.153041363E0,7.170691490E0
2.147129510E1,1.448255897E0,9.849455953E-1,7.098009109E0
2.148796104E1,1.219741344E0,8.300103545E-1,6.776772976E0
2.150462698E1,1.274776220E0,8.805587292E-1,6.297011852E0
2.152129292E1,1.325623751E0,1.148854017E0,6.267101765E0
2.153795885E1,1.737189293E0,8.982058167E-1,7.159026146E0
2.155462479E1,1.896311998E0,8.982058167E-1,7.163512707E0
2.157129073E1,2.213660002E0,5.838487148E-1,7.562216759E0
2.158795667E1,2.182852507E0,1.009771109E0,7.571788311E0
2.160462260E1,2.926721096E0,5.718846321E-1,8.262715340E0
2.162128854E1,3.465704441E0,-1.652543187E0,9.089435577E0
2.163795448E1,2.885145903E0,-1.084247708E0,8.876773834E0
2.165462042E1,2.507678032E0,-1.279860973E0,9.519845009E0
2.167128635E1,2.729911566E0,-1.464108348E0,1.030439186E1
2.168795229E1,2.449054003E0,-9.601200819E-1,9.410672188E0
2.170461823E1,2.451147795E0,-4.253242314E-1,9.368199348E0
2.172128417E1,2.038385868E0,9.002995491E-2,9.240781784E0
2.173795010E1,1.840977907E0,1.037886813E-1,8.839685440E0
2.175461604E1,2.318645239E0,4.603192508E-1,8.457431793E0
2.177128198E1,2.828914642E0,1.348654628E0,9.245866776E0
2.178794792E1,3.129213810E0,1.999203324E0,1.161655617E1
2.180461385E1,3.428316593E0,2.280958176E0,1.325683594E1
2.182127979E1,3.510869026E0,2.440978289E0,1.364118290E1
2.183794573E1,3.206681490E0,2.513062000E0,1.291705513E1
2.185461167E1,2.672483683E0,2.465205431E0,1.168564892E1
2.187127760E1,2.311765671E0,2.394916296E0,1.072612667E1
2.188794354E1,2.206182480E0,2.302792788E0,1.033400249E1
2.190460948E1,2.084148407E0,2.076371908E0,1.040578747E1
2.192127542E1,1.852642894E0,1.849053741E0,1.043121147E1
2.193794135E1,1.818844318E0,1.597209096E0,9.868000984E0
2.195460729E1,1.871187329E0,1.475474238E0,8.848059654E0
2.197127323E1,1.892423630E0,1.704586983E0,7.691728592E0
2.198793917E1,1.902593136E0,2.056331873E0,6.825825691E0
2.200460510E1,1.870589137E0,2.208276272E0,6.694220543E0
2.202127104E1,1.842174292E0,2.236989975E0,7.514659405E0
2.203793698E1,2.091626167E0,2.231307030E0,8.761320114E0
2.205460292E1,2.277369022E0,2.175973177E0,9.255437851E0
2.207126885E1,2.254637241E0,2.402393818E0,8.682954788E0
2.208793479E1,2.161616087E0,2.704786777E0,7.870891094E0
2.210460073E1,2.225325108E0,2.716451883E0,7.467102051E0
2.212126667E1,1.871785522E0,2.727219582E0,7.824530125E0
2.213793260E1,1.360319614E0,2.609373093E0,8.679664612E0
2.215459854E1,1.234995604E0,2.295614243E0,9.599406242E0
2.217126448E1,1.250548959E0,2.104487419E0,1.008485031E1
2.218793042E1,1.367498159E0,2.062314034E0,1.026879883E1
2.220459635E1,1.616052628E0,2.295016050E0,1.038425159E1
2.222126229E1,2.101197481E0,2.534597397E0,1.075872898E1
2.223792823E1,2.446063042E0,2.630011082E0,1.108594704E1
2.225459417E1,2.480758905E0,2.520240545E0,1.094507027E1
2.227126010E1,2.197209358E0,2.300399780E0,1.036451149E1
2.228792604E1,1.625623941E0,2.160718918E0,9.830911636E0
2.230459198E1,1.045065284E0,2.154138565E0,9.434899330E0
2.232125792E1,7.522436380E-1,2.279163599E0,9.227920532E0
2.233792385E1,6.349952817E-1,2.410768747E0,9.451948166E0
2.235458979E1,4.609174728E-1,2.254936218E0,9.457631111E0
2.237125573E1,3.744767308E-1,2.211267233E0,8.949754715E0
2.238792167E1,4.007977843E-1,2.345564365E0,8.421539307E0
2.240458760E1,4.648058116E-1,2.354238272E0,8.116454124E0
2.242125354E1,3.828516304E-1,2.310270309E0,8.365307808E0
2.243791948E1,1.719841212E-1,2.389233351E0,8.916254997E0
2.245458542E1,-4.268197417E-1,2.380858421E0,8.947062492E0
2.247125135E1,-1.455434322E0,2.253739834E0,7.858328819E0
2.248791729E1,-1.620539188E0,2.477767944E0,7.408178806E0
2.250458323E1,-1.020538807E0,2.571387053E0,7.647460938E0
2.252124917E1,1.086341500E0,2.111067772E0,9.912567139E0
2.253791510E1,3.413660526E0,1.074975610E0,1.243011570E1
2.255458104E1,3.401397467E0,6.741777658E-1,1.232333565E1
2.257124698E1,2.381456852E0,1.407278776E0,1.239841080E1
2.258791292E1,1.666002750E0,2.237588167E0,1.183938694E1
2.260457885E1,1.732403636E0,2.550449848E0,1.122532940E1
2.262124479E1,1.979163408E0,2.640180588E0,1.105065346E1
2.263791073E1,2.065304995E0,2.882154942E0,1.087777138E1
2.265457667E1,1.947159410E0,3.163012505E0,1.052961636E1
2.267124260E1,1.690529227E0,3.349353552E0,1.006301594E1
2.268790854E1,1.550848126E0,3.495016575E0,9.691530228E0
2.270457448E1,1.489831209E0,3.570988655E0,9.274281502E0
2.272124042E1,1.441974759E0,3.537788391E0,8.994320869E0
2.273790635E1,1.301097274E0,3.458526134E0,9.071788788E0
2.275457229E1,1.054636598E0,3.386741400E0,9.422038078E0
2.277123823E1,9.960124493E-1,3.311367512E0,9.699007034E0
2.278790417E1,1.023828983E0,3.102892876E0,9.809675217E0
2.280457010E1,9.436694384E-1,2.841775894E0,9.828220367E0
2.282123604E1,7.504490018E-1,2.627020121E0,9.870094299E0
2.283790198E1,5.575276613E-1,2.462812662E0,9.861420631E0
2.285456792E1,3.143570721E-1,2.319841623E0,9.374181747E0
2.287123385E1,1.492523104E-1,2.271985054E0,8.986245155E0
2.288789979E1,4.378865361E-1,2.177468538E0,9.000003815E0
2.290456573E1,2.497508675E-1,2.406581402E0,8.734101295E0
2.292123167E1,-5.847460628E-1,3.334398270E0,7.878368378E0
2.293789760E1,-3.496512175E-1,2.810669184E0,7.522137165E0
2.295456354E1,4.441677034E-1,1.387538075E0,8.244171143E0
2.297122948E1,8.228318691E-1,8.650053740E-1,9.556933403E0
2.298789542E1,8.608179688E-1,1.192223907E0,1.062861919E1
2.300456135E1,1.007677436E0,1.248156071E0,1.091127110E1
2.302122729E1,1.024128079E0,1.197906852E0,1.039412212E1
2.303789323E1,8.973084688E-1,1.293320656E0,9.483055115E0
2.305455917E1,7.043871880E-1,1.526022673E0,8.533702850E0
2.307122510E1,7.537391186E-1,1.679163337E0,8.312965393E0
2.308789104E1,9.532406926E-1,1.589731574E0,8.839385986E0
2.310455698E1,1.076171994E0,1.448854089E0,9.335896492E0
2.312122292E1,1.048953652E0,1.366899967E0,9.644570351E0
2.313788885E1,1.053141117E0,1.168893814E0,9.906285286E0
2.315455479E1,1.054038405E0,9.547362328E-1,1.012193871E1
2.317122073E1,1.083051324E0,8.018946648E-1,1.005912685E1
2.318788667E1,1.111167073E0,6.212365627E-1,9.724132538E0
2.320455260E1,1.148554921E0,5.994020700E-1,9.161520004E0
2.322121854E1,1.245464206E0,6.930212379E-1,8.868698120E0
2.323788448E1,1.510469317E0,8.814560175E-1,9.131908417E0
2.325455042E1,1.859223247E0,1.008574724E0,9.612865448E0
2.327121635E1,1.975275040E0,1.013659477E0,9.983155251E0
2.328788229E1,1.820638895E0,1.025025368E0,1.012074280E1
2.330454823E1,1.737787485E0,1.210170031E0,1.023529911E1
2.332121417E1,1.848156333E0,1.445564032E0,1.053230762E1
2.333788010E1,1.985444546E0,1.554437399E0,1.091755199E1
2.335454604E1,2.093420744E0,1.418943882E0,1.119691467E1
2.337121198E1,2.058425665E0,1.084546804E0,1.111705399E1
2.338787792E1,1.782054663E0,7.992027402E-1,1.058016396E1
2.340454385E1,1.463809252E0,7.369893789E-1,9.826126099E0
2.342120979E1,1.303789258E0,7.860422134E-1,9.316155434E0
2.343787573E1,1.220638633E0,7.310073376E-1,9.377172470E0
2.345454167E1,1.080060363E0,8.060821295E-1,9.627223015E0
2.347120760E1,1.003789067E0,1.030409217E0,9.789635658E0
2.348787354E1,9.577272534E-1,1.152144074E0,9.777372360E0
2.350453948E1,9.248259664E-1,1.222433209E0,9.726823807E0
2.352120542E1,9.714859724E-1,1.366002679E0,9.691828728E0
2.353787135E1,1.097109199E0,1.429113269E0,9.656235695E0
2.355453729E1,1.230808139E0,1.390229940E0,9.548857689E0
2.357120323E1,1.148255825E0,1.311565876E0,9.228817940E0
2.358786917E1,9.388837814E-1,1.418345571E0,8.998807907E0
2.360453510E1,7.444669604E-1,1.614257932E0,9.104989052E0
2.362120104E1,5.321039557E-1,1.656730533E0,9.424430847E0
2.363786698E1,2.748754919E-1,1.620239973E0,9.671489716E0
2.365453292E1,5.952146277E-2,1.535593987E0,9.811170578E0
2.367119885E1,-1.265204996E-1,1.564606905E0,9.902696609E0
2.368786479E1,-1.316052526E-1,1.622931957E0,1.012911701E1
2.370453073E1,8.464609832E-2,1.556830287E0,1.010459137E1
2.372119667E1,4.791627228E-1,1.496112347E0,9.763015747E0
2.373786260E1,6.376872063E-1,1.599601984E0,8.995517731E0
2.375452854E1,2.279163599E-1,1.695314884E0,7.864310741E0
2.377119448E1,1.151545867E-1,1.387238979E0,8.053044319E0
2.378786042E1,-1.034895778E-1,1.130010486E0,1.006780148E1
2.380452635E1,-3.750749528E-1,1.006481051E0,1.200389385E1
2.382119229E1,-4.618147612E-1,1.059123158E0,1.213639641E1
2.383785823E1,-6.466603279E-1,1.071685433E0,1.155852985E1
2.385452417E1,-7.767700553E-1,9.197412133E-1,1.033669472E1
2.387119010E1,-6.508477330E-1,1.127019525E0,9.707083702E0
2.388785604E1,-2.249253243E-1,1.412961721E0,9.582955360E0
2.390452198E1,-7.028916478E-2,1.551446438E0,9.851550102E0
2.392118792E1,2.581257522E-1,1.782353759E0,9.662516594E0
2.393785385E1,4.103690982E-1,2.264208317E0,9.647860527E0
2.395451979E1,5.593222752E-2,2.393420935E0,9.962218285E0
2.397118573E1,-3.589234054E-1,1.986341953E0,1.030020428E1
2.398785167E1,-6.239284873E-1,1.440778375E0,1.060947609E1
2.400451760E1,-8.467600942E-1,1.319043517E0,1.080150032E1
2.402118354E1,-1.075872898E0,1.593320727E0,1.082931709E1
2.403784948E1,-1.047458172E0,1.942074656E0,1.081436157E1
2.405451542E1,-8.099704385E-1,2.076670885E0,1.068664455E1
2.407118135E1,-7.274180651E-1,2.038984060E0,1.040818024E1
2.408784729E1,-8.937192559E-1,1.999502420E0,1.018056297E1
2.410451323E1,-1.333101273E0,2.148156643E0,1.001934624E1
2.412117917E1,-1.676770449E0,2.543271303E0,1.008485031E1
2.413784510E1,-1.813460469E0,3.083750248E0,1.032652569E1
2.415451104E1,-1.496710539E0,3.244667530E0,1.054965591E1
2.417117698E1,-1.442273855E0,3.064607620E0,1.049551868E1
2.418784292E1,-1.656730533E0,2.900400162E0,1.026580715E1
2.420450885E1,-2.046461582E0,3.061616659E0,1.001097202E1
2.422117479E1,-2.440679073E0,3.638286829E0,9.812666893E0
2.423784073E1,-2.716751099E0,4.694119930E0,9.672686577E0
2.425450667E1,-2.718545675E0,5.573482037E0,9.731908798E0
2.427117260E1,-2.608176708E0,6.015256882E0,9.518648148E0
2.428783854E1,-2.503490686E0,6.051448345E0,9.314361572E0
2.430450448E1,-2.494816780E0,6.254539490E0,9.062217712E0
2.432117042E1,-2.528017044E0,5.839384556E0,8.824131966E0
2.433783635E1,-2.692822695E0,5.956034660E0,7.922635555E0
2.435450229E1,-2.924627542E0,6.900601387E0,7.673183918E0
2.437116823E1,-2.849253654E0,6.755237579E0,7.518548012E0
2.438783417E1,-2.426023006E0,5.978467464E0,6.988238335E0
2.440450010E1,-1.929512382E0,5.716453075E0,6.582056999E0
2.442116604E1,-1.476371527E0,5.681458473E0,6.179763794E0
2.443783198E1,-1.321436286E0,5.629115105E0,5.681458473E0
2.445449792E1,-1.134497046E0,5.642574787E0,5.139483929E0
2.447116385E1,-1.081555843E0,5.970391750E0,4.826622486E0
2.448782979E1,-1.764108539E0,6.360122681E0,4.830809593E0
2.450449573E1,-2.694318295E0,6.663113594E0,4.514657974E0
2.452116167E1,-3.378665686E0,6.920940399E0,4.088137627E0
2.453782760E1,-3.255435228E0,6.684948444E0,3.925126553E0
2.455449354E1,-2.193022013E0,6.290431499E0,3.745066643E0
2.457115948E1,-1.156331539E0,6.141777515E0,3.229413271E0
2.458782542E1,-1.048056364E0,6.156433582E0,2.629412889E0
2.460449135E1,-1.472483277E0,6.621239185E0,2.161317110E0
2.462115729E1,-2.169392824E0,6.998108864E0,2.326421738E0
2.463782323E1,-2.567199707E0,6.791129589E0,2.957528830E0
2.465448917E1,-1.658824325E0,6.073283195E0,2.806481838E0
2.467115510E1,1.558325738E-1,5.472385406E0,2.178964138E0
2.468782104E1,1.561017632E0,5.684748173E0,1.383649707E0
2.470448698E1,2.005484581E0,6.462415695E0,7.133602500E-1
2.472115292E1,2.168495417E0,6.667301178E0,4.316053987E-1
2.473781885E1,2.777767897E0,5.893522263E0,7.390831113E-1
2.475448479E1,3.961018801E0,4.674977303E0,1.752144337E0
2.477115073E1,5.050650597E0,3.601497173E0,2.724228621E0
2.478781667E1,5.275874615E0,3.694817305E0,4.017848492E0
2.480448260E1,4.938487053E0,4.829613209E0,5.123631477E0
2.482114854E1,5.149055004E0,5.848656654E0,5.627918720E0
2.483781448E1,6.117550373E0,5.604289532E0,5.548357487E0
2.485448042E1,8.377271652E0,4.310968876E0,5.454738140E0
2.487114635E1,1.034506989E1,3.395116329E0,5.417649746E0
2.488781229E1,9.971191406E0,3.675076485E0,6.404987812E0
2.490447823E1,8.643174171E0,4.488636017E0,7.957930088E0
2.492114417E1,7.604689598E0,4.987240791E0,8.944669724E0
2.493781010E1,7.047461033E0,4.784149647E0,8.886344910E0
2.495447604E1,7.042376041E0,3.833301783E0,8.171788216E0
2.497114198E1,8.073084831E0,3.092424154E0,7.466504097E0
2.498780792E1,9.085846901E0,3.228515863E0,7.587640762E0
2.500447385E1,8.371888161E0,3.782454491E0,7.868498325E0
2.502113979E1,7.006184578E0,3.869792461E0,7.807481289E0
2.503780573E1,6.049654007E0,3.466302633E0,7.791628838E0
2.505447167E1,5.134997368E0,2.871088028E0,9.127720833E0
2.507113760E1,4.527220249E0,3.023929596E0,9.893125534E0
2.508780354E1,5.127220631E0,2.849552631E0,9.737292290E0
2.510446948E1,5.860022545E0,2.732603550E0,9.641280174E0
2.512113542E1,6.141478539E0,2.493919373E0,9.724730492E0
2.513780135E1,5.763113499E0,2.504687071E0,9.499505997E0
2.515446729E1,5.440381527E0,1.808674812E0,9.271290779E0
2.517113323E1,5.446662426E0,6.131607890E-1,9.072088242E0
2.518779917E1,4.829015255E0,3.089732230E-1,8.985049248E0
2.520446510E1,4.100998878E0,1.121934772E0,9.815358162E0
2.522113104E1,3.918546200E0,1.830509305E0,1.042582703E1
2.523779698E1,3.695415497E0,2.324028969E0,1.046680450E1
2.525446292E1,2.942872763E0,2.911766052E0,1.023888779E1
2.527112885E1,2.330908298E0,3.124129057E0,1.014586735E1
2.528779479E1,2.632703066E0,2.737090111E0,1.021406269E1
2.530446073E1,2.491227388E0,2.314158678E0,9.110373497E0
2.532112667E1,1.897508383E0,2.489133835E0,8.408976555E0
2.533779260E1,1.951047778E0,2.594118834E0,9.265906334E0
2.535445854E1,2.298306227E0,2.422732830E0,1.013001442E1
2.537112448E1,2.233101845E0,2.403889418E0,1.087478065E1
2.538779042E1,1.958226204E0,2.097608089E0,1.099382401E1
2.540445635E1,1.579262972E0,1.701596022E0,1.049312592E1
2.542112229E1,1.295713425E0,1.573280931E0,1.002532864E1
2.543778823E1,1.043270707E0,1.718644857E0,9.830613136E0
2.545445417E1,5.482555032E-1,1.876870275E0,9.801001549E0
2.547112010E1,6.699903309E-2,1.887937069E0,9.868299484E0
2.548778604E1,4.606183618E-2,1.784746647E0,9.983155251E0
2.550445198E1,3.451646566E-1,1.863709688E0,1.007737255E1
2.552111792E1,5.931209326E-1,2.082054853E0,1.031665516E1
2.553778385E1,1.492523104E-1,2.067996979E0,1.033190918E1
2.555444979E1,-4.193421602E-1,1.709671736E0,9.901799202E0
2.557111573E1,-5.084748268E-1,1.529013634E0,9.596714020E0
2.558778167E1,-3.610171080E-1,1.732403636E0,9.602995872E0
2.560444760E1,-2.374876440E-1,1.999203324E0,9.852447510E0
2.562111354E1,-1.983051747E-1,2.089831591E0,9.890732765E0
2.563777948E1,-4.193421602E-1,2.070389748E0,9.673284531E0
2.565444542E1,-7.797610760E-1,2.075175524E0,9.282057762E0
2.567111135E1,-7.319046259E-1,2.064706802E0,9.093922615E0
2.568777729E1,-4.307080805E-1,1.990529299E0,9.399007797E0
2.570444323E1,-1.325025558E-1,1.874178290E0,9.798608780E0
2.572110917E1,1.495514181E-3,1.966302037E0,1.009292603E1
2.573777510E1,-1.283151209E-1,1.966302037E0,9.978070259E0
2.575444104E1,-3.894318938E-1,1.808674812E0,9.395118713E0
2.577110698E1,-5.090730190E-1,1.735394597E0,8.838788033E0
2.578777292E1,-3.834498227E-1,1.872383714E0,8.754141808E0
2.580443885E1,6.340979785E-2,2.146661043E0,9.015856743E0
2.582110479E1,5.709872842E-1,2.228615284E0,9.232108116E0
2.583777073E1,5.069792867E-1,1.885843396E0,9.386744499E0
2.585443667E1,6.137589812E-1,1.388435364E0,9.553942680E0
2.587110260E1,5.392823815E-1,1.352542996E0,9.503394127E0
2.588776854E1,9.302098304E-2,1.673480392E0,9.396315575E0
2.590443448E1,-3.346960545E-1,1.919342875E0,9.572786331E0
2.592110042E1,-7.310073376E-1,2.248056889E0,9.840482712E0
2.593776635E1,-1.406979680E0,2.913859844E0,9.970891953E0
2.595443229E1,-2.099402666E0,3.515355587E0,9.856933594E0
2.597109823E1,-2.147558212E0,3.681656837E0,9.195318222E0
2.598776417E1,-1.371087432E0,3.056531906E0,8.914759636E0
2.600443010E1,-6.529414654E-1,2.405085802E0,9.220742226E0
2.602109604E1,-4.274179339E-1,2.188834429E0,9.477671623E0
2.603776198E1,-1.348953694E-1,2.092523336E0,9.469595909E0
2.605442792E1,2.303091735E-1,2.123630047E0,9.534201622E0
2.607109385E1,3.672982752E-1,2.210968018E0,9.486045837E0
2.608775979E1,3.011965454E-1,2.179263115E0,9.252745628E0
2.610442573E1,1.310070455E-1,2.211267233E0,9.203991890E0
2.612109167E1,-1.133599728E-1,2.289033890E0,9.365806580E0
2.613775760E1,-3.287140131E-1,2.190629244E0,9.602995872E0
2.615442354E1,-3.308077157E-1,2.140379906E0,9.966704369E0
2.617108948E1,-1.704886109E-1,2.188535452E0,1.023649502E1
2.618775542E1,3.349951655E-2,2.248056889E0,1.026311588E1
2.620442135E1,1.914258115E-2,2.335095882E0,1.009531879E1
2.622108729E1,-2.003988922E-1,2.239681959E0,9.944570541E0
2.623775323E1,-4.381856322E-1,2.029412746E0,9.830014229E0
2.625441917E1,-5.584250093E-1,1.875374794E0,9.739386559E0
2.627108510E1,-4.800600410E-1,1.829013824E0,9.775577545E0
2.628775104E1,-2.084746659E-1,1.882553220E0,1.014945602E1
2.630441698E1,1.495514158E-2,1.946561217E0,1.052034378E1
2.632108292E1,2.751746029E-2,1.911267042E0,1.058016396E1
2.633774885E1,-1.277169138E-1,1.834696770E0,1.040548801E1
2.635441479E1,-3.774677813E-1,1.835294962E0,1.013719273E1
2.637108073E1,-5.784648657E-1,1.929512382E0,9.865308762E0
2.638774667E1,-5.889334679E-1,2.012962103E0,9.486943245E0
2.640441260E1,-4.019941986E-1,2.125424623E0,9.153144836E0
2.642107854E1,-2.156531364E-1,2.192722797E0,9.461220741E0
2.643774448E1,3.589233849E-3,2.036591291E0,9.992726326E0
2.645441042E1,2.542374134E-1,1.748854280E0,1.035553837E1
2.647107635E1,4.049852192E-1,1.366002679E0,1.038096237E1
2.648774229E1,7.310073376E-1,1.008574724E0,1.024606609E1
2.650440823E1,4.734797776E-1,1.002592683E0,1.015842915E1
2.652107417E1,-4.935196787E-2,1.199701428E0,9.979565620E0
2.653774010E1,-4.181457460E-1,1.275075316E0,9.897611618E0
2.655440604E1,-6.960122585E-1,1.547258973E0,9.952347755E0
2.657107198E1,-6.529414654E-1,1.699203134E0,1.001665497E1
2.658773792E1,-4.022932947E-1,1.607677698E0,1.004985523E1
2.660440385E1,1.764706708E-2,1.367498159E0,9.703194618E0
2.662106979E1,3.798605874E-2,1.403988719E0,9.378668785E0
2.663773573E1,-1.274178028E-1,1.514955878E0,9.390333176E0
2.665440167E1,-2.632104978E-2,1.345962763E0,9.424430847E0
2.667106760E1,1.435693540E-2,1.169192910E0,9.549157143E0
2.668773354E1,2.392822644E-3,1.069292665E0,9.606286049E0
2.670439948E1,-1.561316848E-1,1.229013562E0,9.517452240E0
2.672106542E1,-2.159522474E-1,1.515554070E0,9.664909363E0
2.673773135E1,-2.261217386E-1,1.607378602E0,9.934102058E0
2.675439729E1,-3.568296731E-1,1.556231976E0,9.977771759E0
2.677106323E1,-4.836492836E-1,1.595414519E0,9.736394882E0
2.678772917E1,-5.691927075E-1,1.829312921E0,9.474979401E0
2.680439510E1,-5.500500798E-1,2.038086653E0,9.257830620E0
2.682106104E1,-1.432702541E-1,2.009671926E0,9.145966530E0
2.683772698E1,2.991028363E-3,2.178664923E0,9.066703796E0
2.685439292E1,-1.959123611E-1,2.446960211E0,8.973084450E0
2.687105885E1,-2.273181528E-1,2.330310106E0,8.961120605E0
2.688772479E1,-1.965105534E-1,2.130210400E0,9.161220551E0
2.690439073E1,-2.772683203E-1,2.048256159E0,9.367003441E0
2.692105667E1,-4.076771438E-1,2.115255117E0,9.453444481E0
2.693772260E1,-4.351946115E-1,2.110170364E0,9.348159790E0
2.695438854E1,-3.155534863E-1,2.146960020E0,9.038289070E0
2.697105448E1,-2.886342406E-1,2.293221474E0,8.766405106E0
2.698772042E1,-1.977069676E-1,2.361117840E0,8.888139725E0
2.700438635E1,-5.443671346E-2,2.387438774E0,9.292527199E0
2.702105229E1,7.238288224E-2,2.430509567E0,9.752247810E0
2.703771823E1,6.729813665E-2,2.445763826E0,9.967901230E0
2.705438417E1,1.758724600E-1,2.482553482E0,1.004297543E1
2.707105010E1,1.674975902E-1,2.621636391E0,9.805487633E0
2.708771604E1,1.878365725E-1,2.759821892E0,9.545269012E0
2.710438198E1,1.579262912E-1,2.887837887E0,9.383752823E0
2.712104792E1,1.253240854E-1,3.160619497E0,9.444471359E0
2.713771385E1,1.537388563E-1,3.250051260E0,9.505188942E0
2.715437979E1,4.178466499E-1,2.885445118E0,9.612566948E0
2.717104573E1,-4.342973232E-1,3.723531246E0,9.968798637E0
2.718771167E1,1.181456149E-1,2.587538481E0,9.760024071E0
2.720437760E1,5.712864175E-2,2.357827663E0,1.026610661E1
2.722104354E1,1.914258115E-2,2.350050926E0,1.121874905E1
2.723770948E1,-3.852444589E-1,2.287837505E0,1.139551830E1
2.725437542E1,-8.703892231E-1,2.152343988E0,1.028913784E1
2.727104135E1,-1.003789067E0,2.057229280E0,9.273982048E0
2.728770729E1,-7.734799385E-1,2.199901342E0,9.173483849E0
2.730437323E1,-3.478565812E-1,2.360519648E0,9.975378036E0
2.732103917E1,-1.040877849E-1,2.442473650E0,1.040728283E1
2.733770510E1,-2.862414122E-1,2.278266191E0,1.026490974E1
2.735437104E1,-5.697908998E-1,1.756929994E0,1.031695366E1
2.737103698E1,-7.351947427E-1,1.048056364E0,1.091186905E1
2.738770292E1,-5.440680385E-1,6.430711150E-1,1.146640587E1
2.740436885E1,-4.782654345E-1,1.042074203E0,1.150528908E1
2.742103479E1,-6.693921089E-1,1.747956991E0,1.075005436E1
2.743770073E1,-7.211369276E-1,1.910668850E0,9.796813965E0
2.745436667E1,-4.965106845E-1,2.047059774E0,8.988339424E0
2.747103260E1,-4.534398913E-1,2.278864384E0,8.552845001E0
2.748769854E1,-3.774677813E-1,2.234298229E0,8.687441826E0
2.750436448E1,-3.930211067E-1,2.163111687E0,9.307781219E0
2.752103042E1,-1.477568001E-1,1.767697692E0,9.879366875E0
2.753769635E1,-2.422732860E-2,1.395912886E0,1.010488987E1
2.755436229E1,-3.888336942E-2,1.319342613E0,1.006391335E1
2.757102823E1,-5.234299600E-2,1.391725421E0,9.914361954E0
2.758769417E1,-6.939185411E-2,1.494317770E0,9.739386559E0
2.760436010E1,-3.131606579E-1,1.723430514E0,9.449854851E0
2.762102604E1,-6.367899179E-1,1.741675735E0,8.773583412E0
2.763769198E1,-8.054839373E-1,2.039582253E0,8.542376518E0
2.765435792E1,-4.534398913E-1,2.376970291E0,9.032307625E0
2.767102385E1,-2.353939265E-1,2.295913219E0,9.694520950E0
2.768768979E1,-2.237289101E-1,2.220240355E0,9.856635094E0
2.770435573E1,-1.528415531E-1,2.213061810E0,9.626923561E0
2.772102167E1,-1.956132501E-1,2.277069807E0,9.282357216E0
2.773768760E1,-4.534398913E-1,2.375175476E0,8.951848984E0
2.775435354E1,-4.905286431E-1,2.435893536E0,8.926724434E0
2.777101948E1,-6.233302951E-1,2.620140791E0,8.970093727E0
2.778768542E1,-5.234299302E-1,2.697309256E0,9.138488770E0
2.780435135E1,-3.852444589E-1,2.773879766E0,9.414261818E0
2.782101729E1,-5.153541565E-1,2.849552631E0,9.560523033E0
2.783768323E1,-5.425725579E-1,2.687139750E0,9.562616348E0
2.785434917E1,-5.252245665E-1,2.542673111E0,9.325428009E0
2.787101510E1,-6.921239495E-1,2.837289333E0,9.008079529E0
2.788768104E1,-7.354938388E-1,3.042474031E0,8.768797874E0
2.790434698E1,-5.183451772E-1,2.921038151E0,9.010771751E0
2.792101292E1,-3.340978622E-1,2.575873613E0,9.589535713E0
2.793767885E1,-6.323033571E-1,2.494816780E0,9.968499184E0
2.795434479E1,-8.078767657E-1,2.420041084E0,1.009591675E1
2.797101073E1,-8.512466550E-1,2.340479612E0,1.015962601E1
2.798767667E1,-8.682954907E-1,2.554936409E0,1.014885807E1
2.800434260E1,-7.668996453E-1,2.746960402E0,1.006421185E1
2.802100854E1,-6.999006271E-1,2.799303293E0,1.004058266E1
2.803767448E1,-4.417748749E-1,2.637189627E0,1.026042366E1
2.805434042E1,-2.991028428E-1,2.513062000E0,1.046321487E1
2.807100635E1,-4.265206456E-1,2.365604401E0,1.044018459E1
2.808767229E1,-4.456632137E-1,2.044965982E0,1.020628548E1
2.810433823E1,-3.203391433E-1,1.822134495E0,1.046171951E1
2.812100417E1,-3.714857101E-1,1.980060697E0,1.097468090E1
2.813767010E1,-5.473581553E-1,2.114357948E0,1.090977573E1
2.815433604E1,-2.183450609E-1,1.792822361E0,1.056939697E1
2.817100198E1,1.962114573E-1,1.669592023E0,1.020808029E1
2.818766792E1,2.850449979E-1,1.704287887E0,9.958030701E0
2.820433385E1,1.543370634E-1,1.755733609E0,9.601201057E0
2.822099979E1,1.471585929E-1,1.561017632E0,9.086145401E0
2.823766573E1,2.186441720E-1,1.863111496E0,8.860622406E0
2.825433167E1,3.945166469E-1,2.103291035E0,9.060722351E0
2.827099760E1,4.746761918E-1,1.841576099E0,9.341280937E0
2.828766354E1,3.308077157E-1,1.458126307E0,9.522537231E0
2.830432948E1,1.483550072E-1,1.184447169E0,9.610174179E0
2.832099542E1,1.534397453E-1,9.194421172E-1,9.719645500E0
2.833766135E1,1.767697781E-1,1.186540961E0,9.511171341E0
2.835432729E1,5.087739229E-1,1.847857237E0,9.192327499E0
2.837099323E1,6.062814593E-1,2.330310106E0,8.982954979E0
2.838765917E1,3.930211067E-1,2.391027927E0,9.226723671E0
2.840432510E1,6.370890141E-2,2.138585329E0,9.409176826E0
2.842099104E1,1.794617064E-2,2.050948143E0,9.176774025E0
2.843765698E1,1.588236094E-1,2.115853310E0,8.802297592E0
2.845432292E1,3.308077157E-1,2.209472656E0,8.730812073E0
2.847098885E1,5.374878049E-1,2.226820469E0,9.129515648E0
2.848765479E1,7.142575383E-1,2.225325108E0,9.513862610E0
2.850432073E1,9.568299651E-1,2.087438583E0,9.409176826E0
2.852098667E1,5.952146053E-1,2.069193363E0,9.116654396E0
2.853765260E1,4.097708762E-1,1.932204247E0,8.960522652E0
2.855431854E1,5.353940725E-1,1.881655931E0,8.976076126E0
2.857098448E1,5.647061467E-1,2.262114763E0,9.216854095E0
2.858765042E1,8.641080856E-1,2.329412937E0,9.415757179E0
2.860431635E1,8.820542693E-1,2.521137714E0,9.422636032E0
2.862098229E1,8.258228898E-1,2.802892685E0,9.364012718E0
2.863764823E1,9.918249846E-1,2.823530674E0,9.389735222E0
2.865431417E1,9.834501147E-1,2.878266573E0,9.198308945E0
2.867098010E1,8.970093727E-1,2.927020311E0,9.159725189E0
2.868764604E1,9.918249846E-1,3.065804005E0,9.466903687E0
2.870431198E1,1.115055323E0,3.137588739E0,1.009412193E1
2.872097792E1,1.040877819E0,2.842972517E0,1.050688457E1
2.873764385E1,7.256234884E-1,2.509771824E0,1.057807064E1
2.875430979E1,1.363908947E-1,2.531905413E0,1.041027355E1
2.877097573E1,2.437688112E-1,2.370389938E0,1.040219784E1
2.878764167E1,2.808575630E-1,2.492722988E0,1.048295593E1
2.880430760E1,2.150549293E-1,2.600699186E0,1.055623627E1
2.882097354E1,-3.846462369E-1,2.309073925E0,1.026311588E1
2.883763948E1,-3.708875179E-1,1.985145450E0,1.043749237E1
2.885430542E1,-8.225327730E-2,1.968993902E0,1.109701443E1
2.887097135E1,-6.251249462E-2,1.955833435E0,1.132762241E1
2.888763729E1,-3.439682722E-2,1.802991867E0,1.105872917E1
2.890430323E1,-2.386840582E-1,1.715653777E0,1.069591713E1
2.892096917E1,-4.567300081E-1,1.657927036E0,1.044257736E1
2.893763510E1,-5.802594870E-2,1.561316729E0,1.063789082E1
2.895430104E1,-2.213360928E-2,1.321735382E0,1.070548820E1
2.897096698E1,-3.457628787E-1,1.309771299E0,1.043150997E1
2.898763292E1,-4.531407952E-1,1.380060434E0,9.910472870E0
2.900429885E1,-6.278168559E-1,1.664208174E0,9.457332611E0
2.902096479E1,-6.257231236E-1,1.718644857E0,9.122337341E0
2.903763073E1,-6.149554253E-1,1.588235974E0,9.124430656E0
2.905429667E1,-8.183453679E-1,1.387238979E0,9.575477600E0
2.907096260E1,-9.774680734E-1,1.288834095E0,9.643074989E0
2.908762854E1,-7.052844763E-1,1.117448211E0,9.690931320E0
2.910429448E1,-2.958126962E-1,1.065105200E0,9.982257843E0
2.912096042E1,-1.597209126E-1,1.104586720E0,9.713962555E0
2.913762635E1,-4.722833633E-1,1.273878932E0,8.802895546E0
2.915429229E1,-6.867401004E-1,1.437787294E0,8.136793137E0
2.917095823E1,-5.389832854E-1,1.727019787E0,8.200502396E0
2.918762417E1,-2.611167729E-1,1.977368832E0,8.665307999E0
2.920429010E1,-1.369891018E-1,1.853241086E0,9.008079529E0
2.922095604E1,-4.633102715E-1,1.736590981E0,8.840881348E0
2.923762198E1,-3.110669553E-1,1.654038668E0,8.680861473E0
2.925428792E1,-1.794617027E-1,1.797608018E0,8.938090324E0
2.927095385E1,-1.459621787E-1,1.782652855E0,9.302995682E0
2.928761979E1,-1.737787426E-1,1.865504384E0,9.653244972E0
2.930428573E1,-8.703892678E-2,2.123630047E0,1.021825027E1
2.932095167E1,-1.226321608E-1,2.276172638E0,1.044676495E1
2.933761760E1,-2.512463629E-1,2.267498493E0,9.806385040E0
2.935428354E1,-1.289133132E-1,2.370389938E0,8.973981857E0
2.937094948E1,3.086741269E-1,2.591426849E0,8.790632248E0
2.938761542E1,3.173480928E-1,2.797209740E0,8.914759636E0
2.940428135E1,6.460621208E-2,2.926422119E0,9.207880974E0
2.942094729E1,2.629113793E-1,2.523829699E0,9.722038269E0
2.943761323E1,3.242274821E-1,2.017747641E0,1.027866840E1
2.945427917E1,4.037888348E-1,1.840080619E0,1.049372387E1
2.947094510E1,7.851449251E-1,1.886441588E0,1.048564816E1
2.948761104E1,1.127617717E0,2.126322031E0,1.038933659E1
2.950427698E1,1.102193952E0,2.422732830E0,1.010847950E1
2.952094292E1,1.212263823E0,2.256132603E0,9.819845200E0
2.953760885E1,1.303789258E0,2.263311148E0,9.927821159E0
2.955427479E1,1.625623941E0,2.197209358E0,1.046441174E1
2.957094073E1,2.052144527E0,1.840080619E0,1.115563869E1
2.958760667E1,1.880758643E0,1.485045552E0,1.213848972E1
2.960427260E1,1.410868049E0,1.143769264E0,1.320419312E1
2.962093854E1,8.213363886E-1,1.009472013E0,1.275763321E1
2.963760448E1,6.023930907E-1,1.093220830E0,1.060379314E1
2.965427042E1,1.081555843E0,1.627418518E0,9.203095436E0
2.967093635E1,1.643270969E0,1.921735644E0,9.184849739E0
2.968760229E1,1.615155339E0,1.704586983E0,9.548259735E0
2.970426823E1,1.294517040E0,1.390529037E0,9.859027863E0
2.972093417E1,8.171489239E-1,1.173380375E0,9.984950066E0
2.973760010E1,2.784647346E-1,1.063310504E0,9.704092026E0
2.975426604E1,3.170489967E-1,1.286441326E0,9.683155060E0
2.977093198E1,3.308077157E-1,1.255035520E0,8.139485359E0
2.978759792E1,5.718846321E-1,2.120938063E0,7.332505703E0
2.980426385E1,1.236191988E0,1.776670814E0,1.074048328E1
2.982092979E1,1.198205948E0,1.359721422E0,1.147119141E1
2.983759573E1,8.422735929E-1,1.511366606E0,1.034357452E1
