"Time (s)","Gyroscope x (rad/s)","Gyroscope y (rad/s)","Gyroscope z (rad/s)"
2.223252300E-2,-5.173261166E-1,-5.912407637E-1,1.301905513E-1
3.889846000E-2,-5.526035428E-1,-4.557051361E-1,7.124210149E-2
5.556439800E-2,-3.756818473E-1,-1.514181048E-1,-3.810269013E-2
7.223033500E-2,-1.190422773E-1,1.685223281E-1,-1.553887278E-1
8.889627300E-2,-9.926552884E-4,1.943313628E-1,-1.680641770E-1
1.055622100E-1,-9.178243577E-2,6.727148592E-2,-1.374445707E-1
1.222281480E-1,-3.651444316E-1,-7.620538026E-2,-1.840230078E-2
1.388940850E-1,-6.549233794E-1,-3.550651670E-1,1.092684343E-1
1.555600230E-1,-8.019127250E-1,-6.548470259E-1,1.350011230E-1
1.722259600E-1,-7.853430510E-1,-8.051197529E-1,1.171333194E-1
1.888918980E-1,-6.914989352E-1,-6.279689670E-1,9.628756344E-2
2.055578350E-1,-6.320159435E-1,-4.893026948E-1,2.105192691E-1
2.222237730E-1,-4.936550856E-1,-7.493020296E-1,2.900844216E-1
2.388897100E-1,-1.543960720E-1,-1.168813348E0,2.953531146E-1
2.555556480E-1,1.217148080E-1,-1.571678758E0,2.985601723E-1
2.722215850E-1,2.321286201E-1,-1.891466379E0,2.574031353E-1
2.888875230E-1,2.382372618E-1,-1.769522548E0,2.195295244E-1
3.055534600E-1,7.040216774E-2,-1.623831272E0,3.180314898E-1
3.222193980E-1,-2.152534723E-1,-1.556865215E0,4.211149216E-1
3.388853350E-1,-5.521454215E-1,-1.126892805E0,4.851029813E-1
3.555512730E-1,-7.709113359E-1,-9.056833982E-1,3.652971387E-1
3.722172100E-1,-1.175838351E0,-1.054658055E0,1.389717311E-1
3.888831480E-1,-1.481041670E0,-1.479743600E0,6.620246917E-2
4.055490850E-1,-1.587026715E0,-1.667737246E0,7.521272451E-2
4.222150230E-1,-1.524489403E0,-1.695149779E0,1.622609496E-1
4.388809600E-1,-1.307327032E0,-1.270598769E0,1.792124510E-1
4.555468980E-1,-9.627228975E-1,-1.715766490E-1,3.291797638E-1
4.722128350E-1,-7.096721530E-1,1.784488708E-1,7.058542371E-1
4.888787730E-1,-6.315578222E-1,1.331685185E-1,7.981712222E-1
5.055447100E-1,-6.200277805E-1,2.929096520E-1,6.924915910E-1
5.222106480E-1,-6.838631034E-1,-3.970621154E-3,7.977130413E-1
5.388765850E-1,-6.676751971E-1,-2.384663373E-1,1.123685718E0
5.555425230E-1,-5.321395993E-1,2.243400961E-1,1.432019711E0
5.722084600E-1,-3.594939113E-1,8.293253183E-1,1.424154878E0
5.888743980E-1,-9.376774728E-2,1.360319495E0,1.239215612E0
6.055403350E-1,2.539670467E-1,1.579009056E0,7.943533063E-1
6.222062730E-1,4.813614488E-1,9.824233055E-1,-5.039634556E-2
6.388722100E-1,5.606211424E-1,-1.470656991E-1,-4.729620516E-1
6.555381480E-1,3.704131246E-1,-1.020831347E0,-5.615374446E-1
6.722040850E-1,9.491311759E-2,-1.271591425E0,-7.950404882E-1
6.888700230E-1,-5.345067009E-3,-1.047327638E0,-8.769727349E-1
7.055359600E-1,-1.808159798E-1,-1.145753264E0,-7.708349824E-1
7.222018980E-1,-2.372446060E-1,-1.116202712E0,-5.609265566E-1
7.388678350E-1,-1.818849891E-1,-1.334510446E0,-8.139773458E-2
7.555337730E-1,-9.766200930E-2,-1.327332854E0,-2.750418782E-1
7.721997100E-1,1.240055487E-1,-1.434386849E0,-5.665770769E-1
7.888656480E-1,3.114646673E-1,-1.504712701E0,-6.757691503E-1
8.055315850E-1,2.410625070E-1,-1.098563910E0,-7.077631950E-1
8.221975230E-1,-1.284343153E-1,1.550832987E-1,-4.010327160E-1
8.388634600E-1,8.185587823E-2,5.936078429E-1,1.443168074E-1
8.555293980E-1,4.189005196E-1,4.963276386E-1,4.426479042E-1
8.721953350E-1,7.187587619E-1,2.503781915E-1,3.538434207E-1
8.888612730E-1,9.304997921E-1,-2.809977904E-2,2.132681608E-1
9.055272100E-1,9.741765857E-1,-3.366628587E-1,1.101083755E-1
9.221931480E-1,9.582940936E-1,-4.607447684E-1,2.771798894E-2
9.388590850E-1,9.296598434E-1,-3.224602342E-1,-2.901607752E-2
9.555250230E-1,7.208204269E-1,-4.415025115E-1,-1.265253723E-1
9.721909600E-1,4.371501207E-1,-7.749583125E-1,-2.710712552E-1
9.888568980E-1,3.816377819E-1,-1.064126492E0,-3.545306325E-1
1.005522835E0,3.860665262E-1,-1.053818107E0,-3.501782417E-1
1.022188773E0,3.287216127E-1,-8.648318052E-1,-2.812268734E-1
1.038854710E0,2.925278842E-1,-5.522981286E-1,-9.796743840E-2
1.055520648E0,3.145190179E-1,-4.380663931E-1,6.108647678E-3
1.072186585E0,4.747183025E-1,-3.584249020E-1,-1.007926930E-2
1.088852523E0,5.970439911E-1,-8.979712427E-2,-6.856957078E-2
1.105518460E0,5.088503361E-1,1.971566081E-1,-8.239039034E-2
1.122184398E0,1.695149690E-1,4.857902229E-1,1.634063199E-2
1.138850335E0,-1.853974611E-1,5.955168009E-1,2.423606068E-1
1.155516273E0,-2.796997130E-1,6.165152788E-1,5.496255755E-1
1.172182210E0,-2.439641207E-1,7.240274549E-1,6.957749724E-1
1.188848148E0,-3.827067912E-1,7.004328370E-1,5.968912244E-1
1.205514085E0,-5.111411214E-1,4.389063418E-1,5.632173419E-1
1.222180023E0,-4.778489769E-1,3.087157905E-1,5.828413367E-1
1.238845960E0,-4.661661983E-1,2.870301008E-1,5.283980370E-1
1.255511898E0,-6.113229394E-1,4.476111531E-1,5.088503361E-1
1.272177835E0,-8.220712543E-1,5.836812854E-1,5.613847375E-1
1.288843773E0,-9.067524076E-1,3.662897944E-1,5.629118681E-1
1.305509710E0,-7.545707226E-1,1.364519149E-1,3.728565872E-1
1.322175648E0,-3.742310405E-1,2.099084109E-1,9.880737960E-2
1.338841585E0,7.032580674E-2,5.661953092E-1,3.107774630E-2
1.355507523E0,2.949713171E-1,6.397281289E-1,9.850194678E-3
1.372173460E0,3.207803667E-1,3.652971387E-1,-3.573558852E-2
1.388839398E0,3.287216127E-1,8.590286225E-2,1.410334110E-1
1.405505335E0,3.650680780E-1,1.595884189E-2,3.810268939E-1
1.422171273E0,3.862956166E-1,-2.622137070E-1,3.714821339E-1
1.438837210E0,5.076286197E-1,-4.357756674E-1,1.450040340E-1
1.455503148E0,7.060069442E-1,-2.546542585E-1,1.703549176E-1
1.472169085E0,6.230056882E-1,-4.657844082E-2,2.442695498E-1
1.488835023E0,3.025307953E-1,8.956804872E-2,2.060141414E-1
1.505500960E0,-1.672242396E-2,1.266780794E-1,1.078176349E-1
1.522166898E0,-2.720639110E-1,3.058141768E-1,-6.436987966E-2
1.538832835E0,-5.116755962E-1,2.318995446E-1,-2.990946770E-1
1.555498773E0,-1.066722646E-1,9.101885557E-2,8.139773458E-2
1.572164710E0,4.499019086E-1,1.318704337E-1,1.258381456E-1
1.588830648E0,6.254491806E-1,-1.992946304E-2,-3.084867075E-2
1.605496585E0,3.969857395E-1,-2.167806327E-1,-1.383608729E-1
1.622162523E0,-4.520399496E-2,-5.946004987E-1,-5.697077513E-1
1.638828460E0,-2.061668551E-3,-9.398918152E-1,-7.662535310E-1
1.655494398E0,6.821069121E-1,-9.447787404E-1,-4.672352076E-1
1.672160335E0,1.241353631E0,-6.573668718E-1,-2.854265571E-1
1.688826273E0,1.004719853E0,-3.594939113E-1,-3.258199990E-1
1.705492210E0,5.003746152E-1,-2.845866382E-1,-4.126391709E-1
1.722158148E0,1.782197952E-1,-3.879754841E-1,-2.877936661E-1
1.738824085E0,2.027307451E-1,-6.146063209E-1,-2.277761996E-1
1.755490023E0,6.653081179E-1,-6.237692833E-1,-3.077994883E-1
1.772155960E0,1.368489861E0,-1.001360059E0,-3.759109080E-1
1.788821898E0,1.917962670E0,-1.897193313E0,-5.282453299E-1
1.805487835E0,2.112217665E0,-2.067624569E0,-9.049961567E-1
1.822153773E0,1.922238708E0,-1.226311088E0,-1.384143233E0
1.838819710E0,1.680336237E0,-7.299833894E-1,-1.472489595E0
1.855485648E0,1.216537237E0,-3.940077722E-1,-1.015639067E0
1.872151585E0,6.834813356E-1,-8.513928205E-2,-3.502545953E-1
1.888817523E0,2.157879770E-1,3.676642478E-1,-1.909715980E-1
1.905483460E0,-2.422842383E-1,7.531962991E-1,-1.472184062E-1
1.922149398E0,-6.852375865E-1,1.237993836E0,-7.192932814E-2
1.938815335E0,-9.372956753E-1,1.448436737E0,5.054906011E-2
1.955481273E0,-1.295796871E0,1.706221700E0,7.040216774E-2
1.972147210E0,-1.986532211E0,2.278831005E0,-1.647044122E-1
1.988813148E0,-1.938579321E0,4.855611324E-1,-1.208748668E-1
2.005479085E0,-8.263473511E-1,5.413789153E-1,2.473238707E-1
2.022145023E0,2.145662606E-1,1.041142702E0,2.496909797E-1
2.038810960E0,5.754346251E-1,6.325504780E-1,5.726857111E-3
2.055476898E0,1.870773435E-1,1.924224049E-1,-3.643044829E-1
2.072142835E0,-3.962221742E-1,2.343430072E-1,-3.766745031E-1
2.088808773E0,-7.954986691E-1,4.165334105E-1,-1.295033395E-1
2.105474710E0,-5.801688433E-1,4.647153914E-1,7.330377586E-3
2.122140648E0,-1.082757786E-1,6.428588033E-1,2.641990222E-2
2.138806585E0,2.902371287E-1,5.453495383E-1,1.291215420E-1
2.155472523E0,3.299433291E-1,4.466948807E-1,1.050687432E-1
2.172138460E0,2.817613818E-2,4.989238083E-1,5.864302069E-2
2.188804398E0,-1.763872057E-1,3.987419903E-1,5.566505343E-2
2.205470335E0,-1.108719558E-1,2.696204484E-1,1.656970754E-2
2.222136273E0,-2.290742937E-3,6.436987966E-2,7.254019380E-3
2.238802210E0,3.474293277E-2,-1.748600416E-2,-9.689842910E-2
2.255468148E0,7.574722916E-2,-7.635809598E-4,-2.026543915E-1
2.272134085E0,-3.970621154E-2,8.315397054E-2,-2.602283955E-1
2.288800023E0,-2.698495090E-1,1.516471803E-1,-2.063195854E-1
2.305465960E0,-5.384773016E-1,-7.254019380E-3,-1.744782478E-1
2.322131898E0,-7.693078518E-1,-2.354883701E-1,-2.393826395E-1
2.338797835E0,-8.947641850E-1,-4.464657903E-1,-2.612210512E-1
2.355463773E0,-9.140827656E-1,-6.945532560E-1,-1.972329617E-1
2.372129710E0,-7.786235213E-1,-5.533671379E-1,-1.771507785E-2
2.388795648E0,-7.519745231E-1,-2.812268734E-1,2.063959390E-1
2.405461585E0,-7.652608752E-1,5.001455545E-2,1.618028134E-1
2.422127523E0,-6.470585465E-1,2.209039778E-1,7.696896046E-2
2.438793460E0,-9.185878932E-2,4.944950342E-1,1.006399691E-1
2.455459398E0,3.529271185E-1,5.265654325E-1,5.230529606E-2
2.472125335E0,4.109592736E-1,-1.855501719E-2,-6.230820715E-2
2.488791273E0,3.769799173E-1,-4.270708263E-1,-8.582650125E-2
2.505457210E0,2.791652083E-1,-7.279980779E-1,-1.851683855E-1
2.522123148E0,1.385899484E-1,-8.962913752E-1,-3.190241456E-1
2.538789085E0,-3.436114406E-3,-9.350812435E-1,-2.578612864E-1
2.555455023E0,-9.346231073E-2,-8.942296505E-1,-1.756236255E-1
2.572120960E0,-1.894444376E-1,-8.979712129E-1,-2.285397798E-1
2.588786898E0,-3.064250350E-1,-6.745474339E-1,-1.850920320E-1
2.605452835E0,-3.623955250E-1,-2.872591615E-1,-1.143844277E-1
2.622118773E0,-3.555232882E-1,9.842558950E-2,-2.000582218E-2
2.638784710E0,-3.382663727E-1,3.863719702E-1,1.275180187E-2
2.655450648E0,-3.685805500E-1,4.478402436E-1,1.473711245E-2
2.672116585E0,-4.906007648E-1,3.533089161E-1,-2.199113183E-2
2.688782523E0,-5.452731848E-1,1.961639524E-1,-1.214857325E-1
2.705448460E0,-5.249619484E-1,1.563813835E-1,-1.369864196E-1
2.722114398E0,-3.512472510E-1,7.918334752E-2,-1.671478748E-1
2.738780335E0,-1.700494885E-1,-1.908952445E-1,-1.514944583E-1
2.755446273E0,-4.245510325E-2,-1.160643101E-1,-4.253146052E-2
2.772112210E0,4.963276442E-3,-1.435532235E-2,8.071050793E-2
2.788778148E0,1.133154184E-1,-4.970912263E-2,8.994983882E-2
2.805444085E0,2.515235841E-1,-1.101847365E-1,6.650790572E-2
2.822110023E0,3.504836559E-1,1.139262840E-1,1.025489271E-1
2.838775960E0,4.001927972E-1,2.963457704E-1,1.882227063E-1
2.855441898E0,3.145953715E-1,1.886808574E-1,1.885281354E-1
2.872107835E0,1.437059343E-1,-3.894262947E-3,9.216422588E-2
2.888773773E0,-5.803215317E-3,-1.803578287E-1,-3.772090003E-2
2.905439710E0,-3.413207084E-2,-2.213621289E-1,-9.834922850E-2
2.922105648E0,1.049923822E-1,7.101302966E-3,5.948295817E-2
2.938771585E0,2.836703360E-1,2.886336148E-1,2.897789776E-1
2.955437523E0,3.549887836E-1,3.090975881E-1,3.526980579E-1
2.972103460E0,3.699549735E-1,1.641699113E-2,2.254854590E-1
2.988769398E0,3.475056887E-1,-3.706422150E-1,7.994692773E-2
3.005435335E0,2.680932879E-1,-5.868883133E-1,2.359465137E-2
3.022101273E0,9.483675659E-2,-4.710530937E-1,6.925679743E-2
3.038767210E0,4.741837829E-2,-2.236528695E-1,8.582650125E-2
3.055433148E0,1.372918636E-1,-1.563050300E-1,-4.871646687E-2
3.072099085E0,1.618791670E-1,-3.785834610E-1,-3.782016635E-1
3.088765023E0,9.369138628E-2,-6.363683939E-1,-5.484802127E-1
3.105430960E0,4.566214234E-2,-8.190932870E-1,-6.548470259E-1
3.122096898E0,9.850194305E-2,-8.673516512E-1,-7.342594862E-1
3.138762835E0,1.537088454E-1,-7.372374535E-1,-7.753401399E-1
3.155428773E0,2.550360560E-1,-3.686569035E-1,-7.213549614E-1
3.172094710E0,3.205513060E-1,-1.282816082E-1,-6.407971382E-1
3.188761667E0,1.752418280E-1,5.650499370E-3,-6.724094152E-1
3.205427604E0,-4.825831577E-2,1.000291109E-2,-7.287616730E-1
3.222093542E0,-2.871064544E-1,-7.559451461E-2,-7.651845217E-1
3.238759479E0,-4.521162808E-1,-1.514181048E-1,-7.380009890E-1
3.255425417E0,-3.987419903E-1,-1.970038861E-1,-6.356811523E-1
3.272091354E0,-2.721402645E-1,-2.764163017E-1,-5.152644515E-1
3.288757292E0,-1.786779463E-1,-3.925569654E-1,-4.193586707E-1
3.305423229E0,-1.184314117E-1,-4.709003866E-1,-4.088976085E-1
3.322089167E0,-1.048396677E-1,-5.179370046E-1,-3.367392123E-1
3.338755104E0,-1.932623386E-1,-5.771145225E-1,-2.250273079E-1
3.355421042E0,-2.656498253E-1,-6.126210093E-1,-1.777616441E-1
3.372086979E0,-2.269362658E-1,-5.803215504E-1,-2.109010667E-1
3.388752917E0,-1.405752599E-1,-5.002982616E-1,-1.760817766E-1
3.405418854E0,-1.066722646E-1,-3.968330324E-1,-6.780599058E-2
3.422084792E0,-1.669951528E-1,-3.094030023E-1,5.810851231E-2
3.438750729E0,-2.774089575E-1,-2.569449842E-1,1.687513888E-1
3.455416667E0,-3.336848915E-1,-2.525925934E-1,2.325104028E-1
3.472082604E0,-2.889390290E-1,-2.410625070E-1,3.297906220E-1
3.488748542E0,-1.652389169E-1,-2.880991101E-1,3.685041666E-1
3.505414479E0,-1.382081583E-2,-3.681223989E-1,3.201695085E-1
3.522080417E0,7.368556410E-2,-3.687332571E-1,3.067304790E-1
3.538746354E0,1.368337125E-1,-3.132972717E-1,3.601047993E-1
3.555412292E0,1.702785641E-1,-2.193768173E-1,3.462076187E-1
3.572078229E0,1.665370166E-1,-1.361464858E-1,3.346011937E-1
3.588744167E0,1.039233729E-1,-6.994401664E-2,3.588066995E-1
3.605410104E0,6.719512399E-3,-5.436696485E-2,3.800342381E-1
3.622076042E0,-6.513345987E-2,-8.345939964E-2,3.518581092E-1
3.638741979E0,-2.122755162E-2,-1.206457913E-1,2.726747692E-1
3.655407917E0,2.060141414E-1,-7.750347257E-2,2.256381810E-1
3.672073854E0,4.207331240E-1,-3.367391974E-2,2.326631248E-1
3.688739792E0,5.337430835E-1,7.200568914E-2,2.126573026E-1
3.705405729E0,5.655080676E-1,1.849393100E-1,1.611919403E-1
3.722071667E0,5.051851869E-1,2.386190593E-1,1.086575761E-1
3.738737604E0,2.943604589E-1,2.389244884E-1,5.910116807E-2
3.755403542E0,6.070468575E-2,1.543960720E-1,-1.099556591E-2
3.772069479E0,-9.155336022E-2,9.926552884E-4,-1.046105921E-1
3.788735417E0,-5.955931544E-2,-9.995274991E-2,-1.793651730E-1
3.805401354E0,1.246927753E-1,-8.750637621E-2,-2.189186662E-1
3.822067292E0,2.459494323E-1,-3.336848691E-2,-2.036470473E-1
3.838733229E0,2.675587833E-1,1.168278884E-2,-2.217439115E-1
3.855399167E0,2.554942071E-1,3.199404106E-2,-2.762635946E-1
3.872065104E0,1.472947747E-1,3.894263133E-2,-3.077231348E-1
3.888731042E0,-2.840521187E-2,1.863137633E-2,-3.118464649E-1
3.905396979E0,-1.311068535E-1,1.408806890E-1,-3.292561173E-1
3.922062917E0,-1.384372264E-1,2.387717664E-1,-2.806160152E-1
3.938728854E0,-9.804379940E-2,1.797469556E-1,-1.812741160E-1
3.955394792E0,-3.627009690E-2,-1.679878100E-3,-1.030070707E-1
3.972060729E0,2.260199748E-2,-1.388190240E-1,-8.544471115E-2
3.988726667E0,2.840521187E-2,-2.393826395E-1,-2.535088919E-2
4.005392604E0,-2.237292193E-2,-3.244455457E-1,7.765618712E-2
4.022058542E0,-9.033162892E-2,-3.094793558E-1,1.337793916E-1
4.038724479E0,-1.297324002E-1,-1.911243200E-1,1.621082425E-1
4.055390417E0,-1.314886510E-1,-1.188895553E-1,2.002872825E-1
4.072056354E0,-7.192932814E-2,-9.537126124E-2,2.102138400E-1
4.088722292E0,6.330086291E-2,-6.429351866E-2,1.829539984E-1
4.105388229E0,1.842520833E-1,-4.978547990E-2,2.164752036E-1
4.122054167E0,2.009745091E-1,-6.337722391E-2,2.741255760E-1
4.138720104E0,1.639408320E-1,-3.550651670E-2,3.156643808E-1
4.155386042E0,1.047633067E-1,1.145371469E-3,3.514763117E-1
4.172051979E0,7.727439702E-2,-3.558287397E-2,3.610974550E-1
4.188717917E0,8.826996386E-2,-1.272889525E-1,3.316232264E-1
4.205383854E0,1.002581790E-1,-1.454621702E-1,3.508654535E-1
4.222049792E0,1.036942974E-1,-1.375972927E-1,3.694204688E-1
4.238715729E0,5.513054505E-2,-1.459966749E-1,3.373500705E-1
4.255381667E0,-4.688387364E-2,-1.622609496E-1,3.308596313E-1
4.272047604E0,-1.308014244E-1,-1.599702090E-1,3.166570365E-1
4.288713542E0,-1.911243200E-1,-1.912770271E-1,2.789361179E-1
4.305379479E0,-2.386954129E-1,-2.530507445E-1,2.264781147E-1
4.322045417E0,-2.332739830E-1,-1.840993762E-1,1.524871141E-1
4.338711354E0,-2.153298408E-1,-6.368265301E-2,1.327867359E-1
4.355377292E0,-2.328922004E-1,-4.657844082E-2,1.524107605E-1
4.372043229E0,-2.225838602E-1,-1.394298822E-1,1.549305767E-1
4.388709167E0,-1.541669965E-1,-9.880737960E-2,1.150716543E-1
4.405375104E0,-1.235474050E-1,6.017018110E-2,1.143844277E-1
4.422041042E0,-2.014326602E-1,6.612611562E-2,1.612683088E-1
4.438706979E0,-2.718348205E-1,-7.651081681E-2,1.926514804E-1
4.455372917E0,-2.264017612E-1,-2.055560052E-1,1.762344837E-1
4.472038854E0,-1.936441362E-1,-2.153298408E-1,1.301141977E-1
4.488704792E0,-2.256381810E-1,-1.789833754E-1,1.067486182E-1
4.505370729E0,-2.851211429E-1,-1.054505333E-1,9.728021920E-2
4.522036667E0,-2.667951882E-1,-2.244928107E-2,9.659299254E-2
4.538702604E0,-1.391244531E-1,9.689842910E-2,1.052214578E-1
4.555368542E0,-9.231694043E-2,7.322741300E-2,1.010217592E-1
4.572034479E0,-1.310304999E-1,-2.008217946E-2,8.956804872E-2
4.588700417E0,-1.664606482E-1,-5.833758786E-2,7.712167501E-2
4.605366354E0,-2.034943253E-1,-3.634645417E-2,8.032871783E-2
4.622032292E0,-2.519053519E-1,-2.977965772E-2,1.088102907E-1
4.638698229E0,-2.950477004E-1,2.825249685E-3,1.216384470E-1
4.655364167E0,-3.042106628E-1,9.750928730E-2,1.527925581E-1
4.672030104E0,-3.373500705E-1,1.621082425E-1,2.040288299E-1
4.688696042E0,-3.605629504E-1,1.807396114E-1,2.457203567E-1
4.705361979E0,-3.536143601E-1,1.995237023E-1,2.784779668E-1
4.722027917E0,-3.454440236E-1,2.784779668E-1,3.443750143E-1
4.738693854E0,-3.301724195E-1,3.743837476E-1,4.591412544E-1
4.755359792E0,-2.506072819E-1,4.121810198E-1,6.674461365E-1
4.772025729E0,-1.154534444E-1,3.573558927E-1,8.684970140E-1
4.788691667E0,-7.643445581E-2,2.638935745E-1,9.126319885E-1
4.805357604E0,-2.323576957E-1,2.278525680E-1,8.042798638E-1
4.822023542E0,-5.406916738E-1,2.576322258E-1,6.390409470E-1
4.838689479E0,-7.053197622E-1,2.386190593E-1,5.130500793E-1
4.855355417E0,-5.637518167E-1,2.319758981E-1,4.751764536E-1
4.872021354E0,-2.293033600E-1,2.254854590E-1,4.937314689E-1
4.888687292E0,6.986765563E-2,1.845575273E-1,4.754818678E-1
4.905353229E0,1.681405306E-1,1.149189398E-1,4.236347377E-1
4.922019167E0,9.636391699E-2,1.660788655E-1,3.317759335E-1
4.938685104E0,-5.192350596E-2,3.520108163E-1,2.131154537E-1
4.955351042E0,-1.740200967E-1,5.637518167E-1,1.178968996E-1
4.972016979E0,-1.989128441E-1,7.773254514E-1,8.857539296E-2
4.988682917E0,-1.828012913E-1,9.446260333E-1,1.100320220E-1
5.005348854E0,-1.970802546E-1,9.820414782E-1,1.091920808E-1
5.022014792E0,-1.834121495E-1,8.743002415E-1,5.688678101E-2
5.038680729E0,-1.583666950E-1,6.258309484E-1,4.581485875E-3
5.055346667E0,-1.198822111E-1,3.353647590E-1,1.740964688E-2
5.072012604E0,-9.812015295E-2,1.515708268E-1,4.092793912E-2
5.088678542E0,-1.549305767E-1,-2.748891525E-2,3.817904741E-2
5.105344479E0,-3.197113574E-1,-2.585485280E-1,-3.008509055E-2
5.122010417E0,-5.248091817E-1,-6.014727354E-1,-1.710421443E-1
5.138676354E0,-7.583122849E-1,-1.029841661E0,-3.670533597E-1
5.155342292E0,-1.054199934E0,-1.410639524E0,-4.954876900E-1
5.172008229E0,-1.485394120E0,-1.637346625E0,-4.987711012E-1
5.188674167E0,-1.889633894E0,-1.755167246E0,-4.875464439E-1
5.205340104E0,-2.157192707E0,-1.834656000E0,-5.484802127E-1
5.222006042E0,-2.486448765E0,-1.832594395E0,-6.091849208E-1
5.238671979E0,-2.962465048E0,-1.730885386E0,-6.162098646E-1
5.255337917E0,-2.969642878E0,-1.377423763E0,-6.145299673E-1
5.272003854E0,-2.295018911E0,-1.065348148E0,-4.413498044E-1
5.288669792E0,-1.947971463E0,-1.678198218E0,-4.240165055E-1
5.305335729E0,-2.436357737E0,-3.348455191E0,-7.254782915E-1
5.322001667E0,-3.238957882E0,-4.039801598E0,-1.019762397E0
5.338667604E0,-3.381212950E0,-2.854571104E0,-1.096425891E0
5.355333542E0,-2.674136877E0,-8.168025613E-1,-9.308815598E-1
5.371999479E0,-1.951865673E0,7.927497625E-1,-7.037162185E-1
5.388665417E0,-1.433776021E0,1.341230035E0,-5.353466272E-1
5.405331354E0,-5.404626131E-1,7.580831647E-1,-2.974147797E-1
5.421997292E0,7.877101302E-1,-2.364046723E-1,-3.665188793E-3
5.438663229E0,1.952934742E0,-9.032399058E-1,2.099084109E-1
5.455329167E0,2.346560717E0,-7.883210182E-1,2.850447893E-1
5.471995104E0,2.121533394E0,2.517526448E-1,-4.795288667E-2
5.488661042E0,1.567402720E0,1.792735457E0,-6.682860851E-1
5.505326979E0,1.270827770E0,2.810283422E0,-1.050840139E0
5.521992917E0,2.029445410E0,3.069748163E0,-8.464295268E-1
5.538658854E0,3.536983490E0,2.908785343E0,-4.046215713E-1
5.555324792E0,5.081631184E0,2.067777395E0,-1.828776449E-1
5.571990729E0,7.039605618E0,1.396971345E0,-5.322923064E-1
5.588656667E0,9.087835312E0,1.858937860E0,-1.773798585E0
5.605322604E0,9.828814507E0,3.247967958E0,-2.823416948E0
5.621988542E0,8.765146255E0,4.351800919E0,-2.650542259E0
5.638654479E0,7.196674347E0,3.705582142E0,-1.741728187E0
5.655320417E0,6.182944298E0,1.517235398E0,-5.971966982E-1
5.671986354E0,6.062985420E0,-8.211549520E-1,4.218784869E-1
5.688652292E0,6.008542538E0,-2.066555500E0,1.176601887E0
5.705318229E0,5.160509109E0,-2.309526920E0,1.573053122E0
5.721984167E0,3.936107159E0,-1.867413640E0,1.537928462E0
5.738650104E0,2.822653532E0,-9.908990264E-1,1.168126225E0
5.755316042E0,1.738597512E0,-3.306305781E-2,1.014188290E0
5.771981979E0,3.697259128E-1,1.111315727E0,1.247462273E0
5.788647917E0,-1.305418015E0,1.969122648E0,1.760054111E0
5.805313854E0,-2.894124508E0,2.010203362E0,2.095113516E0
5.821979792E0,-3.936107159E0,1.536095858E0,2.005469084E0
5.838645729E0,-4.488863468E0,1.052290916E0,1.909868717E0
5.855311667E0,-4.670825005E0,1.346575022E0,2.077398300E0
5.871977604E0,-5.054371357E0,1.607261539E0,2.402836561E0
5.888643542E0,-6.224330425E0,5.044215918E-1,2.415588379E0
5.905309479E0,-7.697354317E0,-2.036546707E0,1.773264050E0
5.921975417E0,-7.506153584E0,-3.858909130E0,9.786053896E-1
5.938641354E0,-5.238852501E0,-2.164294004E0,6.291907430E-1
5.955307292E0,-3.341888428E0,1.008690447E-1,4.253909588E-1
5.971973229E0,-2.370460749E0,4.826595485E-1,-1.718057133E-2
5.988639167E0,-1.999055028E0,-1.938732117E-1,-3.650680780E-1
6.005305104E0,-1.959119678E0,-1.077870846E0,-4.827359021E-1
6.021971042E0,-1.944382548E0,-1.582597971E0,-7.179188132E-1
6.038636979E0,-1.748371363E0,-1.374598503E0,-1.164842725E0
6.055302917E0,-1.335808516E0,-5.572614074E-1,-1.550069332E0
6.071968854E0,-8.714749813E-1,7.101303339E-2,-1.776242018E0
6.088634792E0,-5.150353909E-1,3.843866587E-1,-1.848476768E0
6.105300729E0,-3.872882724E-1,5.590940118E-1,-1.871460557E0
6.121966667E0,-6.110175252E-1,6.487383842E-1,-1.911548615E0
6.138632604E0,-8.184824586E-1,7.637336850E-1,-1.877340198E0
6.155298542E0,-2.716821134E-1,1.066646218E0,-1.633528829E0
6.171964479E0,1.099632978E0,1.933768868E0,-1.239215612E0
6.188630417E0,2.549978733E0,2.945131779E0,-8.903354406E-1
6.205296354E0,3.153894901E0,3.693670273E0,-6.560688019E-1
6.221962292E0,3.565083265E0,3.790874004E0,-7.655662894E-1
6.238628229E0,4.932809353E0,3.367086649E0,-8.853721619E-1
6.255294167E0,6.436223984E0,2.258825302E0,-4.198168218E-1
6.271960104E0,7.163382053E0,9.632573724E-1,1.009454057E-1
6.288626042E0,7.014407635E0,8.474985361E-1,-3.535379842E-2
6.305291979E0,6.062374592E0,1.333899617E0,-5.025889874E-1
6.321957917E0,4.701138973E0,1.559919596E0,-5.596284866E-1
6.338623854E0,3.447262764E0,1.558010578E0,-1.873827726E-1
6.355289792E0,2.802723885E0,1.074892879E0,3.393353820E-1
6.371955729E0,2.718501091E0,2.427423894E-1,9.328668714E-1
6.388621667E0,2.767981052E0,-4.741074145E-1,1.319926023E0
6.405287604E0,2.739881277E0,-8.400917649E-1,1.541364551E0
6.421953542E0,2.421849728E0,-7.179951668E-1,1.759137869E0
6.438619479E0,1.587255716E0,-2.741255760E-1,1.977369308E0
6.455285417E0,2.913061380E-1,2.079230994E-1,2.170402527E0
6.471951354E0,-1.178205490E0,3.465130329E-1,2.229732752E0
6.488617292E0,-2.419940710E0,-1.878409274E-2,2.081063509E0
6.505283229E0,-3.218875647E0,-4.042397738E-1,1.923613191E0
6.521949167E0,-3.649535179E0,-5.371028781E-1,1.892764568E0
6.538615104E0,-3.900982380E0,-3.378082216E-1,1.898033261E0
6.555281042E0,-4.168922901E0,2.160934210E-1,1.704083681E0
6.571946979E0,-4.619130611E0,8.407790065E-1,1.257617831E0
6.588612917E0,-5.115992546E0,1.108872294E0,7.139481902E-1
6.605278854E0,-5.273061275E0,3.892735839E-1,9.590577334E-2
6.621944792E0,-5.584220409E0,-1.193324327E0,-3.668242991E-1
6.638610729E0,-5.383933067E0,-2.805396557E0,-5.816196203E-1
6.655276667E0,-3.765370607E0,-2.097251415E0,-1.077641845E0
6.671942604E0,-2.488739491E0,6.826414168E-2,-1.873904109E0
6.688608542E0,-2.575176954E0,1.256548882E0,-2.311054230E0
6.705274479E0,-2.890841246E0,8.762855530E-1,-2.304105520E0
6.721940417E0,-2.484081507E0,-5.618428588E-1,-1.921856999E0
6.738606354E0,-1.486921191E0,-2.200640440E0,-1.332143426E0
6.755272292E0,-3.174969554E-1,-2.878165722E0,-6.972258091E-1
6.771938229E0,1.330921650E-1,-2.284786940E0,-3.018435538E-1
6.788604167E0,-5.032762289E-1,-9.085086584E-1,-3.656025827E-1
6.805270104E0,-1.623220444E0,5.150353909E-1,-6.206386089E-1
6.821936042E0,-2.283488989E0,1.351385593E0,-8.721621633E-1
6.838601979E0,-1.684917808E0,1.246775031E0,-8.885791898E-1
6.855267917E0,4.576140642E-1,9.985348582E-1,-3.327685893E-1
6.871933854E0,3.038441420E0,1.556941628E0,4.997637570E-1
6.888599792E0,4.382649422E0,2.507218122E0,7.245619893E-1
6.905265729E0,4.032089233E0,3.137248755E0,1.204167232E-1
6.921931667E0,3.207498312E0,3.530569315E0,-4.929678738E-1
6.938597604E0,3.611967087E0,3.399691582E0,-4.988474548E-1
6.955263542E0,5.482358456E0,2.567464590E0,-1.020144150E-1
6.971929479E0,7.128562927E0,9.103412628E-1,3.266599476E-1
6.988595417E0,7.289372921E0,-3.844630122E-1,3.130682111E-1
7.005261354E0,6.395296097E0,2.787834108E-1,-4.298197329E-1
7.021927292E0,4.996950150E0,1.841604590E0,-1.144226074E0
7.038593229E0,3.545611858E0,2.618013620E0,-1.149571180E0
7.055259167E0,2.461097956E0,2.271042585E0,-7.070759535E-1
7.071925104E0,2.184681416E0,1.100167513E0,-2.718348242E-2
7.088591042E0,2.626183987E0,-1.414151937E-1,8.071814775E-1
7.105256979E0,3.334481716E0,-8.040507436E-1,1.519449830E0
7.121922917E0,3.700618744E0,-8.545998335E-1,1.976452947E0
7.138588854E0,2.900996923E0,-4.986947477E-1,2.141310215E0
7.155254792E0,9.046143889E-1,1.404225379E-1,2.113363028E0
7.171920729E0,-1.618409872E0,4.606684148E-1,2.019442558E0
7.188586667E0,-3.767584801E0,1.912770271E-1,1.879554510E0
7.205252604E0,-4.917995930E0,-3.285689056E-1,2.002567530E0
7.221918542E0,-5.069719315E0,-7.945060134E-1,2.475911379E0
7.238584479E0,-4.736416340E0,-7.631992102E-1,3.071580887E0
7.255250417E0,-4.662578106E0,-3.449095190E-1,3.065777540E0
7.271916354E0,-5.412338257E0,-6.368265301E-2,2.536310673E0
7.288582292E0,-6.964316845E0,-4.549415410E-1,2.068464518E0
7.305248229E0,-8.057382584E0,-1.697822332E0,1.724700332E0
7.321914167E0,-7.587704182E0,-2.244164467E0,1.077718139E0
7.338580104E0,-6.291372776E0,-1.068631530E0,4.002691507E-1
7.355246042E0,-5.397219181E0,7.357102633E-1,-6.500364542E-1
7.371911979E0,-4.857596874E0,1.474780321E0,-1.646127820E0
7.388577917E0,-3.952371597E0,1.024496555E0,-2.009057999E0
7.405243854E0,-2.506989002E0,-3.642281145E-2,-1.745927930E0
7.421909792E0,-1.096731305E0,-1.067104459E0,-1.190575480E0
7.438575729E0,-2.111301422E-1,-1.383685112E0,-6.368265152E-1
7.455241667E0,1.527161920E-3,-1.163697362E0,-5.441278219E-1
7.471907604E0,-1.803578287E-1,-6.003273726E-1,-8.514691591E-1
7.488573542E0,-5.816959739E-1,2.012035847E-1,-1.330539823E0
7.505239479E0,-6.294198036E-1,9.783763289E-1,-1.835954070E0
7.521905417E0,5.088503361E-1,1.791208267E0,-1.930867195E0
7.538571354E0,2.701702118E0,2.806389093E0,-1.525405765E0
7.555237292E0,4.580951214E0,3.292179346E0,-1.151861906E0
7.571903229E0,5.620184898E0,3.024773359E0,-1.197829485E0
7.588569167E0,6.426526546E0,2.569984436E0,-1.331837893E0
7.605235104E0,7.400779724E0,1.599243999E0,-1.499825716E0
7.621901042E0,8.102891922E0,6.656135321E-1,-1.272965789E0
7.638566979E0,7.820825577E0,1.066798925E0,-1.050229311E0
7.655232917E0,6.454779148E0,2.096946001E0,-1.483179688E0
7.671898854E0,4.914636135E0,2.666119337E0,-1.610468626E0
7.688564792E0,4.014221668E0,2.383136272E0,-9.401972294E-1
7.705230729E0,3.976653337E0,1.332830548E0,4.130209386E-1
7.721896667E0,4.345921040E0,7.399099320E-2,1.688277483E0
7.738562604E0,4.223977089E0,-7.404444814E-1,2.307083607E0
7.755228542E0,2.946277142E0,-8.397863507E-1,2.462090492E0
7.771894479E0,9.061415195E-1,-2.651153207E-1,2.567693710E0
7.788560417E0,-1.373300433E0,5.971203446E-1,3.000338793E0
7.805226354E0,-3.292103052E0,8.133664727E-1,3.870057344E0
7.821892292E0,-4.165028572E0,6.414080411E-2,4.561708927E0
7.838558229E0,-4.090961456E0,-7.089849114E-1,4.801931858E0
7.855224167E0,-4.205727577E0,-5.635227561E-1,4.847364902E0
7.871890104E0,-4.871646404E0,5.886445642E-1,4.793303013E0
7.888556042E0,-5.979831696E0,1.847942352E0,4.220312119E0
7.905221979E0,-7.421778202E0,1.882379770E0,3.327456713E0
7.921887917E0,-8.765832901E0,-2.362519503E-1,2.593197346E0
7.938553854E0,-8.089147568E0,-2.106796265E0,2.088241339E0
7.955219792E0,-5.734874725E0,-5.251146555E-1,1.303127289E0
7.971885729E0,-4.055760384E0,1.839771986E0,-1.446985900E-1
7.988551667E0,-3.574856997E0,2.838077784E0,-1.391549945E0
8.005217604E0,-3.217119455E0,2.470871687E0,-1.792277217E0
8.021883542E0,-2.110079765E0,1.102305532E0,-1.607490659E0
8.038549479E0,-6.252964735E-1,-4.903717041E-1,-1.210275888E0
8.055215417E0,3.632354736E-1,-1.380096197E0,-8.659771681E-1
8.071881354E0,3.785834610E-1,-1.206686974E0,-9.952514172E-1
8.088547292E0,-4.860192835E-1,-2.780198455E-1,-1.750738502E0
8.105213229E0,-1.767613649E0,4.487565458E-1,-2.690553904E0
8.121879167E0,-2.256916285E0,5.986474752E-1,-3.130071163E0
8.138545104E0,-9.241620302E-1,9.372956753E-1,-2.705214739E0
8.155211042E0,1.609934092E0,1.926972985E0,-1.786015868E0
8.171876979E0,3.556989193E0,2.933525324E0,-1.319697022E0
8.188542917E0,3.906862020E0,3.544313908E0,-1.834579706E0
8.205208854E0,3.673206329E0,3.956723928E0,-2.447047949E0
8.221874792E0,4.788645267E0,3.815003157E0,-2.349996805E0
8.238540729E0,7.443922043E0,2.480798244E0,-1.446069598E0
8.255206667E0,8.799201965E0,6.968439817E-1,-6.864593029E-1
8.271872604E0,8.413822174E0,8.340594769E-1,-1.111086726E0
8.288538542E0,6.768076420E0,2.169104576E0,-1.930027246E0
8.305204479E0,5.188838005E0,2.608087063E0,-1.673922181E0
8.321870417E0,4.847517490E0,1.782579780E0,-7.279217243E-1
8.338536354E0,5.335292816E0,2.244164497E-1,3.395644724E-1
8.355202292E0,6.000371933E0,-1.253570914E0,1.176220179E0
8.371868229E0,5.960207462E0,-1.728289127E0,1.343902469E0
8.388534167E0,4.490619659E0,-9.932661057E-1,1.070845962E0
8.405200104E0,1.676671147E0,4.508182108E-1,8.589522243E-1
8.421866042E0,-1.659796000E0,1.602603793E0,1.078634501E0
8.438531979E0,-4.223595619E0,1.160490394E0,1.660864949E0
8.455197917E0,-4.781162262E0,-2.282343507E-1,2.456134558E0
8.471863854E0,-3.940994024E0,-1.133001447E0,3.462992430E0
8.488529792E0,-3.943513870E0,-1.027703643E0,4.547659397E0
8.505195729E0,-5.327580929E0,-1.078939885E-1,5.209301949E0
8.521861667E0,-6.402320862E0,5.381718874E-1,4.958312988E0
8.538527604E0,-7.266007423E0,1.488219351E-1,4.291630745E0
8.555193542E0,-8.377780914E0,-8.295543790E-1,4.131278515E0
8.571859479E0,-8.858837128E0,-2.091677427E0,4.243677616E0
8.588525417E0,-7.468585491E0,-1.541669965E0,3.411603451E0
8.605191354E0,-5.992201805E0,6.232348084E-1,1.460425019E0
8.621857292E0,-5.840249062E0,2.154825449E0,-2.645808160E-1
8.638523229E0,-5.209836483E0,2.195066214E0,-1.114980936E0
8.655189167E0,-3.679009438E0,1.254258156E0,-1.293277144E0
8.671855104E0,-2.297309637E0,1.558468789E-1,-1.074358463E0
8.688521042E0,-1.537470341E0,-5.600866675E-1,-1.031445146E0
8.705186979E0,-1.496007800E0,-1.096578598E0,-1.572442293E0
8.721852917E0,-2.010814190E0,-1.218522549E0,-2.525467634E0
8.738518854E0,-1.840230107E0,-7.498365045E-1,-3.181383848E0
8.755184792E0,5.940660089E-2,7.432697415E-1,-3.003316641E0
8.771850729E0,2.320446253E0,2.350225925E0,-2.416733742E0
8.788516667E0,3.969857454E0,3.320431948E0,-2.271195173E0
8.805182604E0,4.804604053E0,3.564319611E0,-2.409479856E0
8.821848542E0,5.671192169E0,3.292943001E0,-2.386496067E0
8.838514479E0,7.372450829E0,2.855334759E0,-2.320217133E0
8.855180417E0,8.706121445E0,2.165591955E0,-2.233703375E0
8.871846354E0,8.800576210E0,1.439197421E0,-2.226296663E0
8.888512292E0,7.795092583E0,1.879249096E0,-2.726213217E0
8.905178229E0,6.618566990E0,2.897331715E0,-3.301953316E0
8.921844167E0,6.280377388E0,3.370293617E0,-3.011181593E0
8.938510104E0,6.474021435E0,2.271958828E0,-1.803349137E0
8.955176042E0,6.853063107E0,3.003927469E-1,-5.067123175E-1
8.971841979E0,6.993561745E0,-1.034117699E0,9.132428467E-2
8.988507917E0,5.776413918E0,-9.854012728E-1,6.543888897E-2
9.005173854E0,3.066846609E0,9.117157012E-2,-5.497783050E-2
9.021839792E0,-5.604684353E-2,1.305876136E0,1.253036410E-1
9.038505729E0,-2.576704025E0,1.522504091E0,6.335431337E-1
9.055171667E0,-4.012465477E0,4.780780375E-1,1.283808708E0
9.071837604E0,-4.439612389E0,-7.259364128E-1,2.118555307E0
9.088503542E0,-4.418995857E0,-1.078405380E0,2.968955517E0
9.105169479E0,-4.762225628E0,-6.596575975E-1,3.409999847E0
9.121835417E0,-6.332529545E0,-4.517345130E-1,2.782565355E0
9.138501354E0,-9.651281357E0,-1.160184979E0,1.329699874E0
9.155167292E0,-1.186055088E1,-1.758145213E0,5.077813268E-1
9.171833229E0,-9.751311302E0,-1.005330682E0,8.599448800E-1
9.188499167E0,-5.734263897E0,-5.417606831E-1,9.001092315E-1
9.205165104E0,-2.298531532E0,3.245982826E-1,1.041982651E0
9.221831042E0,-9.686788321E-1,2.099236727E0,1.385212302E0
9.238496979E0,-1.037706494E0,2.916421175E0,1.416137218E0
9.255162917E0,-7.628173828E-1,2.065257549E0,1.184161425E0
9.271828854E0,3.094793558E-1,1.137735620E-1,1.127503633E0
9.288494792E0,2.033187151E0,-1.507843375E0,1.234099627E0
9.305160729E0,4.023002625E0,-1.931783557E0,9.336304665E-1
9.321826667E0,5.681195259E0,-7.609847784E-1,1.420260668E-1
9.338492604E0,6.358949661E0,6.481275558E-1,-3.486510813E-1
9.355158542E0,6.147056103E0,1.371391416E0,-5.104538798E-1
9.371824479E0,4.758865833E0,4.047742784E-1,-4.909825623E-1
9.388490417E0,2.722318888E0,-2.588386774E0,-6.426297426E-1
9.405156354E0,2.442924500E0,-4.138990879E0,-1.184314132E0
9.421822292E0,4.381580353E0,-1.536477685E0,-1.687208533E0
9.438488229E0,5.737623692E0,1.651778340E0,-1.949880362E0
9.455154167E0,5.077126026E0,2.720104456E0,-1.719049811E0
9.471820104E0,3.910756350E0,1.611766696E0,-1.061224818E0
9.488486042E0,3.260338068E0,-3.067304790E-1,-3.191768527E-1
9.505151979E0,2.304869175E0,-1.451949239E0,5.879573524E-2
9.521817917E0,2.839757502E-1,-1.247080445E0,8.521563560E-2
9.538483854E0,-2.601520300E0,-2.671769857E-1,1.519526169E-2
9.555149792E0,-4.961825371E0,-3.912588954E-1,4.902189970E-2
9.571815729E0,-4.749549866E0,-1.468595266E0,4.306596816E-1
9.588481667E0,-2.937725067E0,-1.411784887E0,1.136284828E0
9.605147604E0,-1.837328553E0,1.103374511E-1,2.008370638E0
9.621813542E0,-2.183688879E0,1.046105981E0,2.555705547E0
9.638479479E0,-2.656727314E0,1.023274899E0,2.521726131E0
9.655145417E0,-2.375347614E0,1.369635224E0,2.531728983E0
9.671811354E0,-1.775783896E0,2.091142893E0,3.002094984E0
9.688477292E0,-1.170416951E0,2.061210394E0,3.473453522E0
9.705143229E0,-5.013672709E-1,7.183006406E-1,2.823187828E0
9.721809167E0,2.267835438E-1,-1.240819097E-1,1.425300241E0
9.738475104E0,3.227656782E-1,1.200807452E0,7.063887715E-1
9.755141042E0,-1.818086356E-1,2.946659088E0,5.272526741E-1
9.771806979E0,-5.654317141E-1,2.604880095E0,5.132791400E-1
9.788472917E0,2.133445293E-1,4.352411628E-1,8.249728680E-1
9.805138854E0,2.083965302E0,-8.268054724E-1,1.353676319E0
9.821804792E0,3.853716850E0,-3.895026445E-1,1.839008451E0
9.838470729E0,4.163119793E0,1.192331672E0,1.908494234E0
9.855136667E0,3.109454393E0,2.707429171E0,1.634292364E0
9.871802604E0,1.130710721E0,2.109697819E0,1.031216145E0
9.888468542E0,-1.456301689E0,-2.535547018E0,7.536543906E-2
9.905134479E0,-1.370398760E0,-4.754818916E0,1.910479665E-1
9.921800417E0,2.287154198E0,1.727220118E-1,1.060232162E0
9.938466354E0,3.229413033E0,4.360276222E0,1.015180945E0
9.955132292E0,8.475748897E-1,5.145848751E0,8.697187304E-1
9.971798229E0,-8.150463104E-1,3.449782372E0,9.957859516E-1
9.988464167E0,-5.509236455E-1,8.675043583E-1,1.535714030E0
1.000513010E1,5.419898033E-1,-2.496146262E-1,2.440022945E0
1.002179604E1,1.937663078E0,8.500183225E-1,3.396102667E0
1.003846198E1,2.946735382E0,2.526918411E0,3.782321930E0
1.005512792E1,3.157560110E0,3.575162411E0,3.520261049E0
1.007179385E1,3.434205532E0,3.735438108E0,2.934212685E0
1.008845979E1,3.358305454E0,2.418031931E0,2.642295599E0
1.010512573E1,2.159025192E0,-8.277217746E-1,2.637332439E0
1.012179167E1,9.639446139E-1,-4.074162483E0,2.060828686E0
1.013845760E1,8.721621633E-1,-4.229551315E0,1.022358537E0
1.015512354E1,1.022663951E0,-8.468112946E-1,-1.979965419E-1
1.017178948E1,6.583595276E-1,1.475009322E0,-1.230892539E0
1.018845542E1,7.305942774E-1,1.788764834E0,-1.422856808E0
1.020512135E1,1.485088587E0,1.100778341E0,-6.853139400E-1
1.022178729E1,2.629620075E0,4.943423271E-1,2.488510460E-1
1.023845323E1,3.725282431E0,4.250855148E-1,9.686024785E-1
1.025511917E1,4.254444122E0,7.945060134E-1,1.306639791E0
1.027178510E1,3.809810877E0,9.708168507E-1,1.125518322E0
1.028845104E1,2.792262793E0,8.093958497E-1,1.026100159E0
1.030511698E1,1.997375131E0,6.553815603E-1,1.176754594E0
1.032178292E1,1.879172802E0,7.903826833E-1,1.500742078E0
1.033844885E1,2.234772444E0,1.555948973E0,2.000582218E0
1.035511479E1,2.599153280E0,3.084256172E0,2.334343433E0
1.037178073E1,2.438343048E0,4.659218311E0,2.146502495E0
1.038844667E1,1.737757564E0,5.189907074E0,1.969046235E0
1.040511260E1,1.161483049E0,3.738797903E0,2.168646336E0
1.042177854E1,1.563279271E0,1.286175847E0,2.480416536E0
1.043844448E1,3.129918337E0,1.963930279E-1,2.544633627E0
1.045511042E1,4.101040840E0,8.199332356E-1,2.061134100E0
1.047177635E1,3.459632635E0,1.483943224E0,1.141935349E0
1.048844229E1,2.561356068E0,1.812512159E0,3.069595434E-2
1.050510823E1,1.890168309E0,2.007912636E0,-5.194641352E-1
1.052177417E1,1.561141253E0,1.858250618E0,-4.795288444E-1
1.053844010E1,1.587332129E0,1.317482591E0,-1.812741160E-1
1.055510604E1,1.717980862E0,5.395463109E-1,2.302960157E-1
1.057177198E1,1.728747368E0,-2.760345340E-1,6.208676696E-1
1.058843792E1,1.483332396E0,-8.715513349E-1,9.397391081E-1
1.060510385E1,9.914335608E-1,-1.296484113E0,1.318169832E0
1.062176979E1,4.103484154E-1,-1.646509647E0,1.862373948E0
1.063843573E1,-5.673406646E-2,-1.755701780E0,2.409556150E0
1.065510167E1,-5.134318471E-1,-1.626885653E0,2.823416948E0
1.067176760E1,-1.202563643E0,-1.221958637E0,3.064555883E0
1.068843354E1,-2.442084789E0,-4.752528071E-1,3.125413179E0
1.070509948E1,-3.900753498E0,-1.986074150E-1,3.122740746E0
1.072176542E1,-4.842706680E0,-1.532659769E0,3.475057125E0
1.073843135E1,-4.906313419E0,-3.866544962E0,3.953364134E0
1.075509729E1,-3.733834505E0,-4.024147987E0,4.036136150E0
1.077176323E1,-2.985525370E0,-1.047709465E0,3.371210098E0
1.078842917E1,-2.793179274E0,2.067166328E0,2.405127287E0
1.080509510E1,-1.948353171E0,2.853578568E0,1.624671221E0
1.082176104E1,-8.457422853E-1,1.472489595E0,1.021595001E0
1.083842698E1,1.249218509E-1,-2.730565667E-1,6.664534807E-1
1.085509292E1,1.647655010E0,-1.119715095E0,7.632755637E-1
1.087175885E1,3.495902777E0,-7.092140317E-1,6.730966568E-1
1.088842479E1,4.107454777E0,9.251546860E-1,1.219438836E-1
1.090509073E1,3.911290884E0,2.851593256E0,-4.576904476E-1
1.092175667E1,4.545139313E0,3.443215609E0,-8.051961660E-1
1.093842260E1,6.804040909E0,2.530812740E0,-8.404735923E-1
1.095508854E1,1.013836956E1,1.557781577E0,-9.298889041E-1
1.097175448E1,1.209527493E1,1.022434905E-1,-1.422245979E0
1.098842042E1,1.118386555E1,-7.887791395E-1,-2.003330946E0
1.100508635E1,9.387769699E0,-8.527672291E-1,-2.446742535E0
1.102175229E1,7.533795357E0,-8.530726433E-1,-2.585408926E0
1.103841823E1,5.942721844E0,-9.825760126E-1,-2.007225275E0
1.105508417E1,4.839728832E0,-8.093958497E-1,-1.179579854E0
1.107175010E1,3.303709507E0,-8.285617232E-1,-6.053670049E-1
1.108841604E1,1.357570648E0,-7.048615813E-1,2.098320574E-1
1.110508198E1,-1.707367003E-1,1.003345400E-1,1.212184787E0
1.112174792E1,-1.622151375E0,1.634597778E0,2.380616426E0
1.113841385E1,-3.933740139E0,3.197800875E0,3.869981050E0
1.115507979E1,-6.795565128E0,3.869370222E0,5.612778187E0
1.117174573E1,-8.660840988E0,2.839146852E0,6.929497242E0
1.118841167E1,-8.598914146E0,5.005273223E-1,7.214007378E0
1.120507760E1,-8.524999619E0,-1.446985960E0,6.195314407E0
1.122174354E1,-1.170019817E1,-1.334968567E0,4.895928383E0
1.123840948E1,-1.524527550E1,6.747764945E-1,3.670381069E0
1.125507542E1,-1.274088287E1,4.980838597E-1,2.685208797E0
1.127174135E1,-6.024348259E0,-2.799058676E0,3.382052898E0
1.128840729E1,-1.084437728E0,-3.800953388E0,4.101193428E0
1.130507323E1,4.052324295E-1,-1.325194836E0,3.300196886E0
1.132173917E1,4.329504073E-2,1.534874082E0,8.968258500E-1
1.133840510E1,5.847502947E-1,2.601978540E0,-2.270508051E0
1.135507104E1,1.320842385E0,2.012952089E0,-5.011229038E0
1.137173698E1,8.833868504E-1,1.226692796E0,-6.488911152E0
1.138840292E1,4.705185890E-1,1.648876786E0,-6.616963863E0
1.140506885E1,2.247066021E0,3.776060581E0,-5.704560757E0
1.142173479E1,4.762912750E0,5.322693825E0,-4.195190430E0
1.143840073E1,7.810059071E0,5.091863155E0,-2.696280718E0
1.145506667E1,1.146692467E1,4.673955441E0,-1.746767879E0
1.147173260E1,1.365970039E1,3.748877048E0,-2.209421635E0
1.148839854E1,1.391626358E1,2.674213171E0,-2.996597290E0
1.150506448E1,1.326164532E1,1.844124436E0,-2.684674263E0
1.152173042E1,1.210856152E1,1.440877318E-1,-1.597334981E0
1.153839635E1,1.043998432E1,-1.403461814E0,-1.260672212E-1
1.155506229E1,8.678326607E0,-1.943237185E0,1.462944746E0
1.157172823E1,5.986169338E0,-1.859166980E0,1.747378707E0
1.158839417E1,2.472093344E0,-1.729281783E0,9.349285364E-1
1.160506010E1,-3.313941509E-2,-7.525090575E-1,8.007673621E-1
1.162172604E1,-2.266232014E0,1.057254195E0,2.669937134E0
1.163839198E1,-4.288805485E0,2.163759470E0,4.776198864E0
1.165505792E1,-6.888340473E0,3.384114504E0,5.681576729E0
1.167172385E1,-9.953125000E0,3.721617222E0,6.222497940E0
1.168838979E1,-1.052817822E1,3.066846609E0,6.306568146E0
1.170505573E1,-1.114240265E1,2.868315458E0,6.011978626E0
1.172172167E1,-1.456622314E1,2.782870770E0,5.460902214E0
1.173838760E1,-1.624839211E1,1.998138666E0,3.902967691E0
1.175505354E1,-1.333708668E1,-1.308701396E0,1.851836562E0
1.177171948E1,-7.924290657E0,-3.347080946E0,2.018450022E0
1.178838542E1,-3.335932493E0,-5.801688433E-1,3.225824118E0
1.180505135E1,-1.530903459E0,2.772104263E0,3.047222614E0
1.182171729E1,-1.964312077E0,3.579438448E0,8.486438990E-1
1.183838323E1,-1.742873549E0,2.456058264E0,-1.294269800E0
1.185504917E1,-1.600465775E-1,1.032208800E0,-2.082056284E0
1.187171510E1,1.554345489E0,3.798051775E-1,-2.714530468E0
1.188838104E1,9.005674124E-1,2.779434621E-1,-4.065305233E0
1.190504698E1,-5.827649832E-1,5.690969229E-1,-5.146612167E0
1.192171292E1,-3.840812296E-2,1.825798512E0,-4.503906250E0
1.193837885E1,3.705505848E0,2.902065754E0,-2.795622587E0
1.195504479E1,8.825545311E0,3.506821871E0,-1.970726132E0
1.197171073E1,1.188475609E1,4.473591805E0,-3.112127066E0
1.198837667E1,1.207389545E1,5.413789272E0,-4.274144650E0
1.200504260E1,1.202410984E1,6.308705807E0,-4.149833679E0
1.202170854E1,1.288130569E1,5.530387878E0,-3.156643629E0
1.203837448E1,1.386907387E1,2.737895966E0,-1.032285094E0
1.205504042E1,1.416610718E1,-1.712864876E0,1.771278739E0
1.207170635E1,1.255808163E1,-4.850800991E0,3.663661480E0
1.208837229E1,8.919466019E0,-5.748237610E0,3.037601471E0
1.210503823E1,4.194884777E0,-4.484358311E0,1.224249363E0
1.212170417E1,4.428769648E-1,-1.315955400E0,1.523344070E-1
1.213837010E1,-2.742401123E0,1.850003958E0,6.882155538E-1
1.215503604E1,-5.463880062E0,3.776747942E0,2.143830061E0
1.217170198E1,-7.710411549E0,4.081645966E0,3.742157698E0
1.218836792E1,-9.277279854E0,2.553872824E0,5.297724724E0
1.220503385E1,-9.224822044E0,1.443397164E0,6.516705513E0
1.222169979E1,-9.342641830E0,2.148946047E0,6.680570126E0
1.223836573E1,-1.267391682E1,3.682522058E0,4.968850613E0
1.225503167E1,-1.443320751E1,3.253313065E0,3.848295450E0
1.227169760E1,-1.074938774E1,8.734602928E-1,3.688859701E0
1.228836354E1,-6.859935284E0,-1.343291640E0,3.409923553E0
1.230502948E1,-4.773221016E0,-9.476040006E-1,2.356487274E0
1.232169542E1,-4.823998928E0,1.349934816E0,5.885682106E-1
1.233836135E1,-5.230834961E0,2.504621983E0,-1.254945278E0
1.235502729E1,-4.560258389E0,1.376736522E0,-2.407723427E0
1.237169323E1,-2.606559992E0,-3.546070158E-1,-2.582507133E0
1.238835917E1,-1.422780395E0,-1.450040221E0,-2.162690401E0
1.240502510E1,-6.627119184E-1,-2.282190800E0,-1.911090493E0
1.242169104E1,4.274526238E-1,-1.752647400E0,-2.241873741E0
1.243835698E1,1.321376920E0,4.480693042E-1,-2.672686100E0
1.245502292E1,3.173518896E0,2.279747248E0,-2.943146467E0
1.247168885E1,5.770228863E0,3.345935583E0,-3.261483431E0
1.248835479E1,7.836708069E0,3.755138397E0,-3.926104307E0
1.250502073E1,9.576680183E0,3.821035624E0,-4.755658627E0
1.252168667E1,1.092531681E1,3.329442024E0,-5.107440472E0
1.253835260E1,1.096906948E1,2.015090227E0,-4.487565517E0
1.255501854E1,1.074908257E1,9.740238786E-1,-3.989099741E0
1.257168448E1,1.095998287E1,2.170097083E-1,-3.679238558E0
1.258835042E1,1.094837666E1,-2.660316229E-1,-2.691775560E0
1.260501635E1,9.531094551E0,2.074649483E-1,-1.907577991E0
1.262168229E1,6.223413944E0,9.719622135E-1,-1.554116368E0
1.263834823E1,2.622518778E0,9.098830819E-1,-8.063415289E-1
1.265501417E1,3.323104382E-1,-6.624065042E-1,5.375609994E-1
1.267168010E1,-7.971785665E-1,-2.245538950E0,2.351447582E0
1.268834604E1,-1.886503100E0,-2.778671265E0,4.356305599E0
1.270501198E1,-2.510959625E0,-2.411541462E0,5.143176079E0
1.272167792E1,-3.674351692E0,-1.310228586E0,4.393110275E0
1.273834385E1,-7.136580467E0,4.628827870E-1,3.003622055E0
1.275500979E1,-9.544303894E0,1.050458312E0,2.104200125E0
1.277167573E1,-7.499433994E0,-5.133554935E-1,1.925445795E0
1.278834167E1,-4.376388073E0,-3.730092943E-1,2.077092886E0
1.280500760E1,-2.196669817E0,1.524947524E0,2.186055899E0
1.282167354E1,-7.709876895E-1,1.922773242E0,1.901469350E0
1.283833948E1,-1.198822167E-2,7.170788646E-1,1.090775371E0
1.285500542E1,7.034871578E-1,4.902189970E-1,5.803215317E-3
1.287167135E1,1.989128470E0,2.293186426E0,-6.310997009E-1
1.288833729E1,4.601568222E0,4.323090076E0,-3.126864135E-1
1.290500323E1,6.708287716E0,4.903564453E0,2.525925934E-1
1.292166917E1,5.721282959E0,3.178558588E0,3.721693754E-1
1.293833510E1,2.356029034E0,3.512472510E-1,-6.918807030E-1
1.295500104E1,-4.334849119E-1,-2.680169344E-1,-2.165973902E0
1.297166698E1,-4.592176080E-1,2.106261730E0,-1.904065490E0
1.298833292E1,1.561828494E0,3.164737701E0,-5.949822664E-1
1.300499885E1,3.322951794E0,8.265764117E-1,6.981421113E-1
1.302166479E1,3.352425814E0,-2.425438643E0,1.517388105E0
1.303833073E1,1.208595991E0,-4.028347969E0,1.661552191E0
1.305499667E1,-1.978514671E0,-3.070664644E0,1.247156858E0
1.307166260E1,-3.483914614E0,-6.107884049E-1,1.497305989E0
1.308832854E1,-2.303876400E0,6.892845631E-1,2.498742342E0
1.310499448E1,2.784016132E-1,-9.728021920E-2,3.561799765E0
1.312166042E1,2.913214207E0,-9.330959618E-2,4.020329952E0
1.313832635E1,3.710087299E0,1.907959819E0,3.541946650E0
1.315499229E1,2.655276537E0,3.769035578E0,2.703076601E0
1.317165823E1,7.728202939E-1,3.679162264E0,1.790673733E0
1.318832417E1,-1.257007003E0,2.417649984E0,3.978256881E-1
1.320499010E1,-2.402225733E-1,2.315330267E0,-4.114174247E-1
1.322165604E1,2.740262985E0,3.471544504E0,-1.664606482E-2
1.323832198E1,4.282238483E0,3.941833973E0,4.741074145E-1
1.325498792E1,4.123413563E0,3.349371672E0,7.228057384E-1
1.327165385E1,3.472842693E0,2.282190800E0,8.653663397E-1
1.328831979E1,2.892750263E0,1.410486817E0,1.295796871E0
1.330498573E1,2.020511627E0,1.562286615E0,2.123213291E0
1.332165167E1,1.212413907E0,1.743866205E0,2.754923820E0
1.333831760E1,1.248302221E0,1.117806196E0,3.314246893E0
1.335498354E1,2.121685982E0,6.427824497E-1,4.099895477E0
1.337164948E1,3.369224787E0,1.029918075E0,4.590114117E0
1.338831542E1,3.823708057E0,1.959883332E0,4.878289700E0
1.340498135E1,2.577391148E0,1.245553255E0,4.475577354E0
1.342164729E1,8.139009476E-1,-9.765437245E-1,3.161988735E0
1.343831323E1,2.134208828E-1,-2.391077518E0,2.099007845E0
1.345497917E1,1.726914763E0,-7.630464435E-1,1.909639716E0
1.347164510E1,2.885343313E0,1.279379964E0,1.608101487E0
1.348831104E1,2.309756041E0,2.423147917E0,1.394680619E0
1.350497698E1,1.637804866E0,2.511952400E0,1.369482517E0
1.352164292E1,1.659185052E0,1.602374673E0,1.875431180E0
1.353830885E1,1.858097911E0,3.112356067E-1,2.728427649E0
1.355497479E1,2.195677042E0,-6.948586702E-1,3.298746109E0
1.357164073E1,2.719264507E0,-6.622537971E-1,3.320279121E0
1.358830667E1,2.651458502E0,2.312123179E-1,3.004920244E0
1.360497260E1,2.033110619E0,1.310381293E0,2.777983904E0
1.362163854E1,1.604589105E0,2.144058943E0,2.745455503E0
1.363830448E1,1.391549945E0,1.540295601E0,3.095786333E0
1.365497042E1,1.796247840E0,-1.003574491E0,3.701916933E0
1.367163635E1,3.083263636E0,-3.135187149E0,3.789270639E0
1.368830229E1,3.920682907E0,-1.955072761E0,3.229031324E0
1.370496823E1,2.451858521E0,1.010752082E0,2.066020966E0
1.372163417E1,-1.669187993E-1,2.684292555E0,6.435460448E-1
1.373830010E1,-9.327905178E-1,2.214384794E0,-3.755291104E-1
1.375496604E1,1.641699113E-2,1.079550743E0,-5.516872406E-1
1.377163198E1,1.457370639E0,1.291978955E-1,8.865175396E-2
1.378829792E1,2.813032389E0,-5.887209252E-2,6.947823167E-1
1.380496385E1,3.551644087E0,5.729147792E-1,6.278926134E-1
1.382162979E1,3.578675032E0,1.301371098E0,-7.276926935E-2
1.383829573E1,3.348149776E0,1.478063703E0,-8.562797308E-1
1.385496167E1,3.064174175E0,1.160032272E0,-1.146822214E0
1.387162760E1,2.926958561E0,2.924515009E-1,-9.218713045E-1
1.388829354E1,3.125718832E0,-6.990583539E-1,-5.408443809E-1
1.390495948E1,3.161530733E0,-1.285564899E0,-4.298960865E-1
1.392162542E1,2.422842503E0,-1.108872294E0,-6.560688019E-1
1.393829135E1,1.243720651E0,-5.949059129E-1,-9.781472087E-1
1.395495729E1,2.028071135E-1,-1.422551423E-1,-1.055192590E0
1.397162323E1,-4.889208972E-1,1.191186346E-2,-6.443859935E-1
1.398828917E1,-6.394990683E-1,1.924224012E-2,1.550832987E-1
1.400495510E1,-5.164098144E-1,2.863428742E-2,8.771254420E-1
1.402162104E1,-6.571378112E-1,2.661079764E-1,1.155450702E0
1.403828698E1,-1.612606645E0,4.608211219E-1,1.247691274E0
1.405495292E1,-2.924744129E0,6.482039094E-1,1.432248831E0
1.407161885E1,-3.594633818E0,6.021599770E-1,1.779907227E0
1.408828479E1,-3.917246819E0,7.651081681E-2,2.246836901E0
1.410495073E1,-4.296212196E0,-6.889790893E-1,2.297691584E0
1.412161667E1,-4.239706993E0,-1.183245063E0,2.068693638E0
1.413828260E1,-3.393888474E0,-1.096273184E0,2.358090878E0
1.415494854E1,-2.240804672E0,-8.310051560E-1,2.401996613E0
1.417161448E1,-1.710421324E0,-6.223948598E-1,1.415373683E0
1.418828042E1,-1.868940830E0,8.773545176E-2,1.659261435E-1
1.420494635E1,-9.547816515E-1,7.202095985E-1,-6.324741244E-1
1.422161229E1,1.262962937E0,1.020373225E0,-8.544471264E-1
1.423827823E1,3.507509232E0,1.681710720E0,-9.423353076E-1
1.425494417E1,5.221443176E0,2.569144487E0,-1.711795807E0
1.427161010E1,6.526861191E0,2.628474712E0,-2.422155142E0
1.428827604E1,8.149929047E0,1.894062638E0,-2.976438522E0
1.430494198E1,1.022870159E1,1.198898435E0,-3.315926790E0
1.432160792E1,1.149968243E1,5.119810700E-1,-3.242851973E0
1.433827385E1,1.129611111E1,-4.489856213E-2,-2.866788387E0
1.435493979E1,1.019418812E1,-7.686206102E-1,-2.701702118E0
1.437160573E1,8.192002296E0,-1.940335631E0,-2.590677500E0
1.438827167E1,5.965247154E0,-2.614882946E0,-2.089844704E0
1.440493760E1,4.305145741E0,-2.209879637E0,-1.294727921E0
1.442160354E1,2.939863205E0,-1.125212908E0,-2.962694168E-1
1.443826948E1,1.451720119E0,7.260891199E-1,1.277318239E0
1.445493542E1,-5.348884463E-1,2.113286734E0,2.851211309E0
1.447160135E1,-2.791193962E0,2.560134172E0,3.993604898E0
1.448826729E1,-4.901120663E0,2.879769325E0,5.615527153E0
1.450493323E1,-6.217763424E0,2.780961990E0,7.555480957E0
1.452159917E1,-7.419945240E0,2.758512735E0,9.224287033E0
1.453826510E1,-8.860135078E0,3.210934401E0,9.398307800E0
1.455493104E1,-1.099915504E1,3.537136078E0,8.019509315E0
1.457159698E1,-1.418206596E1,3.062036037E0,6.332071781E0
1.458826292E1,-1.631635094E1,8.174898028E-1,5.177995205E0
1.460492885E1,-1.277028084E1,-2.486295938E0,5.269395828E0
1.462159479E1,-5.807338715E0,-2.910083532E0,5.486329079E0
1.463826073E1,-3.110981703E0,-3.147480786E-1,4.518032074E0
1.465492667E1,-1.954767346E0,2.449873209E0,2.074649572E0
1.467159260E1,-1.695149764E-2,3.767355919E0,7.666353136E-2
1.468825854E1,5.648208261E-1,3.174740553E0,-2.244317293E0
1.470492448E1,-1.977674663E-1,9.757037759E-1,-5.265272617E0
1.472159042E1,-1.937968582E-1,2.265544683E-1,-7.144445419E0
1.473825635E1,1.891084671E0,2.562425137E0,-7.105044842E0
1.475492229E1,4.455800533E0,5.347357750E0,-6.017323494E0
1.477158823E1,7.454764843E0,5.692496300E0,-4.666625023E0
1.478825417E1,1.026825523E1,3.965352297E0,-3.651444197E0
1.480492010E1,1.154564953E1,2.517908335E0,-3.306305647E0
1.482158604E1,1.206732845E1,1.630856276E0,-4.023308277E0
1.483825198E1,1.245530415E1,1.784259677E0,-5.042001724E0
1.485491792E1,1.261916828E1,2.130085468E0,-5.033372879E0
1.487158385E1,1.231388855E1,1.247691274E0,-4.057440281E0
1.488824979E1,1.208763981E1,-1.742491722E-1,-2.011272192E0
1.490491573E1,1.096448803E1,-1.496924162E0,3.850739002E-1
1.492158167E1,7.383598804E0,-1.747684121E0,2.204229116E0
1.493824760E1,3.254076719E0,-2.294026375E0,2.427653074E0
1.495491354E1,1.453323722E0,-2.354959965E0,2.166050196E0
1.497157948E1,-1.855501831E-1,4.246273935E-1,3.351967812E0
1.498824542E1,-3.431227446E0,4.121963024E0,5.499615669E0
1.500491135E1,-6.682937145E0,6.767770767E0,6.241739750E0
1.502157729E1,-1.093844986E1,7.351604939E0,6.888187408E0
1.503824323E1,-1.240078449E1,5.437994480E0,7.875192165E0
1.505490917E1,-1.126365948E1,3.902662277E0,7.890082359E0
1.507157510E1,-1.348751259E1,3.671602726E0,6.447906971E0
1.508824104E1,-1.786046410E1,3.599215269E0,4.939452648E0
1.510490698E1,-1.691057014E1,2.216980934E0,3.586005211E0
1.512157292E1,-1.014524269E1,-5.506182313E-1,3.807443857E0
1.513823885E1,-3.215744972E0,-4.602102637E-1,3.763079643E0
1.515490479E1,-1.663002968E0,2.919780970E0,2.352363825E0
1.517157073E1,-1.795407891E0,5.004738808E0,-3.587303460E-1
1.518823667E1,-1.348713040E0,4.310032845E0,-2.399400473E0
1.520490260E1,-3.461312652E-1,2.548298836E0,-2.977049589E0
1.522156854E1,6.678279042E-1,6.824886799E-1,-3.557829142E0
1.523823448E1,7.671698332E-1,-1.614973694E-1,-4.786354542E0
1.525490042E1,9.174425602E-1,9.304234385E-1,-6.089711189E0
1.527156635E1,2.401920319E0,3.536525249E0,-5.852313519E0
1.528823229E1,5.777406216E0,5.234347343E0,-4.402196884E0
1.530489823E1,9.794529915E0,5.564443588E0,-3.146182775E0
1.532156417E1,1.313878536E1,5.489918232E0,-3.074711561E0
1.533823010E1,1.480934715E1,5.005043983E0,-4.009334564E0
1.535489604E1,1.554902840E1,4.308811188E0,-4.262079716E0
1.537156198E1,1.597388458E1,3.226511478E0,-3.082958221E0
1.538822792E1,1.606879807E1,6.527853608E-1,-1.750509381E0
1.540489385E1,1.501291847E1,-2.303952932E0,-3.092502989E-2
1.542155979E1,1.214864922E1,-3.919842958E0,1.805105448E0
1.543822573E1,8.277523041E0,-3.663279772E0,2.992550135E0
1.545489167E1,4.463970661E0,-3.500789642E0,3.056767464E0
1.547155760E1,2.799364328E0,-3.012097836E0,3.385565281E0
1.548822354E1,1.625434875E0,-9.733366966E-1,4.436176300E0
1.550488948E1,-1.383914113E0,1.998902321E0,5.454258919E0
1.552155542E1,-5.249313831E0,4.999622822E0,5.946921349E0
1.553822135E1,-8.551419258E0,6.773650646E0,6.150110245E0
1.555488729E1,-1.124174500E1,7.175370216E0,6.684082508E0
1.557155323E1,-1.226295757E1,7.557695389E0,7.628860950E0
1.558821917E1,-1.216376877E1,5.448379517E0,7.574418068E0
1.560488510E1,-1.307395744E1,2.717432022E0,6.945990562E0
1.562155104E1,-1.423536396E1,3.582340240E0,5.515498161E0
1.563821698E1,-1.276676846E1,4.663036346E0,3.356701851E0
1.565488292E1,-8.894649506E0,3.615174055E0,2.511646986E0
1.567154885E1,-4.998706341E0,1.716453671E0,2.603123903E0
1.568821479E1,-2.831434727E0,4.576140642E-1,1.883525133E0
1.570488073E1,-2.772867918E0,1.520671487E0,-3.215439618E-1
1.572154667E1,-3.022635221E0,3.530722141E0,-2.463006735E0
1.573821260E1,-2.138332129E0,3.503614902E0,-3.958556414E0
1.575487854E1,-1.656665325E0,1.327332854E0,-4.285368919E0
1.577154448E1,-5.725330114E-1,-8.869756460E-1,-3.947637320E0
1.578821042E1,1.501505613E0,-1.929569095E-1,-2.980409145E0
1.580487635E1,4.194961071E0,2.986059666E0,-2.220722437E0
1.582154229E1,6.426908493E0,4.613327026E0,-2.777754784E0
1.583820823E1,8.236671448E0,3.898768187E0,-3.105942011E0
1.585487417E1,1.093600655E1,2.778365850E0,-3.068526506E0
1.587154010E1,1.280189323E1,2.344804525E0,-2.856403828E0
1.588820604E1,1.281517982E1,1.593593478E0,-3.269577265E0
1.590487198E1,1.247935677E1,1.068173409E0,-3.748342752E0
1.592153792E1,1.275134373E1,1.225547493E-1,-3.617770195E0
1.593820385E1,1.325355148E1,-1.489364743E0,-2.273562431E0
1.595486979E1,1.290986347E1,-3.722839117E0,-6.019308567E-1
1.597153573E1,1.073640633E1,-4.774824619E0,-6.025417447E-1
1.598820167E1,6.243725300E0,-2.672991514E0,-1.433623314E0
1.600486760E1,9.750928879E-1,1.381165266E0,-1.204243541E0
1.602153354E1,-3.468490124E0,4.026973248E0,9.721912742E-1
1.603819948E1,-6.326039314E0,2.461174250E0,4.084928989E0
1.605486542E1,-6.606349945E0,-2.571435213E0,6.981039047E0
1.607153135E1,-6.133540630E0,-4.630584240E0,9.485202789E0
1.608819729E1,-6.543278217E0,-6.084213257E-1,9.861953735E0
1.610486323E1,-9.472756386E0,4.306367397E0,7.416356564E0
1.612152917E1,-1.410288239E1,5.312003613E0,4.698084831E0
1.613819510E1,-1.393817806E1,3.661981583E0,3.176115036E0
1.615486104E1,-9.655405045E0,1.366886258E0,2.601749420E0
1.617152698E1,-5.519163132E0,-8.320741653E-1,2.390466690E0
1.618819292E1,-4.415025234E0,-6.334667802E-1,1.650022149E0
1.620485885E1,-4.713279724E0,1.790521026E0,1.025489271E-1
1.622152479E1,-4.721450329E0,2.249433279E0,-6.365211010E-1
1.623819073E1,-3.009654522E0,-5.734493136E-1,-4.636463821E-1
1.625485667E1,-8.393282294E-1,-3.449553490E0,1.638644785E-1
1.627152260E1,9.446260333E-1,-3.471773624E0,4.650207981E-2
1.628818854E1,1.514104724E0,-1.109559536E0,-1.242422581E0
1.630485448E1,1.750509381E0,8.259655237E-1,-2.405509233E0
1.632152042E1,2.971322536E0,9.617302418E-1,-2.517908335E0
1.633818635E1,6.311989307E0,3.975966275E-1,-1.552665591E0
1.635485229E1,9.854317665E0,7.376192212E-1,-4.521162808E-1
1.637151823E1,1.032666874E1,8.038980365E-1,-1.629939914E0
1.638818417E1,8.289893150E0,5.592467189E-1,-3.645946503E0
1.640485010E1,6.440958023E0,9.128610492E-1,-4.494055748E0
1.642151604E1,5.738158226E0,9.706641436E-1,-4.597139359E0
1.643818198E1,5.296044827E0,2.762635946E-1,-3.811109066E0
1.645484792E1,5.356215000E0,-6.743183732E-1,-2.601596832E0
1.647151385E1,5.892172813E0,-1.463861108E0,-1.553200006E0
1.648817979E1,5.502135277E0,-1.538157463E0,-1.082452416E0
1.650484573E1,3.569511890E0,-5.514581800E-1,-1.040302753E0
1.652151167E1,-1.910479665E-1,5.918515921E-1,-3.124573231E-1
1.653817760E1,-3.111439705E0,6.185005885E-3,3.768272102E-1
1.655484354E1,-2.908556223E0,-7.871756554E-1,1.057865024E0
1.657150948E1,-7.332668304E-1,-1.886045001E-2,1.967519045E0
1.658817542E1,2.719111741E-1,1.848629594E0,2.094578981E0
1.660484135E1,-1.333899617E0,3.245753765E0,1.650709391E0
1.662150729E1,-3.820501089E0,2.396269798E0,1.416900873E0
1.663817323E1,-4.318050385E0,6.708058715E-1,1.816559196E0
1.665483917E1,-1.908112526E0,8.200859427E-1,3.052109480E0
1.667150510E1,2.031125307E0,2.717279196E0,4.177704334E0
1.668817104E1,5.113396168E0,4.675253391E0,4.138456345E0
1.670483698E1,6.136289597E0,5.679820538E0,3.324860573E0
1.672150292E1,4.276740551E0,4.552775383E0,3.020802736E0
1.673816885E1,7.746528983E-1,1.683696061E-1,2.051665783E0
1.675483479E1,9.292780608E-2,-3.576613188E0,9.032399058E-1
1.677150073E1,3.019809961E0,-2.426202297E0,7.632755637E-1
1.678816667E1,4.284911156E0,9.433279634E-1,7.318923473E-1
1.680483260E1,2.176129341E0,2.200105906E0,5.735256672E-1
1.682149854E1,7.147117853E-1,1.281365275E0,4.579958618E-1
1.683816448E1,2.368628234E-1,-7.507528067E-1,4.430296719E-1
1.685483042E1,-3.250564337E-1,-1.607719779E0,1.000061989E0
1.687149635E1,-5.323686600E-1,-1.213559270E0,2.068922758E0
1.688816229E1,-2.554942071E-1,-4.235583544E-1,2.725296974E0
1.690482823E1,-4.008036554E-1,-7.864884287E-2,2.999116898E0
1.692149417E1,-6.352230310E-1,-7.261655331E-1,2.929020166E0
1.693816010E1,-6.404153705E-1,-1.728365541E0,2.913214207E0
1.695482604E1,-5.504655242E-1,-1.955454469E0,3.020344496E0
1.697149198E1,-1.323285848E-1,-1.300149322E0,3.185430765E0
1.698815792E1,5.187768936E-1,-2.033416182E-1,2.936121464E0
1.700482385E1,9.321032763E-1,7.767909169E-1,1.913228512E0
1.702148979E1,4.917461574E-1,1.242804408E0,4.271472096E-1
1.703815573E1,-4.111120105E-1,1.146975040E0,-4.865537882E-1
1.705482167E1,-5.487856269E-1,1.436143041E0,-4.074468017E-1
1.707148760E1,-1.053741761E-2,2.200716734E0,2.169333547E-1
1.708815354E1,9.779181480E-1,2.422613382E0,8.169552684E-1
1.710481948E1,2.047542334E0,1.443397164E0,1.302592754E0
1.712148542E1,2.689179420E0,-2.555705607E-1,1.887419462E0
1.713815135E1,3.012708664E0,-1.636430383E0,2.294713497E0
1.715481729E1,3.077994823E0,-1.854661822E0,2.440099478E0
1.717148323E1,2.595335484E0,-6.819541454E-1,2.364810228E0
1.718814917E1,1.902232885E0,7.878628373E-1,2.167042732E0
1.720481510E1,1.737986684E0,1.529910803E0,2.054109097E0
1.722148104E1,2.482019901E0,1.422704101E0,2.267606497E0
1.723814698E1,4.005898476E0,1.145142436E0,2.967428446E0
1.725481292E1,5.715403557E0,1.403690934E0,3.821570158E0
1.727147885E1,6.725468636E0,2.091524601E0,4.118832111E0
1.728814479E1,6.479900837E0,3.001942158E0,3.732841969E0
1.730481073E1,4.765585423E0,3.019351959E0,2.894582748E0
1.732147667E1,1.554803610E0,-2.781725526E-1,2.323042393E0
1.733814260E1,-6.338485479E-1,-5.448532104E0,2.063424826E0
1.735480854E1,1.472795010E0,-6.017094612E0,1.399873018E0
1.737147448E1,4.190532207E0,-6.488147378E-1,5.890263915E-1
1.738814042E1,3.391521215E0,3.762239933E0,-4.526508152E-1
1.740480635E1,1.750127554E0,4.626079082E0,-1.565570116E0
1.742147229E1,1.216766238E0,3.193219185E0,-1.991801023E0
1.743813823E1,1.368718863E0,1.513875604E0,-1.187597513E0
1.745480417E1,1.978209257E0,1.471420527E-1,1.731038094E-1
1.747147010E1,3.023627996E0,-6.081159115E-1,1.325194836E0
1.748813604E1,3.813246965E0,-6.398808360E-1,1.801592946E0
1.750480198E1,3.667402983E0,8.063415438E-2,1.673464060E0
1.752146792E1,2.390848398E0,1.054810762E0,1.341230035E0
1.753813385E1,3.549887836E-1,1.783801556E0,1.072754860E0
1.755479979E1,-1.925216675E0,2.212781191E0,9.296598434E-1
1.757146573E1,-3.913810730E0,2.037539482E0,1.111468434E0
1.758813167E1,-4.911734581E0,7.428879142E-1,1.494480729E0
1.760479760E1,-4.606302261E0,-1.533347011E0,2.006156206E0
1.762146354E1,-3.462534189E0,-3.378616810E0,2.746677160E0
1.763812948E1,-2.335107088E0,-3.183292627E0,3.349066257E0
1.765479542E1,-1.911166787E0,-1.373453140E0,3.369301081E0
1.767146135E1,-1.890779257E0,5.128973126E-1,2.732474566E0
1.768812729E1,-1.427667379E0,1.533957839E0,2.115272045E0
1.770479323E1,-2.824485898E-1,8.281035423E-1,1.829387307E0
1.772145917E1,1.044731498E0,-1.153007269E0,1.499062181E0
1.773812510E1,2.441550255E0,-2.969795465E0,1.138041139E0
1.775479104E1,3.576842308E0,-3.317072153E0,6.891318560E-1
1.777145698E1,3.987801552E0,-2.055865526E0,-4.659371078E-1
1.778812292E1,3.747120857E0,-3.321577311E-1,-1.847102404E0
1.780478885E1,3.735667229E0,5.035816431E-1,-2.723235130E0
1.782145479E1,4.557509422E0,1.675296724E-1,-2.686659575E0
1.783812073E1,6.187678337E0,-1.039615512E0,-2.361832380E0
1.785478667E1,8.117400169E0,-7.327322960E-1,-2.667722940E0
1.787145260E1,8.814396858E0,1.514562845E0,-3.765599489E0
1.788811854E1,7.837395191E0,3.226206064E0,-4.448470116E0
1.790478448E1,6.781438828E0,3.280191183E0,-3.819355726E0
1.792145042E1,6.620018005E0,2.049222231E0,-2.325256824E0
1.793811635E1,7.123981476E0,1.896735132E-1,-6.869937778E-1
1.795478229E1,7.153760910E0,-1.613217473E0,1.037477493E0
1.797144823E1,5.973722935E0,-2.333961725E0,2.389855623E0
1.798811417E1,3.408167362E0,-1.077565432E0,2.961930513E0
1.800478010E1,-2.709185183E-1,1.169653296E0,3.096320868E0
1.802144604E1,-3.850815296E0,2.841361046E0,3.113577843E0
1.803811198E1,-6.524188519E0,2.954600334E0,3.364337683E0
1.805477792E1,-8.591507912E0,1.443091631E0,4.123260975E0
1.807144385E1,-9.731457710E0,-5.177842379E-1,5.439903736E0
1.808810979E1,-9.018578529E0,-1.116202712E0,7.327475548E0
1.810477573E1,-7.681930065E0,-6.238456443E-2,8.258280754E0
1.812144167E1,-9.439159393E0,1.533270597E0,6.429580688E0
1.813810760E1,-1.370123863E1,1.802891016E0,3.342499256E0
1.815477354E1,-1.660948944E1,1.370704174E0,1.278921723E0
1.817143948E1,-1.349453735E1,-1.548694968E0,1.507537961E0
1.818810542E1,-5.384238720E0,-4.709614754E0,3.909305573E0
1.820477135E1,2.792415619E-1,-3.649688005E0,4.464581490E0
1.822143729E1,3.878991306E-2,1.314581037E0,2.121533394E0
1.823810323E1,-7.764855027E-1,5.285430908E0,-1.131245255E0
1.825476917E1,8.161153197E-1,5.340638161E0,-3.234452724E0
1.827143510E1,2.164522886E0,2.682688951E0,-4.517726898E0
1.828810104E1,1.871460557E0,6.275108457E-1,-5.625377178E0
1.830476698E1,1.740811944E0,1.141553521E0,-6.524723053E0
1.832143292E1,2.797837019E0,3.561036348E0,-6.186838627E0
1.833809885E1,5.797183037E0,4.312705517E0,-4.220006466E0
1.835476479E1,9.827134132E0,3.271562576E0,-3.037677765E0
1.837143073E1,1.193522835E1,4.921661377E0,-3.722762585E0
1.838809667E1,1.243484020E1,6.672705173E0,-4.650513649E0
1.840476260E1,1.332647324E1,6.312371254E0,-4.190532207E0
1.842142854E1,1.428797436E1,5.072621346E0,-2.396269798E0
1.843809448E1,1.421856499E1,2.402607441E0,-6.257545948E-1
1.845476042E1,1.278891277E1,-7.244856358E-1,1.296102405E0
1.847142635E1,1.116530991E1,-2.961625099E0,2.703687429E0
1.848809229E1,8.670461655E0,-2.853731155E0,3.796906471E0
1.850475823E1,5.121184826E0,-1.682703376E0,3.958250999E0
1.852142417E1,2.066479206E0,-1.883754283E-1,3.601658821E0
1.853809010E1,-1.688277572E-1,1.782579780E0,3.592495680E0
1.855475604E1,-3.120297194E0,4.459007263E0,4.693732262E0
1.857142198E1,-6.613985538E0,6.774948597E0,5.457160473E0
1.858808792E1,-1.050359058E1,7.054648399E0,5.629500866E0
1.860475385E1,-1.312168121E1,5.065901756E0,5.575057507E0
1.862141979E1,-1.314176273E1,3.125566006E0,5.613465309E0
1.863808573E1,-1.328218555E1,3.926867962E0,5.603462696E0
1.865475167E1,-1.541028595E1,3.806145668E0,3.969399452E0
1.867141760E1,-1.590103912E1,3.490252256E0,1.272049546E0
1.868808354E1,-1.391099453E1,4.044764996E0,-9.340122342E-1
1.870474948E1,-1.014486027E1,2.755840063E0,-1.905287266E0
1.872141542E1,-5.842234612E0,2.308992624E0,-3.232238293E-1
1.873808135E1,-1.784717798E0,1.446909547E0,6.718748808E-1
1.875474729E1,-1.740964651E-1,-2.368628234E-1,-2.784779668E-1
1.877141323E1,3.962985426E-2,2.927569449E-1,-2.167500973E0
1.878807917E1,7.975603342E-1,2.129780054E0,-4.174115181E0
1.880474510E1,1.448818564E0,3.446880817E0,-5.695474148E0
1.882141104E1,2.650007725E0,3.282634497E0,-5.615909100E0
1.883807698E1,5.090794563E0,3.417101145E0,-3.664119720E0
1.885474292E1,8.394962311E0,3.981158495E0,-1.612912059E0
1.887140885E1,1.245583820E1,4.877831459E0,-8.661298752E-1
1.888807479E1,1.470450783E1,6.391631126E0,-1.328859925E0
1.890474073E1,1.505743504E1,5.911109447E0,-1.663842916E0
1.892140667E1,1.500856590E1,4.107454777E0,-3.500255048E-1
1.893807260E1,1.487051010E1,1.206228852E0,1.149189353E0
1.895473854E1,1.408707619E1,-1.767384529E0,2.029979944E0
1.897140448E1,1.198218918E1,-3.644724607E0,3.358916283E0
1.898807042E1,9.635398865E0,-4.141128540E0,4.348059177E0
1.900473635E1,6.041529179E0,-3.193524599E0,4.655858517E0
1.902140229E1,2.394360781E0,-2.499887705E0,3.874486208E0
1.903806823E1,6.779835224E-1,-1.605047226E0,3.270875454E0
1.905473417E1,-3.391826749E-1,9.181297421E-1,3.382129192E0
1.907140010E1,-3.257894516E0,4.209927559E0,3.654880285E0
1.908806604E1,-6.839471340E0,6.361011505E0,3.964436054E0
1.910473198E1,-9.413350105E0,6.070697784E0,4.694725037E0
1.912139792E1,-1.063408661E1,4.857673168E0,5.800695419E0
1.913806385E1,-1.140499783E1,5.544132233E0,6.066727161E0
1.915472979E1,-1.220713997E1,6.461116791E0,4.365697861E0
1.917139573E1,-1.415503502E1,5.439980030E0,1.690491915E0
1.918806167E1,-1.429278469E1,3.889376163E0,2.115882933E-1
1.920472760E1,-1.079581356E1,2.663904905E0,-7.130318880E-1
1.922139354E1,-7.463775158E0,2.301891088E0,-1.442251801E0
1.923805948E1,-5.363392830E0,2.313879490E0,-1.954156399E0
1.925472542E1,-2.837772369E0,1.521511436E0,-1.766239166E0
1.927139135E1,-1.130710721E0,-2.153298259E-2,-1.648953080E0
1.928805729E1,-5.058723688E-1,3.257436454E-1,-2.388633966E0
1.930472323E1,-2.163224965E-1,1.664377451E0,-3.715584993E0
1.932138917E1,3.471239209E-1,1.548236728E0,-4.868363380E0
1.933805510E1,1.060308576E0,1.234786749E0,-5.046964645E0
1.935472104E1,2.699564219E0,2.595258951E0,-3.920988321E0
1.937138698E1,6.188289165E0,4.331413269E0,-2.307770729E0
1.938805292E1,1.036736774E1,5.280926228E0,-1.478445530E0
1.940471885E1,1.335426807E1,5.064527035E0,-1.558010578E0
1.942138479E1,1.514929390E1,4.582172871E0,-2.231412649E0
1.943805073E1,1.587187004E1,4.051102638E0,-2.476903915E0
1.945471667E1,1.535744572E1,2.850829601E0,-1.772729635E0
1.947138260E1,1.373407269E1,1.276020169E0,-1.092989802E0
1.948804854E1,1.188200760E1,-1.388190240E-1,-4.159989059E-1
1.950471448E1,1.083269405E1,-1.230587125E0,1.101541877E0
1.952138042E1,9.026901245E0,-2.289444923E0,2.661385059E0
1.953804635E1,6.479595661E0,-3.330816507E0,2.636797905E0
1.955471229E1,4.041405201E0,-2.365955591E0,2.022955179E0
1.957137823E1,1.058246851E0,8.050433993E-1,1.632001638E0
1.958804417E1,-2.907334566E0,4.425715446E0,2.170707941E0
1.960471010E1,-6.655066490E0,5.877817154E0,3.193066597E0
1.962137604E1,-9.312175751E0,4.243830204E0,4.322479248E0
1.963804198E1,-1.095204163E1,1.761199474E0,6.028166294E0
1.965470792E1,-1.116744804E1,1.450422049E0,7.132915497E0
1.967137385E1,-1.175311470E1,4.109974384E0,6.480741024E0
1.968803979E1,-1.390007496E1,5.857658863E0,2.894277334E0
1.970470573E1,-1.725639534E1,5.766563416E0,-2.173991442E0
1.972137167E1,-1.637453651E1,4.167319298E0,-4.167624950E0
1.973803760E1,-1.157817841E1,1.541822672E0,-3.125871420E0
1.975470354E1,-8.281188011E0,5.984184146E-1,-1.514181018E0
1.977136948E1,-5.887820244E0,6.409498453E-1,-1.714773774E0
1.978803542E1,-4.824304581E0,1.079321742E0,-2.546695232E0
1.980470135E1,-4.236805439E0,1.524642110E0,-3.469559193E0
1.982136729E1,-3.561647177E0,1.720882416E0,-3.747960806E0
1.983803323E1,-2.740492105E0,1.104825258E0,-3.163974047E0
1.985469917E1,-2.138561249E0,-1.408043355E-1,-2.567464590E0
1.987136510E1,-1.626732945E0,-4.802160859E-1,-2.499658585E0
1.988803104E1,-1.222187757E0,1.128572702E0,-2.795011759E0
1.990469698E1,-7.305179238E-1,3.677711487E0,-2.146349669E0
1.992136292E1,4.859429300E-1,5.261301994E0,-2.909243479E-2
1.993802885E1,2.002338409E0,4.145099163E0,2.180710793E0
1.995469479E1,2.850753307E0,-6.122392416E-1,2.894582748E0
1.997136073E1,3.609447241E0,-4.119519234E0,2.696509838E0
1.998802667E1,4.948157310E0,4.607447684E-1,2.711552382E0
2.000469260E1,6.384911537E0,6.611771107E0,2.132299900E0
2.002135854E1,6.881238937E0,8.315931320E0,1.326492906E0
2.003802448E1,6.728446484E0,5.482969761E0,1.517540812E0
2.005469042E1,6.571301460E0,5.335903764E-1,8.713222742E-1
2.007135635E1,5.846128464E0,-2.133445293E-1,-4.192823172E-1
2.008802229E1,5.482358456E0,3.378693104E0,-5.916225314E-1
2.010468823E1,6.682860851E0,5.225795269E0,-9.598212689E-2
2.012135417E1,6.821832657E0,2.739193916E0,4.519635737E-1
2.013802010E1,5.974028587E0,-1.347033143E0,6.995928884E-1
2.015468604E1,4.824075699E0,-3.033401728E0,-2.205221802E-1
2.017135198E1,1.477376461E0,1.314122826E-1,-2.583881617E0
2.018801792E1,-2.462701321E0,3.909229040E0,-4.218479633E0
2.020468385E1,-2.926194906E0,3.251938581E0,-3.262628794E0
2.022134979E1,-5.500837564E-1,-5.500837564E-1,-7.023417950E-1
2.023801573E1,5.174788237E-1,-3.069442749E0,1.800294876E0
2.025468167E1,6.632464528E-1,-3.836230755E0,2.834947109E0
2.027134760E1,5.204567909E-1,-3.055240154E0,2.333808899E0
2.028801354E1,2.858083546E-1,-1.136284828E0,1.260824919E0
2.030467948E1,5.396226645E-1,7.028762698E-1,1.042288020E-1
2.032134542E1,9.500474334E-1,1.250516534E0,-6.651554108E-1
2.033801135E1,8.536071777E-1,1.020907760E-1,-1.210810304E0
2.035467729E1,-7.582359016E-2,-2.375729561E0,-1.748600483E0
2.037134323E1,-1.436448574E0,-3.785070896E0,-2.046626091E0
2.038800917E1,-1.427972794E0,-2.790354013E0,-2.136041403E0
2.040467510E1,1.237001177E-2,-6.099484563E-1,-2.436968565E0
2.042134104E1,9.135482907E-1,1.567860842E0,-2.684063435E0
2.043800698E1,-9.308052063E-2,2.285092354E0,-2.552574873E0
2.045467292E1,-1.469358921E0,6.675988436E-1,-1.906050801E0
2.047133885E1,-9.418771267E-1,-1.661017656E0,-8.642973304E-1
2.048800479E1,4.938078225E-1,-2.720562696E0,4.350120723E-1
2.050467073E1,1.314428329E0,-2.216217518E0,1.246851325E0
2.052133667E1,1.070158720E0,-8.766673207E-1,1.051832795E0
2.053800260E1,2.077703774E-1,5.446622968E-1,2.344193608E-1
2.055466854E1,-5.661953092E-1,1.329852581E0,-7.079922557E-1
2.057133448E1,-1.050840139E0,1.443549871E0,-1.167515278E0
2.058800042E1,-7.324268818E-1,8.216894865E-1,-4.262309074E-1
2.060466635E1,7.937424183E-1,-4.770853817E-1,1.060308576E0
2.062133229E1,2.455829144E0,-1.910479546E0,1.703091025E0
2.063799823E1,1.731190801E0,-1.355661631E0,2.861137986E-1
2.065466417E1,-2.825020552E0,1.394680619E0,-2.075260401E0
2.067133010E1,-6.628188133E0,2.793790102E0,-4.068817616E0
2.068799604E1,-7.436744213E0,1.723784089E0,-4.703277111E0
2.070466198E1,-5.639122009E0,-3.794997334E-1,-3.540572166E0
2.072132792E1,-2.203007460E0,-1.607872486E0,-1.415755510E0
2.073799385E1,1.927278340E-1,-1.475620270E0,-1.114828214E-1
2.075465979E1,1.976911128E-1,-3.447568119E-1,-3.412443399E-1
2.077132573E1,-9.496656656E-1,1.063897371E0,-1.355279922E0
2.078799167E1,-1.726838350E0,1.761657715E0,-2.381227255E0
2.080465760E1,-1.788001180E0,1.622609615E0,-2.699640512E0
2.082132354E1,-1.102610946E0,1.154839873E0,-2.230114698E0
2.083798948E1,-1.733328849E-1,3.481165767E-1,-1.399414897E0
2.085465542E1,6.065887213E-1,-3.504073024E-1,-6.252201200E-1
2.087132135E1,6.684387922E-1,-7.769436240E-1,-3.191768527E-1
2.088798729E1,1.047633067E-1,-8.977421522E-1,-4.847212136E-1
2.090465323E1,-4.931969643E-1,-9.303470850E-1,-8.410844207E-1
2.092131917E1,-5.678751469E-1,-7.290670872E-1,-9.756274223E-1
2.093798510E1,-7.635809481E-2,-3.582721949E-1,-6.289616227E-1
2.095465104E1,5.467239618E-1,-2.664897591E-2,-1.963166744E-1
2.097131698E1,8.185588121E-1,2.309068888E-1,-6.498073786E-2
2.098798292E1,6.684387922E-1,4.592176080E-1,-1.762344837E-1
2.100464885E1,2.964221239E-1,6.889790893E-1,-4.222602844E-1
2.102131479E1,-1.185077652E-1,9.838740826E-1,-7.006618977E-1
2.103798073E1,-5.062541962E-1,1.260290384E0,-8.829286695E-1
2.105464667E1,-7.654135823E-1,1.412472129E0,-9.073632956E-1
2.107131260E1,-8.692606091E-1,1.269835114E0,-7.847321630E-1
2.108797854E1,-8.247438073E-1,8.465822339E-1,-5.862011313E-1
2.110464448E1,-6.020072699E-1,3.095557392E-1,-3.501782417E-1
2.112131042E1,-2.871064544E-1,-7.826705277E-2,-6.536252797E-2
2.113797635E1,-1.157588735E-1,-2.873355150E-1,1.589775532E-1
2.115464229E1,-2.680169232E-2,-3.756818473E-1,3.747655451E-1
2.117130823E1,1.402698308E-1,-4.021781087E-1,6.669116020E-1
2.118797417E1,2.537379563E-1,-2.815323174E-1,1.005559802E0
2.120464010E1,4.260781780E-2,-3.995819092E-1,1.206916094E0
2.122130604E1,-2.926805913E-1,-1.074511170E0,9.636391997E-1
2.123797198E1,-4.364628792E-1,-1.971718788E0,3.686569035E-1
2.125463792E1,-2.364046723E-1,-2.539517641E0,-1.141553521E-1
2.127130385E1,1.944840699E-1,-2.341673851E0,-3.804923892E-1
2.128796979E1,4.105011225E-1,-1.721722364E0,-3.743837476E-1
2.130463573E1,2.555705607E-1,-1.168355227E0,-3.009272516E-1
2.132130167E1,-9.300415963E-2,-9.808197618E-1,-5.087739825E-1
2.133796760E1,-3.786598146E-1,-1.013119221E0,-9.471458197E-1
2.135463354E1,-5.172497630E-1,-1.071151376E0,-1.421253324E0
2.137129948E1,-5.397753716E-1,-8.358920813E-1,-1.698509574E0
2.138796542E1,-5.684096813E-1,-6.002510190E-1,-1.921551466E0
2.140463135E1,-6.714931130E-1,-5.704713464E-1,-2.154062033E0
2.142129729E1,-6.441569328E-1,-5.716930628E-1,-2.181703568E0
2.143796323E1,-4.653262496E-1,-6.946296096E-1,-2.115195751E0
2.145462917E1,-2.282343507E-1,-1.026405573E0,-2.113592148E0
2.147129510E1,3.993528336E-2,-1.546785951E0,-2.186361313E0
2.148796104E1,1.756236255E-1,-1.990273833E0,-2.358472586E0
2.150462698E1,5.390881747E-2,-2.111759424E0,-2.482172728E0
2.152129292E1,5.291616172E-2,-1.539531946E0,-2.634125233E0
2.153795885E1,4.528035223E-2,-1.397735000E0,-2.824027777E0
2.155462479E1,4.253146052E-2,-1.229441762E0,-2.702007532E0
2.157129073E1,1.366809942E-2,-1.544800639E0,-2.467282772E0
2.158795667E1,-7.330377400E-2,-1.805716276E0,-2.354959965E0
2.160462260E1,-1.420260668E-1,-2.128787279E0,-2.400087833E0
2.162128854E1,-2.448040545E-1,-2.532340050E0,-3.301571369E0
2.163795448E1,-7.391463965E-2,-1.873522282E0,-3.920912027E0
2.165462042E1,4.563159943E-1,-1.365664601E0,-3.942903042E0
2.167128635E1,5.316814184E-1,-2.052047491E0,-3.605629444E0
2.168795229E1,3.765981495E-1,-1.662086725E0,-2.859763384E0
2.170461823E1,1.893680729E-2,-1.295262456E0,-2.018984556E0
2.172128417E1,-1.666897237E-1,-1.218293428E0,-1.395978689E0
2.173795010E1,-4.714348912E-1,-9.579123259E-1,-9.663881063E-1
2.175461604E1,-1.145600557E0,-7.638863921E-1,-6.919570565E-1
2.177128198E1,-1.922849655E0,-7.474694252E-1,-6.100248694E-1
2.178794792E1,-2.272722483E0,-1.000214696E0,-7.535780668E-1
2.180461385E1,-1.927812934E0,-7.404444814E-1,-1.005025268E0
2.182127979E1,-1.344284296E0,1.103374511E-1,-1.146516800E0
2.183794573E1,-1.022053123E0,9.224821925E-1,-1.121776819E0
2.185461167E1,-1.115362763E0,1.303432703E0,-9.803616405E-1
2.187127760E1,-1.250821948E0,1.200578332E0,-8.680388331E-1
2.188794354E1,-1.106657863E0,7.499128580E-1,-8.516218662E-1
2.190460948E1,-7.159335017E-1,1.186604798E-1,-8.168025613E-1
2.192127542E1,-1.016326249E-1,-3.450622559E-1,-6.285798550E-1
2.193794135E1,4.276053309E-1,-4.478402436E-1,-4.111883640E-1
2.195460729E1,5.764272809E-1,-3.290270567E-1,-3.167333901E-1
2.197127323E1,3.013090491E-1,-1.077412739E-1,-4.066068828E-1
2.198793917E1,-2.693913579E-1,1.494327933E-1,-5.409971476E-1
2.200460510E1,-7.648026943E-1,2.880991101E-1,-5.775726438E-1
2.202127104E1,-8.633810282E-1,2.280816436E-1,-4.767799675E-1
2.203793698E1,-3.903425932E-1,1.843284518E-1,-3.734674454E-1
2.205460292E1,2.599993348E-1,2.660316229E-1,-3.022253513E-1
2.207126885E1,4.792997837E-1,4.284452796E-1,-3.437641561E-1
2.208793479E1,2.414443046E-1,5.592467189E-1,-3.955349326E-1
2.210460073E1,-1.037706509E-1,8.263473511E-1,-4.812087417E-1
2.212126667E1,-3.504073024E-1,1.048091292E0,-4.783834815E-1
2.213793260E1,-3.810268939E-1,1.075351119E0,-3.648389876E-1
2.215459854E1,-6.849320978E-2,1.022282243E0,-1.900553107E-1
2.217126448E1,3.760636151E-1,1.007163286E0,6.872228812E-3
2.218793042E1,6.682097316E-1,8.300888538E-1,1.314886510E-1
2.220459635E1,6.004800797E-1,3.100902438E-1,1.382081509E-1
2.222126229E1,2.322049737E-1,-3.236056268E-1,-6.742420048E-2
2.223792823E1,-1.036942974E-1,-4.979311526E-1,-3.973675370E-1
2.225459417E1,-3.379609287E-1,-1.129336283E-1,-5.846739411E-1
2.227126010E1,-5.183951259E-1,5.277107954E-1,-5.932260752E-1
2.228792604E1,-5.665007234E-1,9.466876984E-1,-4.389063418E-1
2.230459198E1,-4.489856064E-1,1.003192663E0,-2.338084877E-1
2.232125792E1,-1.735619605E-1,8.849903345E-1,-1.605047137E-1
2.233792385E1,2.228892893E-1,6.136900187E-1,-2.083048970E-1
2.235458979E1,5.474875569E-1,1.519526094E-1,-1.832594275E-1
2.237125573E1,5.959749222E-1,5.604684353E-2,-6.498073786E-2
2.238792167E1,4.227947891E-1,1.367573589E-1,1.355356276E-1
2.240458760E1,2.780961990E-1,3.646862805E-1,3.278053105E-1
2.242125354E1,2.154825479E-1,4.134027362E-1,4.298197329E-1
2.243791948E1,2.825249732E-1,2.331212759E-1,4.603629708E-1
2.245458542E1,4.634936452E-1,1.176678315E-1,4.748710096E-1
2.247125135E1,2.068540901E-1,8.313869834E-1,6.507236958E-1
2.248791729E1,-4.305832982E-1,9.187406301E-1,1.056185246E0
2.250458323E1,-9.854776263E-1,6.241511106E-1,1.487837553E0
2.252124917E1,-1.204396248E0,-4.815905094E-1,1.538997412E0
2.253791510E1,-6.084976792E-1,-1.348102212E0,9.233984947E-1
2.255458104E1,2.871064544E-1,-1.109101415E0,2.088394016E-1
2.257124698E1,8.482621312E-1,-7.474694252E-1,1.756236190E-3
2.258791292E1,8.723912835E-1,-6.600393653E-1,1.556178033E-1
2.260457885E1,5.510764122E-1,-1.952476501E-1,2.730565667E-1
2.262124479E1,2.249509543E-1,1.217911690E-1,1.372154951E-1
2.263791073E1,5.520690605E-2,2.397644222E-1,-1.348484010E-1
2.265457667E1,5.520690605E-2,1.616500914E-1,-3.378082216E-1
2.267124260E1,1.604283601E-1,8.704823256E-2,-3.975202441E-1
2.268790854E1,2.105956376E-1,8.567378670E-2,-3.978256881E-1
2.270457448E1,1.279761642E-1,1.861610413E-1,-4.096612036E-1
2.272124042E1,-2.550360374E-2,2.975675166E-1,-4.306596816E-1
2.273790635E1,-1.589011997E-1,2.995528281E-1,-3.983601928E-1
2.275457229E1,-1.891390085E-1,7.185296714E-2,-3.855320215E-1
2.277123823E1,-1.507308781E-1,-1.684459597E-1,-4.835758209E-1
2.278790417E1,-1.429423541E-1,-2.525162399E-1,-6.394227147E-1
2.280457010E1,-1.686750352E-1,-1.270598769E-1,-7.379246354E-1
2.282123604E1,-1.381317973E-1,9.315688163E-2,-7.247910500E-1
2.283790198E1,-5.398517475E-2,1.848629564E-1,-6.256782413E-1
2.285456792E1,-7.635809598E-4,1.831830740E-1,-5.029708147E-1
2.287123385E1,1.916588284E-2,8.628465235E-2,-4.343248606E-1
2.288789979E1,1.313359290E-1,-8.307760954E-2,-4.985420108E-1
2.290456573E1,3.065013885E-1,-8.330668509E-2,-5.643627048E-1
2.292123167E1,1.782961637E-1,7.536543906E-2,-2.786307037E-1
2.293789760E1,-5.689441562E-1,-2.590066791E-1,-5.650499370E-3
2.295456354E1,-1.184543133E0,-3.284161687E-1,-7.261654735E-2
2.297122948E1,-1.124678373E0,-2.344193608E-1,-1.763108522E-1
2.298789542E1,-5.823832154E-1,-1.122464053E-2,-1.899025887E-1
2.300456135E1,1.382081583E-2,1.840230078E-2,-2.790125012E-1
2.302122729E1,2.821431756E-1,-1.346956789E-1,-3.850739002E-1
2.303789323E1,3.145953640E-2,-4.104247689E-1,-3.732383847E-1
2.305455917E1,-5.219839811E-1,-4.883100390E-1,-2.025780380E-1
2.307122510E1,-1.040684462E0,-3.981311321E-1,-1.488982886E-2
2.308789104E1,-1.334205031E0,-4.148535430E-1,2.748891478E-3
2.310455698E1,-1.255556226E0,-1.805105358E-1,-1.290451828E-2
2.312122292E1,-9.044616818E-1,1.146898642E-1,1.031597927E-1
2.313788885E1,-5.183951259E-1,1.445458829E-1,2.251036763E-1
2.315455479E1,-1.561523080E-1,-4.207331315E-2,2.652680278E-1
2.317122073E1,1.026252806E-1,-1.712712198E-1,2.551124096E-1
2.318788667E1,5.742128938E-2,-3.189477623E-1,2.654971182E-1
2.320455260E1,-2.335030586E-1,-3.303251266E-1,3.440696001E-1
2.322121854E1,-5.170970559E-1,-6.612611562E-2,4.476875365E-1
2.323788448E1,-6.562978625E-1,2.816086709E-1,4.744128585E-1
2.325455042E1,-6.862302423E-1,4.821250141E-1,4.006509483E-1
2.327121635E1,-6.848557591E-1,4.081340432E-1,2.565632164E-1
2.328788229E1,-6.015490890E-1,1.777616441E-1,1.207985133E-1
2.330454823E1,-4.041634202E-1,6.902772188E-2,6.238456443E-2
2.332121417E1,-1.689804643E-1,-4.757109284E-2,4.871646687E-2
2.333788010E1,1.160643101E-1,-1.526398361E-1,2.580903657E-2
2.335454604E1,4.289797843E-1,-2.025016695E-1,-3.917170316E-2
2.337121198E1,6.327795386E-1,-3.058141768E-1,-1.398116797E-1
2.338787792E1,5.939132571E-1,-4.007273018E-1,-1.833357960E-1
2.340454385E1,2.875646055E-1,-3.013854027E-1,-9.476039559E-2
2.342120979E1,-3.634645417E-2,1.366809905E-1,5.322159454E-2
2.343787573E1,-2.163988501E-1,5.417606831E-1,1.383608729E-1
2.345454167E1,-2.300669402E-1,5.745946765E-1,1.330158114E-1
2.347120760E1,-1.168278903E-1,4.088212550E-1,1.202640012E-1
2.348787354E1,2.351829410E-2,3.329212964E-1,1.224020272E-1
2.350453948E1,1.394298822E-1,2.626718581E-1,1.460730433E-1
2.352120542E1,2.728274763E-1,2.180787325E-1,1.992946416E-1
2.353787135E1,4.109592736E-1,2.957349122E-1,1.993709952E-1
2.355453729E1,5.270236135E-1,3.924042583E-1,1.446985900E-1
2.357120323E1,4.866301417E-1,4.770853817E-1,1.099556610E-1
2.358786917E1,2.936732471E-1,5.891790986E-1,1.359174103E-1
2.360453510E1,1.167515293E-1,7.449495792E-1,1.567631811E-1
2.362120104E1,-7.101302966E-3,7.977893949E-1,1.366809905E-1
2.363786698E1,-4.917461425E-2,7.998510599E-1,1.539379209E-1
2.365453292E1,-5.551233515E-2,7.218894362E-1,2.147953212E-1
2.367119885E1,-7.452550530E-2,4.762454629E-1,3.197113574E-1
2.368786479E1,-2.817613818E-2,1.069013327E-1,4.432587624E-1
2.370453073E1,3.504836559E-2,-2.176205814E-1,4.528798759E-1
2.372119667E1,2.901607659E-3,-3.447568119E-1,3.452149630E-1
2.373786260E1,-2.662606835E-1,-4.354702234E-1,2.440404743E-1
2.375452854E1,-7.974076271E-1,-3.032943606E-1,3.310123384E-1
2.377119448E1,-9.246202111E-1,4.561632872E-1,4.508182108E-1
2.378786042E1,-4.751764536E-1,1.070693254E0,5.941423774E-1
2.380452635E1,-1.191186346E-2,5.878809690E-1,6.764563918E-1
2.382119229E1,4.316523373E-1,3.305542171E-1,7.567850947E-1
2.383785823E1,7.725148797E-1,1.537852138E-1,9.279799461E-1
2.385452417E1,5.525271893E-1,6.566796452E-2,1.046716809E0
2.387119010E1,1.028543562E-1,-1.193477064E-1,1.019151568E0
2.388785604E1,-4.100430012E-2,4.960985482E-1,7.005855441E-1
2.390452198E1,-1.623373181E-1,7.144063711E-1,7.064651251E-1
2.392118792E1,-4.043924809E-1,7.092140317E-1,5.203804374E-1
2.393785385E1,-3.601047993E-1,5.151880980E-1,4.121046662E-1
2.395451979E1,-5.444332212E-2,5.073232055E-1,5.745183229E-1
2.397118573E1,2.152534723E-1,5.415316224E-1,7.538834810E-1
2.398785167E1,3.039052188E-1,5.151117444E-1,7.577013969E-1
2.400451760E1,3.837758005E-1,5.507709384E-1,7.754928470E-1
2.402118354E1,5.148062706E-1,6.564505696E-1,9.394336939E-1
2.403784948E1,5.600866675E-1,6.959276795E-1,1.045876861E0
2.405451542E1,5.326740742E-1,6.275871992E-1,1.001741886E0
2.407118135E1,4.546361268E-1,6.020072699E-1,9.263764620E-1
2.408784729E1,3.441459537E-1,6.282744408E-1,8.840740323E-1
2.410451323E1,2.525925934E-1,8.255837560E-1,9.069051147E-1
2.412117917E1,2.448804229E-1,1.061224818E0,1.126587391E0
2.413784510E1,3.462076187E-1,1.139797330E0,1.351309299E0
2.415451104E1,6.106356978E-1,9.912807941E-1,1.393153429E0
2.417117698E1,8.412371874E-1,1.117958903E0,1.382234335E0
2.418784292E1,1.003879905E0,1.255250812E0,1.418657064E0
2.420450885E1,1.213330150E0,1.411021233E0,1.397276878E0
2.422117479E1,1.458210588E0,1.599778533E0,1.216002703E0
2.423784073E1,1.784641504E0,1.775860310E0,1.268078923E0
2.425450667E1,2.166508198E0,1.721493363E0,1.565722823E0
2.427117260E1,2.624580622E0,1.599473119E0,1.868177176E0
2.428783854E1,2.797684431E0,1.501200199E0,2.004247427E0
2.430450448E1,2.844339132E0,1.428736329E0,2.121533394E0
2.432117042E1,2.650847673E0,1.198974848E0,1.984470606E0
2.433783635E1,1.787848473E0,1.521511436E0,1.479819894E0
2.435450229E1,1.728212833E0,1.747378707E0,1.532430649E0
2.437116823E1,1.959272385E0,1.556177974E0,1.690568328E0
2.438783417E1,2.062203169E0,1.495320678E0,1.741422772E0
2.440450010E1,2.370918989E0,1.392313600E0,2.154825449E0
2.442116604E1,2.811199665E0,1.318933368E0,2.689103127E0
2.443783198E1,2.920391798E0,1.232419729E0,2.964068651E0
2.445449792E1,2.697578907E0,1.263573766E0,2.888626814E0
2.447116385E1,2.299218655E0,1.233030558E0,2.494160891E0
2.448782979E1,1.941710114E0,9.916626215E-1,2.180863619E0
2.450449573E1,1.621769667E0,7.124210596E-1,2.098091364E0
2.452116167E1,1.314351916E0,5.720748901E-1,2.334190607E0
2.453782760E1,1.117577076E0,3.552942276E-1,2.763399601E0
2.455449354E1,1.030528903E0,1.565340906E-2,3.068373680E0
2.457115948E1,1.133154154E0,-1.792124510E-1,3.291110277E0
2.458782542E1,1.173547626E0,-6.101011857E-2,3.597153664E0
2.460449135E1,1.020067811E0,1.356883347E-1,3.989863396E0
2.462115729E1,6.256018877E-1,4.176788032E-2,4.422584534E0
2.463782323E1,3.605629504E-1,-6.716458201E-1,4.783758640E0
2.465448917E1,3.287216127E-1,-1.157207012E0,4.848204613E0
2.467115510E1,3.437641561E-1,-9.602030516E-1,4.513908863E0
2.468782104E1,-7.788525894E-3,-3.740019500E-1,4.182209492E0
2.470448698E1,-4.523453712E-1,4.012618065E-1,4.077140808E0
2.472115292E1,-5.911644101E-1,1.180572510E0,4.137310982E0
2.473781885E1,-4.000400603E-1,1.647426009E0,4.105774879E0
2.475448479E1,-1.697440445E-1,1.644982457E0,3.686721563E0
2.477115073E1,-2.128100246E-1,1.651854753E0,2.778900146E0
2.478781667E1,-4.347830117E-1,1.593058944E0,1.874820352E0
2.480448260E1,-5.093848705E-1,1.682474375E0,1.701945662E0
2.482114854E1,-4.677697122E-1,1.912999392E0,2.204611063E0
2.483781448E1,-5.633700490E-1,2.020435333E0,2.676733017E0
2.485448042E1,-7.567850947E-1,1.890321016E0,2.277609348E0
2.487114635E1,-8.497892618E-1,2.000582218E0,1.179121733E0
2.488781229E1,-7.212786078E-1,2.251189470E0,7.543416619E-1
2.490447823E1,-4.928915203E-1,2.003254652E0,1.196989536E0
2.492114417E1,-3.006981909E-1,1.638339281E0,1.716530085E0
2.493781010E1,-2.322049737E-1,1.496542335E0,1.954843640E0
2.495447604E1,-2.181550860E-1,1.649105787E0,1.939495683E0
2.497114198E1,-1.696676910E-1,1.948658705E0,1.439960957E0
2.498780792E1,-7.864884287E-2,1.907577991E0,6.152935624E-1
2.500447385E1,1.466075517E-2,1.621387839E0,4.628064334E-1
2.502113979E1,-8.796452731E-2,1.752418280E0,8.368847370E-1
2.503780573E1,-3.034470677E-1,2.003560066E0,1.031292439E0
2.505447167E1,-6.962331533E-1,1.567402720E0,6.723330617E-1
2.507113760E1,-1.350698352E0,9.325614572E-1,1.277471036E-1
2.508780354E1,-1.442251801E0,1.200272918E0,2.474002391E-1
2.510446948E1,-1.204090834E0,1.532583356E0,3.288743198E-1
2.512113542E1,-7.079922557E-1,1.794720769E0,-5.551233515E-2
2.513780135E1,-2.397644334E-2,2.269820690E0,-2.621373534E-1
2.515446729E1,5.167152286E-1,2.455294609E0,-1.362228394E-1
2.517113323E1,7.648790479E-1,2.469497204E0,2.448040545E-1
2.518779917E1,7.704532146E-1,2.521191597E0,7.428115606E-1
2.520446510E1,4.996110201E-1,1.877263784E0,8.471930623E-1
2.522113104E1,-2.267071903E-1,7.193696499E-1,-1.091920808E-1
2.523779698E1,-6.186532974E-1,2.651916742E-1,-6.847030520E-1
2.525446292E1,-5.182424188E-1,3.321577311E-1,-5.613083839E-1
2.527112885E1,-2.606101930E-1,3.767508566E-1,-3.865246773E-1
2.528779479E1,-6.788235158E-2,9.285144508E-2,-3.467421234E-1
2.530446073E1,-1.172096804E-1,3.770562708E-1,-2.191477418E-1
2.532112667E1,-3.516290486E-1,1.417511702E0,1.169806048E-1
2.533779260E1,-2.418260872E-1,1.881539822E0,3.798051775E-1
2.535445854E1,1.160643101E-1,2.005621672E0,3.168097436E-1
2.537112448E1,4.489856064E-1,1.767079115E0,2.572504282E-1
2.538779042E1,5.422952175E-1,1.447978616E0,2.255618125E-1
2.540445635E1,2.889390290E-1,1.276249290E0,2.160170525E-1
2.542112229E1,-1.062904745E-1,1.122845769E0,2.190713882E-1
2.543778823E1,-3.182605505E-1,1.050382018E0,1.997527778E-1
2.545445417E1,-3.652207851E-1,9.683734179E-1,2.887863219E-1
2.547112010E1,-3.493382931E-1,8.420007229E-1,4.573086500E-1
2.548778604E1,-1.597411335E-1,8.387173414E-1,5.380191803E-1
2.550445198E1,1.675296724E-1,9.454659820E-1,4.583776593E-1
2.552111792E1,4.349357188E-1,9.002619982E-1,3.061959743E-1
2.553778385E1,4.212676287E-1,6.518690586E-1,2.938259542E-1
2.555444979E1,9.918916970E-2,4.268417656E-1,4.712821841E-1
2.557111573E1,-1.946367919E-1,4.564687014E-1,5.707004070E-1
2.558778167E1,-2.827540338E-1,5.788707137E-1,5.645917654E-1
2.560444760E1,-2.121227980E-1,5.185478330E-1,5.096902847E-1
2.562111354E1,-7.009673119E-2,4.248564541E-1,4.198931754E-1
2.563777948E1,1.992946304E-2,2.904661894E-1,3.824777007E-1
2.565444542E1,-1.389717404E-2,2.176205814E-2,4.996110201E-1
2.567111135E1,-2.733619884E-2,-1.372154951E-1,6.075050235E-1
2.568777729E1,1.238528341E-1,-1.763872057E-1,6.301833987E-1
2.570444323E1,3.326158822E-1,-1.011744812E-1,5.006800294E-1
2.572110917E1,4.767036140E-1,-1.275180187E-2,3.407861888E-1
2.573777510E1,4.434878230E-1,-1.069013379E-3,2.926805913E-1
2.575444104E1,2.273180634E-1,1.548542231E-1,3.388772309E-1
2.577110698E1,-2.130390890E-2,4.242455959E-1,4.282925725E-1
2.578777292E1,-1.476765573E-1,6.017781496E-1,4.706713259E-1
2.580443885E1,-1.061377525E-1,6.188060045E-1,5.844448805E-1
2.582110479E1,-4.123337101E-3,6.491202116E-1,8.890373111E-1
2.583777073E1,-5.581776798E-2,8.962149620E-1,9.357684851E-1
2.585443667E1,-2.689332068E-1,8.743765950E-1,6.912698746E-1
2.587110260E1,-4.117228687E-1,7.307469845E-1,4.784598351E-1
2.588776854E1,-3.624718785E-1,6.536253095E-1,4.259254634E-1
2.590443448E1,-2.785543501E-1,2.990946770E-1,3.691150546E-1
2.592110042E1,-2.014326602E-1,-3.228420317E-1,1.724165827E-1
2.593776635E1,4.306596518E-2,-5.547415614E-1,1.435532235E-2
2.595443229E1,1.320231557E-1,-7.541889548E-1,-1.154534444E-1
2.597109823E1,-5.337430909E-2,-4.612792730E-1,2.626718581E-2
2.598776417E1,-2.981020212E-1,-1.922696829E-1,3.015381396E-1
2.600443010E1,-4.635699987E-1,-1.902843714E-1,2.519817352E-1
2.602109604E1,-4.914407134E-1,-3.301724195E-1,2.167806327E-1
2.603776198E1,-3.998109996E-1,-2.772562504E-1,1.326340139E-1
2.605442792E1,-2.330449075E-1,-9.399681538E-2,-1.626427472E-2
2.607109385E1,-1.446985900E-1,1.401171088E-1,-1.040760875E-1
2.608775979E1,-1.833357960E-1,4.791470468E-1,-1.030834317E-1
2.610442573E1,-2.083048970E-1,6.491965652E-1,-8.918625861E-2
2.612109167E1,-1.388953775E-1,4.605920315E-1,-5.085449293E-2
2.613775760E1,-1.824958436E-2,1.439350098E-1,-4.337139800E-2
2.615442354E1,8.468113095E-2,-1.556941569E-1,-6.314814836E-2
2.617108948E1,1.471420527E-1,-3.085630834E-1,-9.590577334E-2
2.618775542E1,1.389717311E-1,-2.619082630E-1,-1.559995860E-1
2.620442135E1,9.980003536E-2,-1.051450968E-1,-1.580612659E-1
2.622108729E1,5.765036494E-2,-5.268708803E-3,-1.088102907E-1
2.623775323E1,-1.840230078E-2,-5.635227636E-2,-3.932442144E-2
2.625441917E1,-8.086322248E-2,-1.303432733E-1,2.924515121E-2
2.627108510E1,-7.002037764E-2,-9.407317638E-2,4.352411628E-2
2.628775104E1,2.390008420E-2,-1.075885594E-1,-2.504545636E-2
2.630441698E1,2.522871494E-1,-1.106428802E-1,-1.427132785E-1
2.632108292E1,5.062541962E-1,-9.949459881E-2,-1.979965419E-1
2.633774885E1,7.220421433E-1,-1.004872546E-1,-2.036470473E-1
2.635441479E1,8.103121519E-1,-2.005163580E-1,-1.482874304E-1
2.637108073E1,6.380482912E-1,-4.096612036E-1,-7.819069177E-2
2.638774667E1,2.990183234E-1,-4.711294472E-1,-3.604102135E-2
2.640441260E1,-9.170607477E-2,-3.082576394E-1,-3.688096255E-2
2.642107854E1,-3.143662810E-1,-9.873101860E-2,-4.741837829E-2
2.643774448E1,-3.829358518E-1,-5.482511222E-2,-1.144607887E-1
2.645441042E1,-3.254382014E-1,-2.970330045E-2,-2.226602137E-1
2.647107635E1,-2.647335231E-1,-3.336848691E-2,-3.294851780E-1
2.648774229E1,-2.695440948E-1,-9.621120058E-3,-5.449677706E-1
2.650440823E1,-2.531270981E-1,9.048434347E-2,-7.647263408E-1
2.652107417E1,-2.300669402E-1,1.394298822E-1,-7.069232464E-1
2.653774010E1,-1.856265366E-1,1.830303669E-1,-6.520981789E-1
2.655440604E1,-1.134681329E-1,1.042288020E-1,-5.339722037E-1
2.657107198E1,1.985310577E-3,-2.168569900E-2,-4.683805704E-1
2.658773792E1,1.559232324E-1,-1.317177117E-1,-4.672352076E-1
2.660440385E1,1.802051067E-1,-2.470184416E-1,-5.900190473E-1
2.662106979E1,1.893680841E-1,2.993237413E-2,-5.992583632E-1
2.663773573E1,9.552398324E-2,4.787652567E-2,-4.424188137E-1
2.665440167E1,1.511890348E-2,1.524107605E-1,-3.853793144E-1
2.667106760E1,1.153007243E-2,2.548833191E-1,-3.778198659E-1
2.668773354E1,4.734201822E-3,3.465894163E-1,-3.438405097E-1
2.670439948E1,-3.955349326E-2,4.696786702E-1,-2.941313982E-1
2.672106542E1,-1.130099874E-2,4.534907341E-1,-2.012035847E-1
2.673773135E1,9.918916970E-2,2.247982323E-1,-1.754709035E-1
2.675439729E1,2.124282271E-1,-4.413498193E-2,-1.508836001E-1
2.677106323E1,2.902371287E-1,-1.483637840E-1,-1.224020272E-1
2.678772917E1,2.997818887E-1,-1.608865112E-1,-7.101303339E-2
2.680439510E1,2.178496569E-1,-1.208748668E-1,-3.237583488E-2
2.682106104E1,7.696896046E-2,-6.467530876E-2,-1.295796931E-1
2.683772698E1,-6.200277433E-2,-3.000873141E-2,-3.240637779E-1
2.685439292E1,-1.882227063E-1,-8.277218044E-2,-3.112356067E-1
2.687105885E1,-2.318231910E-1,-3.642281145E-2,-2.859610617E-1
2.688772479E1,-1.200349256E-1,1.043051630E-1,-3.003927469E-1
2.690439073E1,3.672824427E-2,1.277471036E-1,-2.893971801E-1
2.692105667E1,5.894844979E-2,-1.325576603E-1,-2.497673333E-1
2.693772260E1,2.046396956E-2,-3.429242074E-1,-1.657734364E-1
2.695438854E1,-3.940077871E-2,-3.296379149E-1,-1.251509190E-1
2.697105448E1,-1.710421443E-1,-3.099375069E-1,-4.925097153E-2
2.698772042E1,-2.927569449E-1,-2.562577724E-1,4.917461425E-2
2.700438635E1,-3.255909383E-1,-1.656970680E-1,1.146898642E-1
2.702105229E1,-2.705367506E-1,-9.285144508E-2,1.308777779E-1
2.703771823E1,-1.565341055E-1,3.817904741E-2,1.314886510E-1
2.705438417E1,-3.054323897E-4,2.356410921E-1,1.499672979E-1
2.707105010E1,1.979201883E-1,4.202749729E-1,1.814268380E-1
2.708771604E1,4.055378437E-1,4.960985482E-1,1.960875988E-1
2.710438198E1,5.681806207E-1,4.094321132E-1,1.838703007E-1
2.712104792E1,6.240747571E-1,2.109010667E-1,1.629481763E-1
2.713771385E1,5.455022454E-1,8.704823442E-3,1.398880333E-1
2.715437979E1,3.397171795E-1,-9.995274991E-2,3.756818548E-2
2.717104573E1,2.024253160E-1,-6.238456443E-2,8.773545176E-2
2.718771167E1,5.787943676E-2,-8.559742570E-2,1.524107605E-1
2.720437760E1,1.908952370E-2,7.070759684E-2,8.437569439E-2
2.722104354E1,1.836412251E-1,2.520580888E-1,1.664606482E-2
2.723770948E1,3.391063213E-1,1.852447391E-1,-5.726857111E-3
2.725437542E1,2.916115820E-1,-1.840230078E-2,6.734783947E-2
2.727104135E1,8.804088831E-2,-5.849030241E-2,2.057087123E-1
2.728770729E1,-1.078939885E-1,1.351538301E-2,3.001636863E-1
2.730437323E1,-1.162933856E-1,5.154171586E-2,2.475529462E-1
2.732103917E1,4.482220486E-2,-5.138900131E-2,8.513928205E-2
2.733770510E1,1.533270627E-1,-2.484692484E-1,-8.216131479E-2
2.735437104E1,7.338013500E-2,-4.566214085E-1,-1.511126757E-1
2.737103698E1,-8.521563560E-2,-5.346593857E-1,-1.259908676E-1
2.738770292E1,-1.375209391E-1,-4.510472715E-1,-6.513345987E-2
2.740436885E1,4.016435891E-2,-1.806632578E-1,-1.000291109E-2
2.742103479E1,2.594648004E-1,6.658425927E-2,6.948586553E-2
2.743770073E1,2.704603672E-1,-4.123337101E-3,1.957058012E-1
2.745436667E1,1.788306683E-1,-1.276707351E-1,2.605338395E-1
2.747103260E1,7.108938694E-2,-1.904370934E-1,2.455676347E-1
2.748769854E1,-7.796161622E-2,-2.547306120E-1,2.235001475E-1
2.750436448E1,-2.024253160E-1,-3.109301627E-1,2.047160566E-1
2.752103042E1,-2.664133906E-1,-3.781253099E-1,1.653916389E-1
2.753769635E1,-2.662606835E-1,-4.063014388E-1,8.750637621E-2
2.755436229E1,-2.047160566E-1,-3.291034102E-1,1.519526169E-2
2.757102823E1,-8.590286225E-2,-2.145662606E-1,-4.589121789E-2
2.758769417E1,4.864010960E-2,-1.355356276E-1,-1.504254490E-1
2.760436010E1,1.673769504E-1,-9.644027799E-2,-2.484692484E-1
2.762102604E1,1.474474818E-1,-6.940951198E-2,-2.432005405E-1
2.763769198E1,-3.359756200E-3,3.962985426E-2,-1.517999023E-1
2.765435792E1,-8.391755074E-2,1.733328849E-1,-5.665770918E-2
2.767102385E1,-1.588248461E-2,2.217439115E-1,-6.772962958E-2
2.768768979E1,9.117157012E-2,1.085048541E-1,-1.356119812E-1
2.770435573E1,1.714239269E-1,4.360047355E-2,-1.993709952E-1
2.772102167E1,2.103665620E-1,1.193477064E-1,-2.514472008E-1
2.773768760E1,1.808923334E-1,2.147953212E-1,-2.436586916E-1
2.775435354E1,8.529199660E-2,2.597702444E-1,-2.128863782E-1
2.777101948E1,-5.345067009E-3,3.013090491E-1,-1.837939471E-1
2.778768542E1,-1.411861181E-1,2.948949635E-1,-1.394298822E-1
2.780435135E1,-2.454912812E-1,3.085630834E-1,-1.452330947E-1
2.782101729E1,-2.289215773E-1,3.423897028E-1,-1.774562150E-1
2.783768323E1,-1.608865112E-1,3.210094273E-1,-2.008218020E-1
2.785434917E1,-1.365282834E-1,2.234237939E-1,-2.343430072E-1
2.787101510E1,-1.825722158E-1,8.078686893E-2,-2.407570779E-1
2.788768104E1,-2.774853408E-1,5.039634649E-3,-1.763872057E-1
2.790434698E1,-3.949240744E-1,4.321868345E-2,-1.222493127E-1
2.792101292E1,-4.057669342E-1,1.687513888E-1,-1.330921650E-1
2.793767885E1,-2.964221239E-1,2.088394016E-1,-1.634063274E-1
2.795434479E1,-1.249982044E-1,1.368337125E-1,-1.415679157E-1
2.797101073E1,8.093958348E-2,2.451094985E-2,-1.056032479E-1
2.798767667E1,3.154352903E-1,-8.300124854E-2,-9.124792367E-2
2.800434260E1,4.862483740E-1,-2.407570779E-1,-9.468404204E-2
2.802100854E1,4.841103256E-1,-4.477638900E-1,-1.159879491E-1
2.803767448E1,4.276817143E-1,-5.045742989E-1,-1.295033395E-1
2.805434042E1,3.663661480E-1,-4.014145136E-1,-1.986074150E-1
2.807100635E1,2.394589931E-1,-2.657261789E-1,-2.493855506E-1
2.808767229E1,-1.794415340E-2,-8.651372790E-2,-2.299905866E-1
2.810433823E1,-3.052033186E-1,1.681405306E-1,-2.121991515E-1
2.812100417E1,-4.530325830E-1,2.040288299E-1,-2.124282271E-1
2.813767010E1,-4.109592736E-1,-4.612028971E-2,-1.837939471E-1
2.815433604E1,-2.461021543E-1,-3.944659233E-1,-1.532506943E-1
2.817100198E1,-4.902189970E-2,-6.161335111E-1,-1.996000707E-1
2.818766792E1,1.339320987E-1,-6.317868829E-1,-2.722166181E-1
2.820433385E1,3.222311735E-1,-5.323686600E-1,-2.787070572E-1
2.822099979E1,3.207803667E-1,-5.508472919E-1,-2.795470059E-1
2.823766573E1,1.792888194E-1,-5.783362389E-1,-3.282634616E-1
2.825433167E1,-3.817904799E-4,-5.916225314E-1,-3.834703565E-1
2.827099760E1,-1.815031916E-1,-6.192641854E-1,-4.804451466E-1
2.828766354E1,-3.371210098E-1,-5.886445642E-1,-5.614610910E-1
2.830432948E1,-3.845393658E-1,-3.806451261E-1,-5.690969229E-1
2.832099542E1,-3.534616232E-1,-2.495382577E-1,-5.229002237E-1
2.833766135E1,-2.643517256E-1,-2.392299175E-1,-4.723511934E-1
2.835432729E1,-1.588248461E-1,-2.483165264E-1,-4.314996004E-1
2.837099323E1,-3.054323839E-3,-6.620246917E-2,-4.360810816E-1
2.838765917E1,1.354592592E-1,1.801287532E-1,-4.227947891E-1
2.840432510E1,1.886808574E-1,2.957349122E-1,-3.514763117E-1
2.842099104E1,5.558869615E-2,1.485928595E-1,-2.432768941E-1
2.843765698E1,-2.269362658E-1,-1.434005052E-1,-1.603520066E-1
2.845432292E1,-4.463130832E-1,-3.366628587E-1,-1.233946830E-1
2.847098885E1,-4.717403352E-1,-4.042397738E-1,-1.485928595E-1
2.848765479E1,-3.517817557E-1,-4.230238497E-1,-1.986074150E-1
2.850432073E1,-1.395062506E-1,-2.569449842E-1,-2.508363426E-1
2.852098667E1,2.069304511E-2,4.734201822E-3,-2.559523284E-1
2.853765260E1,2.283107117E-2,1.266017258E-1,-1.328630894E-1
2.855431854E1,-4.718930274E-2,2.301433086E-1,-1.473711245E-2
2.857098448E1,-6.612611562E-2,2.373973280E-1,2.748891525E-2
2.858765042E1,-3.207040019E-3,1.296560466E-1,5.650499370E-3
2.860431635E1,5.711585656E-2,-8.628465235E-3,-9.201150388E-2
2.862098229E1,6.559160352E-2,-9.468404204E-2,-1.325576603E-1
2.863764823E1,6.795870513E-2,-4.398226365E-2,-1.424842030E-1
2.865431417E1,7.376192510E-2,1.140789986E-1,-1.266780794E-1
2.867098010E1,7.605266571E-2,2.925278842E-1,-6.803506613E-2
2.868764604E1,9.812015295E-2,3.946950138E-1,-1.343902480E-2
2.870431198E1,1.820377111E-1,3.594175577E-1,2.061668551E-3
2.872097792E1,2.935205400E-1,2.382372618E-1,-1.046105940E-2
2.873764385E1,2.956585586E-1,1.243109852E-1,-3.627009690E-2
2.875430979E1,1.515708268E-1,9.437860548E-2,1.320995111E-2
2.877097573E1,-9.086613543E-3,1.623373181E-1,7.574722916E-2
2.878764167E1,1.496618707E-2,2.832121849E-1,4.925097153E-2
2.880430760E1,2.211330533E-1,3.872882724E-1,-1.206457894E-2
2.882097354E1,3.817141354E-1,3.927860558E-1,-1.069013402E-2
2.883763948E1,3.141372204E-1,3.920988441E-1,6.956222653E-2
2.885430542E1,1.718820781E-1,4.206567705E-1,8.529199660E-2
2.887097135E1,-1.221729536E-2,3.138317764E-1,3.978256881E-2
2.888763729E1,-1.844811589E-1,1.298087686E-1,-2.764163166E-2
2.890430323E1,-2.504545450E-1,2.565632015E-2,-7.284562290E-2
2.892096917E1,-3.601811528E-1,-1.724929363E-1,3.817904973E-3
2.893763510E1,-3.480401933E-1,-2.121227980E-1,7.406735420E-2
2.895430104E1,-1.246164143E-1,-1.160643063E-2,5.978839099E-2
2.897096698E1,9.422589093E-2,2.121991515E-1,8.529199660E-2
2.898763292E1,1.931859851E-1,3.213148713E-1,1.530216336E-1
2.900429885E1,1.556178033E-1,3.397935331E-1,2.223547846E-1
2.902096479E1,6.872228812E-3,2.344957143E-1,2.821431756E-1
2.903763073E1,-1.159115955E-1,1.900553107E-1,2.740492225E-1
2.905429667E1,-1.544724256E-1,1.197294965E-1,2.651916742E-1
2.907096260E1,-1.870773435E-1,-6.337722391E-2,3.061959743E-1
2.908762854E1,-2.256381810E-1,-1.624900252E-1,3.594175577E-1
2.910429448E1,-2.209039778E-1,-1.572976857E-1,3.285689056E-1
2.912096042E1,-2.170860767E-1,-1.572213173E-1,2.348775119E-1
2.913762635E1,-2.448804229E-1,-1.137735620E-1,1.747836918E-1
2.915429229E1,-2.737437785E-1,-8.681915700E-2,1.968511790E-1
2.917095823E1,-2.491564751E-1,-1.327103674E-1,2.139553875E-1
2.918762417E1,-1.320231557E-1,-2.188423127E-1,1.866191924E-1
2.920429010E1,-6.719512399E-3,-3.057378232E-1,1.165224537E-1
2.922095604E1,1.244636998E-2,-3.390299380E-1,1.001054645E-1
2.923762198E1,-9.812015295E-2,-2.846629918E-1,1.611919403E-1
2.925428792E1,-1.924224049E-1,-1.734092385E-1,1.848629564E-1
2.927095385E1,-1.644753367E-1,-9.315688163E-2,2.089921087E-1
2.928761979E1,-2.794706449E-2,-4.604393244E-2,2.063195854E-1
2.930428573E1,1.896735132E-1,-3.436114267E-2,1.814268380E-1
2.932095167E1,3.438405097E-1,-1.757763475E-1,1.280525327E-1
2.933761760E1,2.563341260E-1,-4.393644929E-1,1.154534444E-1
2.935428354E1,1.908952370E-2,-5.234347582E-1,1.401171088E-1
2.937094948E1,-1.685986817E-1,-3.844630122E-1,1.318704337E-1
2.938761542E1,-2.309832424E-1,-2.036470473E-1,9.361502528E-2
2.940428135E1,-2.186132371E-1,-2.009745091E-1,1.127809063E-1
2.942094729E1,-1.305723488E-1,-3.572031856E-1,1.424078494E-1
2.943761323E1,5.115992390E-3,-5.558105707E-1,1.117118970E-1
2.945427917E1,1.689041108E-1,-6.555342674E-1,9.896009415E-2
2.947094510E1,3.003927469E-1,-6.624828577E-1,1.065959036E-1
2.948761104E1,4.123337269E-1,-6.273581386E-1,4.864010960E-2
2.950427698E1,5.191587210E-1,-5.203804374E-1,-2.664897591E-2
2.952094292E1,5.635991096E-1,-4.237110913E-1,-9.636391699E-2
2.953760885E1,5.051088333E-1,-3.938550651E-1,-1.870773435E-1
2.955427479E1,3.950767815E-1,-4.218784869E-1,-2.563341260E-1
2.957094073E1,2.310595959E-1,-5.006036758E-1,-3.544542789E-1
2.958760667E1,3.718639165E-2,-3.820959330E-1,-4.188241661E-1
2.960427260E1,-1.034652218E-1,-1.761581302E-1,-3.717112243E-1
2.962093854E1,-1.563813835E-1,7.635809743E-5,-2.504545450E-1
2.963760448E1,-2.540434003E-1,6.604975462E-2,-4.688387364E-2
2.965427042E1,-3.245218992E-1,9.880737960E-2,1.360701323E-1
2.967093635E1,-1.292742640E-1,1.123227626E-1,1.382081509E-1
2.968760229E1,1.945604384E-1,-2.496909723E-2,-5.574141163E-3
2.970426823E1,3.872882724E-1,-3.180314898E-1,-1.926514804E-1
2.972093417E1,4.447095692E-1,-3.940077722E-1,-2.934441566E-1
2.973760010E1,3.760636151E-1,-1.585957706E-1,-2.250273079E-1
2.975426604E1,2.885572612E-1,2.030361742E-1,-7.055488229E-2
2.977093198E1,1.384372264E-1,3.280344009E-1,3.741546720E-2
2.978759792E1,-4.058432877E-1,6.918043494E-1,1.046869531E-1
2.980426385E1,-3.253618479E-1,8.852958083E-1,9.178243577E-2
2.982092979E1,5.154171586E-2,5.350412130E-1,-9.376774728E-2
2.983759573E1,4.130209386E-1,-8.124501258E-2,-1.999054998E-1
