"Time (s)","Linear Acceleration x (m/s^2)","Linear Acceleration y (m/s^2)","Linear Acceleration z (m/s^2)"
3.334314800E-2,0.000000000E0,0.000000000E0,0.000000000E0
5.000908500E-2,2.259078622E-1,-5.543565750E-2,1.981067657E-1
6.667502300E-2,-9.614139795E-2,1.403427124E-2,1.903848648E-1
8.334096000E-2,-5.790681839E-1,1.156892776E-1,2.842140198E-2
1.000068980E-1,-7.664588690E-1,1.415414810E-1,-3.514537811E-1
1.166728350E-1,-4.737830162E-1,-2.024314404E-1,-7.931222916E-1
1.333387730E-1,-3.466496468E-1,1.016786098E-1,-5.064096451E-1
1.500047100E-1,-3.215888739E-1,5.493364334E-1,-1.897935867E-1
1.666706480E-1,-3.448966742E-1,6.041140556E-1,1.996603012E-1
1.833365850E-1,1.320499182E-1,-7.345747948E-2,-1.887083054E-1
2.000025230E-1,5.080936551E-1,-1.017680764E0,-4.397535324E-1
2.166684600E-1,1.251869202E-1,-2.158918381E-1,2.993698120E-1
2.333343980E-1,-5.789035559E-1,7.378368378E-1,8.287973404E-1
2.500003350E-1,-7.144424319E-1,4.576957226E-1,8.720865250E-1
2.666662730E-1,-3.142126799E-1,-1.741034985E-1,2.094697952E-1
2.833322100E-1,4.031325877E-2,-8.885300159E-1,-9.979181290E-1
2.999981480E-1,-3.979425728E-1,-5.524497032E-1,-1.081398964E0
3.166640850E-1,-6.319327950E-1,1.388063431E-1,-1.074579239E0
3.333300230E-1,-2.938055992E-1,3.538622856E-1,-3.736181259E-1
3.499959600E-1,4.312477708E-1,1.252791882E-1,-1.373224258E-1
3.666618980E-1,7.384003401E-1,9.865951538E-2,4.251918793E-1
3.833278350E-1,3.725414276E-1,3.204536438E-2,-4.010257721E-1
3.999937730E-1,3.584948778E-1,3.002631664E-2,-7.358589172E-1
4.166597100E-1,6.059228182E-1,-3.425133228E-1,-4.536399841E-1
4.333256480E-1,4.735572338E-1,-1.952292919E-1,-5.506935120E-1
4.499915850E-1,-2.106373310E-1,2.057514191E-1,-1.372230530E0
4.666575230E-1,-2.299526930E-1,-3.734888434E-1,-2.660026550E-1
4.833234600E-1,6.547472477E-1,-1.280431747E-1,1.148767471E-1
4.999893980E-1,5.586075783E-1,4.517813921E-1,1.549940109E-1
5.166553350E-1,3.208823204E-1,7.418735027E-1,9.845209122E-1
5.333212730E-1,-5.704480410E-1,8.371316195E-1,6.258230209E-1
5.499872100E-1,-1.608839035E-1,6.478606462E-1,-9.404993057E-1
5.666531480E-1,8.057584763E-1,1.062655449E-1,-1.355291367E0
5.833190850E-1,8.540740013E-1,-1.705392748E-1,-1.457129478E0
5.999850230E-1,1.279609203E-1,-2.253346443E0,1.371383667E-1
6.166509600E-1,-8.013343215E-1,-2.882188082E0,1.583154678E0
6.333168980E-1,-1.724639416E0,-8.861656785E-1,1.240329742E0
6.499828350E-1,-6.983516216E-1,-5.124436617E-1,2.288646698E-1
6.666487730E-1,-4.861354828E-2,-5.984991789E-1,-2.279148102E-1
6.833147100E-1,-5.012247562E-1,-3.552106619E-1,-3.183403015E-1
6.999806480E-1,-5.024046898E-1,-4.075003266E-1,2.263641357E-1
7.166465850E-1,-3.200532198E-1,-7.225236297E-2,4.429330826E-1
7.333125230E-1,1.558427811E-1,1.032649279E0,1.108183861E0
7.499784600E-1,9.572956562E-1,-3.734097481E-1,1.185643196E0
7.666443980E-1,4.347598553E-1,7.328239083E-2,1.229603767E0
7.833103350E-1,-3.492412567E-1,-1.600970328E-1,3.850336075E-1
7.999762730E-1,-4.187312126E-1,-8.370485306E-1,-4.955644608E-1
8.166422100E-1,-9.894323349E-2,-1.307966709E0,-9.483966827E-1
8.333081480E-1,-8.982620239E-1,-5.266821384E-1,3.471317291E-1
8.499740850E-1,-6.616189480E-1,-1.675606072E-1,5.379390717E-1
8.666400230E-1,-5.754828453E-2,-1.380993128E-1,8.083086014E-1
8.833059600E-1,2.206611633E-2,4.298723936E-1,4.670591354E-1
8.999718980E-1,-3.362348080E-1,2.901806831E-1,-1.895093918E-1
9.166378350E-1,-9.499120712E-2,1.244540215E-1,-4.051103592E-1
9.333037730E-1,-5.249667168E-2,2.722721100E-1,-4.744167328E-1
9.499697100E-1,-2.793264389E-2,3.911700249E-1,-2.796354294E-1
9.666356480E-1,9.375119209E-2,2.778875828E-1,-7.715797424E-2
9.833015850E-1,1.926250458E-1,4.879733324E-1,2.683496475E-1
9.999675230E-1,-8.913064003E-2,3.548934460E-1,-2.108764648E-2
1.016633460E0,-1.429734230E-1,-1.124758720E-1,-4.704666138E-1
1.033299398E0,-4.019818306E-1,2.953640223E-1,-1.996393204E-1
1.049965335E0,-7.384204865E-2,1.104885340E-1,1.708583832E-1
1.066631273E0,2.208609581E-1,2.933492661E-1,6.392545700E-1
1.083297210E0,5.339355469E-1,9.207177162E-2,1.941909790E-1
1.099963148E0,4.346876144E-1,-9.763979912E-2,-3.534641266E-1
1.116629085E0,-3.357815742E-2,4.793097973E-1,-1.188374996E0
1.133295023E0,-5.668747425E-1,4.180724621E-1,-6.840457916E-1
1.149960960E0,-5.743265152E-1,3.683278561E-1,-3.005599976E-2
1.166626898E0,1.440668106E-1,7.123460770E-1,-3.567066193E-1
1.183292835E0,3.487477303E-1,-1.014058590E-1,-5.339736938E-1
1.199958773E0,2.616357803E-2,-2.479470968E-1,8.647060394E-2
1.216624710E0,-6.807756424E-2,2.162052393E-1,-4.646682739E-2
1.233290648E0,5.073218346E-1,3.038020134E-1,-5.736227036E-1
1.249956585E0,4.275591373E-1,4.912257195E-3,-1.173987389E0
1.266622523E0,8.469843864E-2,-1.469120979E-1,-6.963653564E-1
1.283288460E0,4.095578194E-2,-3.600826859E-1,2.644090652E-1
1.299954398E0,6.903667450E-1,-5.201335549E-1,5.043182373E-1
1.316620335E0,9.818639755E-1,-2.885038853E-1,2.084951401E-1
1.333286273E0,7.054185867E-1,-2.150118947E-1,7.508563995E-2
1.349952210E0,4.283466339E-1,-2.952314615E-1,3.466386795E-1
1.366618148E0,-2.519264221E-1,-2.397298217E-1,1.488628387E-1
1.383284085E0,-6.169400215E-1,1.738417149E-2,8.110046387E-3
1.399950023E0,-3.988735676E-1,2.864410877E-1,-2.556171417E-1
1.416615960E0,-1.253666878E-1,-4.009795785E-1,3.621683121E-1
1.433281898E0,2.875950336E-1,-5.669917464E-1,4.476871490E-1
1.449947835E0,-1.066665649E-1,-1.554116011E-1,1.474266052E-1
1.466613773E0,1.139569283E-1,5.761551857E-2,-3.805761337E-1
1.483279710E0,3.463373184E-1,3.706624508E-1,-9.380559921E-1
1.499945648E0,4.469573498E-1,6.635158062E-1,-7.269706726E-1
1.516611585E0,7.158868313E-1,-7.519649863E-1,-1.513122082E0
1.533277523E0,1.915895939E-1,-1.646814346E0,3.947572708E-1
1.549943460E0,-1.036916494E0,1.382484078E0,1.677528381E0
1.566609398E0,4.478709698E-1,-2.780978680E-1,1.702468872E0
1.583275335E0,6.200902462E-1,-4.348554611E-1,7.160053253E-1
1.599941273E0,5.364336967E-1,1.610056162E-1,-8.743095398E-1
1.616607210E0,1.550087452E0,-1.636299014E0,-8.617382050E-1
1.633273148E0,-5.904150009E-1,-3.552364111E-1,3.305387497E-1
1.649939085E0,-1.375791311E0,1.425318480E0,1.514444351E0
1.666605023E0,4.857404232E-1,1.021176457E0,5.367231369E-1
1.683270960E0,7.087280750E-1,-6.096285582E-1,-5.826969147E-1
1.699936898E0,-1.253499985E-1,-4.059553146E-3,-1.228116989E0
1.716602835E0,-8.064107895E-1,6.990644932E-1,-8.687915802E-1
1.733268773E0,-7.174952030E-1,2.991340160E-1,3.227663040E-1
1.749934710E0,-1.976392269E-1,-4.953900576E-1,1.450053215E0
1.766600648E0,-1.969087124E-1,-1.014586926E0,3.038228035E0
1.783266585E0,-1.189227104E-1,-2.753865004E0,4.054908752E0
1.799932523E0,-1.324796677E0,-1.943936586E0,2.600364685E-1
1.816598460E0,-5.992562771E-1,-5.400702953E-1,-2.950825214E0
1.833264398E0,-9.388256073E-2,-3.929452896E-1,-2.548586845E0
1.849930335E0,1.046433926E0,1.847443581E-1,-1.354333878E0
1.866596273E0,8.281750679E-1,5.658187866E-1,-5.225787163E-1
1.883262210E0,5.469555855E-1,3.678174019E-1,-1.628173828E0
1.899928148E0,-1.206569672E-1,8.939585686E-1,-2.620526791E0
1.916594085E0,-2.144165039E-1,1.010225296E0,-2.682939053E0
1.933260023E0,-3.104257584E-2,1.184887409E0,-9.556288719E-1
1.949925960E0,1.013441086E-1,2.295684814E-2,-2.137410641E0
1.966591898E0,1.099595308E0,-2.382493496E0,-3.735136509E0
1.983257835E0,-1.686843514E0,-3.635900021E-1,7.785639763E0
1.999923773E0,-1.633044243E0,1.890751123E0,9.157190323E-1
2.016589710E0,6.219699383E-1,6.953709126E-1,1.272249222E0
2.033255648E0,-1.945700645E-1,-1.947655678E-1,1.032116890E0
2.049921585E0,5.986995697E-1,-9.571409225E-2,-4.850997925E-1
2.066587523E0,-1.434679031E-1,5.748746395E-1,-1.826059818E0
2.083253460E0,-1.014840364E0,6.869382858E-1,-8.233261108E-1
2.099919398E0,-1.003072858E0,4.099586010E-1,1.113215446E0
2.116585335E0,1.590597630E-1,-1.466732025E-1,1.071080208E0
2.133251273E0,1.426482201E-2,-1.784753799E-1,9.163036346E-1
2.149917210E0,2.422745228E-1,-3.006935120E-2,-2.061033249E-1
2.166583148E0,5.584573746E-2,2.962417603E-1,-8.753080368E-1
2.183249085E0,3.887796402E-2,2.520558834E-1,-4.265890121E-1
2.199915023E0,1.593959332E-1,1.106381416E-1,3.490514755E-1
2.216580960E0,1.561799049E-1,1.381859779E-1,2.894124985E-1
2.233246898E0,6.943182945E-1,3.598051071E-1,2.983570099E-1
2.249912835E0,7.754552364E-1,5.272066593E-1,1.761846542E-1
2.266578773E0,3.493967056E-1,2.303884029E-1,-4.301958084E-1
2.283244710E0,-1.538310051E-1,3.398885727E-1,-7.873764038E-1
2.299910648E0,-2.755999565E-2,3.260123730E-1,-1.049383163E0
2.316576585E0,4.302945137E-1,7.793569565E-2,-1.203308582E0
2.333242523E0,7.075519562E-1,-2.332985401E-1,-6.370077133E-1
2.349908460E0,4.348673820E-1,-5.742707253E-1,3.151683807E-1
2.366574398E0,3.124260902E-1,3.307914734E-2,9.562129974E-1
2.383240335E0,1.726908684E-1,-1.325266361E-1,2.731800079E-2
2.399906273E0,4.160740376E-1,-9.213209152E-2,-6.947946548E-1
2.416572210E0,-2.044606209E-2,5.156040192E-2,1.442232132E-1
2.433238148E0,5.851848125E-1,-1.426424980E-1,1.664361954E-1
2.449904085E0,-2.126288414E-2,-3.172549009E-1,4.361839294E-1
2.466570023E0,-1.038832664E-1,-1.577966213E-1,2.449874878E-1
2.483235960E0,-2.375309467E-1,-5.087852478E-2,-1.595783234E-1
2.499901898E0,-8.958578110E-2,-2.083635330E-2,-2.509050369E-1
2.516567835E0,-8.097672462E-2,1.965305805E-1,-3.702716827E-1
2.533233773E0,1.300930977E-2,-2.283113003E-1,-2.311267853E-1
2.549899710E0,-9.004330635E-2,-1.436710358E-2,-8.087825775E-2
2.566565648E0,-2.442226410E-1,1.457896233E-1,-2.704973221E-1
2.583231585E0,-3.489456177E-1,-1.038494110E-1,-4.658489227E-1
2.599897523E0,-1.159191132E-1,-2.785835266E-1,-1.133289337E-1
2.616563460E0,-1.209602356E-1,-1.814072132E-1,1.253528595E-1
2.633229398E0,-1.182513237E-1,-1.181015968E-1,2.557096481E-1
2.649895335E0,-2.984068394E-1,9.575104713E-2,1.511077881E-1
2.666561273E0,-3.311326504E-1,2.952523232E-1,-8.201980591E-2
2.683227210E0,-8.263325691E-2,5.683856010E-1,7.574939728E-2
2.699893148E0,-1.305637360E-1,3.624064922E-1,1.175270081E-1
2.716559085E0,2.219645977E-1,7.821648121E-1,2.946729660E-1
2.733225023E0,4.802918434E-2,8.061051369E-1,2.306146622E-1
2.749890960E0,-1.666119099E-1,7.403044701E-1,2.302618027E-1
2.766556898E0,-4.739594460E-2,6.505398750E-1,-3.113651276E-2
2.783222835E0,5.827093124E-2,9.122226238E-1,3.442268372E-1
2.799888773E0,4.498171806E-2,9.157481194E-1,2.359285355E-1
2.816554710E0,1.939382553E-1,6.272783279E-1,4.348783493E-1
2.833220648E0,-7.921290398E-2,8.005776405E-1,2.623529434E-1
2.849886585E0,-2.129721642E-2,8.625946045E-1,-2.194423676E-1
2.866552523E0,2.045488358E-2,1.041981697E0,-7.042779922E-1
2.883218460E0,2.700462341E-1,8.379335403E-1,-8.710832596E-1
2.899884398E0,2.736153603E-1,6.655325890E-1,-5.092983246E-1
2.916550335E0,6.510353088E-2,3.479664326E-1,-9.923934937E-3
2.933216273E0,1.614763737E-1,1.642668247E-1,9.908294678E-2
2.949882210E0,5.791642666E-1,1.853942871E-1,-1.367597580E-1
2.966548148E0,8.109626770E-1,3.263354301E-1,-1.742477417E-1
2.983214085E0,1.020794392E0,2.062013149E-1,-2.757053375E-1
2.999880023E0,1.182119370E0,-7.774829865E-4,-4.010028839E-1
3.016545960E0,1.246435404E0,-2.660191059E-1,-6.327590942E-1
3.033211898E0,1.425604105E0,-3.055269718E-1,3.174781799E-3
3.049877835E0,1.719804525E0,-1.338212490E-1,4.742774963E-1
3.066543773E0,2.038775206E0,-2.778983116E-1,1.348638535E-1
3.083209710E0,1.366143227E0,-3.932945728E-1,-2.123250961E-1
3.099875648E0,1.502223253E0,-7.125878334E-1,2.849006653E-2
3.116541585E0,1.521481752E0,-8.412381411E-1,2.131538391E-1
3.133207523E0,1.596251011E0,-1.193935037E0,2.736053467E-1
3.149873460E0,1.275086164E0,-1.161071777E0,7.314023972E-1
3.166539398E0,9.594743252E-1,-9.749920368E-1,3.792400360E-1
3.183205335E0,9.141101837E-1,-1.208826661E0,-1.296825409E-1
3.199872292E0,5.962760448E-1,-1.005713701E0,-6.524910927E-1
3.216538229E0,2.043797970E-1,-1.098988771E0,-9.481577873E-1
3.233204167E0,-1.879172325E-1,-1.065921068E0,-1.050961494E0
3.249870104E0,-5.172755718E-1,-1.116674781E0,-7.624039650E-1
3.266536042E0,-7.285156250E-1,-1.176439881E0,-7.358961105E-1
3.283201979E0,-7.719781399E-1,-9.820208549E-1,-6.984167099E-1
3.299867917E0,-5.449502468E-1,-8.639223576E-1,-5.641164780E-1
3.316533854E0,-9.286556244E-1,-6.767063141E-1,-6.074094772E-1
3.333199792E0,-1.153441906E0,-6.114978790E-1,-7.564058304E-1
3.349865729E0,-1.132239580E0,-5.085909367E-1,-5.299878120E-1
3.366531667E0,-1.058175087E0,-4.365179539E-1,-1.028547287E-1
3.383197604E0,-1.271236420E0,-3.487284184E-1,2.608318329E-1
3.399863542E0,-1.581752300E0,-2.718355656E-1,2.159595490E-1
3.416529479E0,-1.687600851E0,-1.859629154E-1,9.649276733E-2
3.433195417E0,-1.740520954E0,-6.736707687E-2,2.675371170E-1
3.449861354E0,-1.574624300E0,3.589820862E-2,6.754035950E-1
3.466527292E0,-1.436645269E0,5.455946922E-2,1.346591949E0
3.483193229E0,-1.301916838E0,1.523263454E-1,1.971622467E0
3.499859167E0,-1.103295565E0,2.909176350E-1,2.185984612E0
3.516525104E0,-1.323767424E0,3.949730396E-1,2.017395020E0
3.533191042E0,-1.614364862E0,4.133701324E-1,1.830838203E0
3.549856979E0,-1.646691799E0,4.562461376E-1,1.497694969E0
3.566522917E0,-1.841626644E0,5.931203365E-1,1.239586830E0
3.583188854E0,-1.914496660E0,7.073814869E-1,1.117472649E0
3.599854792E0,-1.715706825E0,8.328008652E-1,1.218129158E0
3.616520729E0,-1.284096718E0,8.347840309E-1,1.411227226E0
3.633186667E0,-8.325288296E-1,7.057485580E-1,1.935285568E0
3.649852604E0,-7.120728493E-1,6.278791428E-1,2.291983604E0
3.666518542E0,-7.532262802E-1,5.688915253E-1,2.005846977E0
3.683184479E0,-7.749869823E-1,4.795234203E-1,1.263250351E0
3.699850417E0,-8.247694969E-1,3.190674782E-1,5.742864609E-1
3.716516354E0,-7.420718670E-1,2.884542942E-1,-1.246337891E-1
3.733182292E0,-6.792516708E-1,1.781775951E-1,-6.683335304E-1
3.749848229E0,-5.124783516E-1,2.385721207E-1,-5.854506493E-1
3.766514167E0,-1.384472847E-1,2.298345566E-1,1.332569122E-2
3.783180104E0,2.643938065E-1,1.501061916E-1,7.744426727E-1
3.799846042E0,5.767140388E-1,-1.846981049E-2,1.275620461E0
3.816511979E0,5.020794868E-1,-1.951932907E-3,9.985265732E-1
3.833177917E0,3.546147346E-1,-8.992218971E-2,4.529771805E-1
3.849843854E0,1.289491653E-1,-1.909570694E-1,-1.476116180E-1
3.866509792E0,-1.238412857E-1,-3.109457493E-1,-7.557082176E-1
3.883175729E0,-8.807182312E-2,-4.866819382E-1,-1.117756844E0
3.899841667E0,-5.069398880E-2,-7.033917904E-1,-1.186679840E0
3.916507604E0,-1.957044601E-1,-7.469353676E-1,-8.026604652E-1
3.933173542E0,-1.933479309E-1,-7.817671299E-1,-4.797072411E-1
3.949839479E0,-6.029415131E-2,-8.136944771E-1,-3.524570465E-1
3.966505417E0,1.700019836E-1,-7.447457314E-1,-3.167214394E-1
3.983171354E0,1.411051750E-1,-7.075576782E-1,-3.171544075E-1
3.999837292E0,1.941075325E-1,-6.543271542E-1,-3.082413673E-1
4.016503229E0,6.172266006E-1,-5.872538090E-1,-1.986799240E-1
4.033169167E0,8.859696388E-1,-5.000431538E-1,2.950677872E-1
4.049835104E0,8.026142120E-1,-3.076004982E-1,7.201309204E-1
4.066501042E0,7.370867729E-1,-2.971842289E-1,8.731307983E-1
4.083166979E0,5.701837540E-1,-3.437683582E-1,7.816019058E-1
4.099832917E0,2.178101540E-1,-4.348127842E-1,3.338079453E-1
4.116498854E0,-2.990245819E-3,-4.616978168E-1,-2.041149139E-1
4.133164792E0,-4.027843475E-2,-3.945250511E-1,-5.825524330E-1
4.149830729E0,-6.934499741E-2,-3.685438633E-1,-7.774052620E-1
4.166496667E0,3.556776047E-2,-3.165538311E-1,-5.706772804E-1
4.183162604E0,1.530380249E-1,-1.226313114E-1,-3.863081932E-1
4.199828542E0,7.819557190E-2,-1.556012630E-1,-3.008198738E-1
4.216494479E0,4.632759094E-2,-1.599066257E-1,-3.176026344E-1
4.233160417E0,8.087062836E-2,-7.738351822E-3,-5.613560677E-1
4.249826354E0,-9.226322174E-3,-1.882743835E-2,-6.977133751E-1
4.266492292E0,-6.059455872E-2,2.580761909E-2,-5.384216309E-1
4.283158229E0,-2.131223679E-2,1.552298069E-1,-3.875155449E-1
4.299824167E0,-7.980346680E-3,1.668205261E-1,-1.838679314E-1
4.316490104E0,1.865258217E-1,7.795238495E-2,2.529144287E-3
4.333156042E0,4.882383347E-2,1.263012886E-1,1.308631897E-1
4.349821979E0,-1.755065918E-1,1.376693249E-1,3.573703766E-2
4.366487917E0,-1.972365379E-1,1.256005764E-1,9.533500671E-2
4.383153854E0,8.391380310E-2,-1.122951508E-2,1.391220093E-1
4.399819792E0,2.678394318E-3,9.147071838E-2,1.300935745E-1
4.416485729E0,-2.100291252E-1,2.175877094E-1,-6.886005402E-2
4.433151667E0,-1.800932884E-1,2.385890484E-1,5.659770966E-2
4.449817604E0,2.165126801E-2,1.809580326E-1,2.375402451E-1
4.466483542E0,1.059761047E-1,2.058491707E-1,1.065063477E-1
4.483149479E0,2.196311951E-2,3.682541847E-1,1.432895660E-2
4.499815417E0,-4.645776749E-2,3.129451275E-1,-1.267814636E-1
4.516481354E0,-2.758073807E-2,2.063884735E-1,5.631256104E-2
4.533147292E0,-4.757404327E-3,1.528031826E-1,1.848783493E-1
4.549813229E0,-1.180996895E-1,3.198993206E-1,-3.714275360E-2
4.566479167E0,-1.983561516E-1,3.284788132E-1,-3.040633202E-1
4.583145104E0,-2.550644875E-1,2.449424267E-1,-4.279446602E-1
4.599811042E0,-3.220043182E-1,2.252418995E-1,-5.233139992E-1
4.616476979E0,-4.302988052E-1,2.705688477E-1,-5.798506737E-1
4.633142917E0,-3.398075104E-1,2.473404408E-1,-5.849232674E-1
4.649808854E0,-4.544701576E-1,3.797247410E-1,-5.167698860E-1
4.666474792E0,-6.634812355E-1,5.383458138E-1,-6.037011147E-1
4.683140729E0,-9.177274704E-1,7.152323723E-1,-6.738390923E-1
4.699806667E0,-1.095831394E0,8.696985245E-1,-7.566146851E-1
4.716472604E0,-1.303532124E0,9.366668463E-1,-8.574681282E-1
4.733138542E0,-1.480025530E0,9.301064014E-1,-8.331408501E-1
4.749804479E0,-1.543916464E0,1.117344022E0,-5.127873421E-1
4.766470417E0,-1.451215744E0,1.273006797E0,-3.181171417E-2
4.783136354E0,-9.245219231E-1,1.697363257E0,1.756801605E-1
4.799802292E0,-4.623646736E-1,2.143846273E0,9.702301025E-2
4.816468229E0,-1.495943069E-1,2.425709486E0,2.686576843E-1
4.833134167E0,-3.433704376E-3,2.542615652E0,1.445818901E0
4.849800104E0,6.683778763E-2,2.550149918E0,2.601387024E0
4.866466042E0,5.673742294E-2,2.553412914E0,3.079234123E0
4.883131979E0,-3.809070587E-2,2.611883879E0,2.757779121E0
4.899797917E0,-1.426353455E-1,2.692823410E0,1.944372177E0
4.916463854E0,-2.221684456E-1,2.623494625E0,1.075837135E0
4.933129792E0,-2.742705345E-1,2.532206059E0,3.462667465E-1
4.949795729E0,-3.694491386E-1,2.283127785E0,-2.206897736E-2
4.966461667E0,-5.075583458E-1,2.000989914E0,-1.988468170E-1
4.983127604E0,-5.121948719E-1,1.674184203E0,-5.900430679E-1
4.999793542E0,-3.578503132E-1,1.435243368E0,-1.074615955E0
5.016459479E0,-9.824848175E-2,1.157169580E0,-1.590749264E0
5.033125417E0,2.122707367E-1,7.454178333E-1,-2.059531689E0
5.049791354E0,7.533650398E-1,1.604235172E-1,-2.471229553E0
5.066457292E0,1.212280750E0,-3.738133013E-1,-3.207300663E0
5.083123229E0,1.513527393E0,-8.186315894E-1,-3.628571033E0
5.099789167E0,1.751513958E0,-1.233486176E0,-4.128189564E0
5.116455104E0,1.832117081E0,-1.626640320E0,-4.442795277E0
5.133121042E0,1.567989826E0,-1.930624008E0,-4.618366241E0
5.149786979E0,1.383471966E0,-2.348650694E0,-4.822042465E0
5.166452917E0,1.407466888E0,-2.804367065E0,-5.069577217E0
5.183118854E0,1.816277981E0,-3.169966459E0,-4.798163414E0
5.199784792E0,2.764327526E0,-3.176918268E0,-3.974047184E0
5.216450729E0,3.762428761E0,-2.717100859E0,-2.615885735E0
5.233116667E0,5.571262360E0,-1.861037254E0,-7.589387894E-2
5.249782604E0,7.545670509E0,-1.010668755E0,4.312891483E0
5.266448542E0,8.709572792E0,-2.996939421E-1,8.459277153E0
5.283114479E0,8.289104462E0,1.438601732E0,1.154291725E1
5.299780417E0,6.759918213E0,4.711673737E0,1.527147770E1
5.316446354E0,5.173707485E0,6.290497780E0,1.767626190E1
5.333112292E0,2.764017105E0,6.777360916E0,2.015764427E1
5.349778229E0,-1.094626427E0,7.772757530E0,2.048534012E1
5.366444167E0,-5.286927223E0,9.033512115E0,1.718110085E1
5.383110104E0,-9.273445129E0,1.077588367E1,1.299430656E1
5.399776042E0,-1.255369377E1,1.231241798E1,9.949788094E0
5.416441979E0,-1.388980103E1,1.291332245E1,6.818728447E0
5.433107917E0,-1.391404343E1,1.288466072E1,3.131916046E0
5.449773854E0,-1.280150795E1,1.250367165E1,-3.902425766E-1
5.466439792E0,-1.020262527E1,1.197117710E1,-2.653820753E0
5.483105729E0,-7.789838314E0,1.135007191E1,-2.693848372E0
5.499771667E0,-6.635477543E0,1.096922302E1,1.473322392E0
5.516437604E0,-5.602504730E0,1.098530960E1,9.591203690E0
5.533103542E0,-2.273632288E0,1.157270718E1,1.812829590E1
5.549769479E0,3.572428226E0,1.212625313E1,2.809306908E1
5.566435417E0,1.211714649E1,9.720586777E0,3.619801331E1
5.583101354E0,2.091314507E1,4.277016640E0,3.554312134E1
5.599767292E0,2.287651062E1,-3.211596489E0,2.461121559E1
5.616433229E0,1.938993835E1,-9.510397911E0,1.203282356E1
5.633099167E0,1.221020794E1,-1.312883377E1,4.238670349E0
5.649765104E0,4.283850670E0,-1.472064209E1,5.451054573E-1
5.666431042E0,-4.926028252E-1,-1.650273132E1,-1.008116245E0
5.683096979E0,-2.827424765E0,-1.775497627E1,-2.488116264E0
5.699762917E0,-3.051388741E0,-1.873576164E1,-3.926950693E0
5.716428854E0,-2.421639442E0,-2.031174660E1,-4.087568760E0
5.733094792E0,-2.627388477E0,-2.219339371E1,-3.919890642E0
5.749760729E0,-4.773972034E0,-2.264448166E1,-4.198429108E0
5.766426667E0,-6.189683437E0,-2.288089752E1,-5.547995090E0
5.783092604E0,-6.811758995E0,-2.226285172E1,-6.273193359E0
5.799758542E0,-5.033637524E0,-2.243080711E1,-5.377475739E0
5.816424479E0,-2.118058205E0,-2.164751434E1,-3.422497749E0
5.833090417E0,8.841190338E-1,-2.082103157E1,-1.396680355E0
5.849756354E0,4.841131687E0,-1.915971375E1,-9.364461899E-2
5.866422292E0,9.992994308E0,-1.453374481E1,1.995697975E0
5.883088229E0,1.675545311E1,-6.661371231E0,6.807631016E0
5.899754167E0,2.000340652E1,4.751178265E0,1.774414444E1
5.916420104E0,2.365315437E1,1.019600105E1,3.003023720E1
5.933086042E0,2.115654373E1,1.095491028E1,3.113296700E1
5.949751979E0,1.237119675E1,1.295597458E1,2.263648605E1
5.966417917E0,4.281031609E0,1.363997841E1,1.307442856E1
5.983083854E0,-1.796657085E0,1.385257530E1,5.480961800E0
5.999749792E0,-5.038887024E0,1.346146202E1,9.722232819E-1
6.016415729E0,-5.414062023E0,1.247021103E1,-1.645650864E0
6.033081667E0,-5.713262558E0,1.062151051E1,-2.988272905E0
6.049747604E0,-7.335752964E0,9.051138878E0,-3.757464647E0
6.066413542E0,-9.721490860E0,8.264506340E0,-4.594765186E0
6.083079479E0,-1.218835831E1,8.195347786E0,-5.710589409E0
6.099745417E0,-1.440436935E1,8.302892685E0,-6.653310299E0
6.116411354E0,-1.514419270E1,8.182106018E0,-6.869051933E0
6.133077292E0,-1.467352200E1,7.590199471E0,-5.049569607E0
6.149743229E0,-1.276395893E1,6.847288132E0,-4.978246689E-1
6.166409167E0,-9.576860428E0,6.112306595E0,4.146760941E0
6.183075104E0,-5.202004433E0,6.714642525E0,8.230138779E0
6.199741042E0,-3.599457741E-1,8.276653290E0,1.236421776E1
6.216406979E0,4.754615307E0,9.610609055E0,1.982901001E1
6.233072917E0,7.551159859E0,8.761700630E0,2.787814522E1
6.249738854E0,1.068614292E1,6.161938667E0,3.196593094E1
6.266404792E0,1.687825584E1,1.486303806E0,3.063210487E1
6.283070729E0,2.028480911E1,-4.241188049E0,2.228250504E1
6.299736667E0,1.643987274E1,-8.479974747E0,1.198262978E1
6.316402604E0,8.748167038E0,-1.131971836E1,4.224278450E0
6.333068542E0,2.079721928E0,-1.259175873E1,-3.766207695E-1
6.349734479E0,-1.998323321E0,-1.411467361E1,-1.843697309E0
6.366400417E0,-3.232473850E0,-1.666360092E1,-2.794036865E0
6.383066354E0,-3.173779249E0,-1.898579788E1,-4.108449459E0
6.399732292E0,-3.677289963E0,-2.040203094E1,-5.199761868E0
6.416398229E0,-4.523402691E0,-2.099093056E1,-6.570265293E0
6.433064167E0,-5.143054008E0,-2.085746002E1,-8.153062820E0
6.449730104E0,-5.105749607E0,-2.018458939E1,-9.103261948E0
6.466396042E0,-4.521785259E0,-1.900192261E1,-8.779042244E0
6.483061979E0,-3.568881989E0,-1.753780937E1,-7.059967041E0
6.499727917E0,-2.848713160E0,-1.634426308E1,-5.126139641E0
6.516393854E0,-1.939983845E0,-1.570881271E1,-3.564860821E0
6.533059792E0,-2.796187401E-1,-1.482530594E1,-2.606026649E0
6.549725729E0,2.738381386E0,-1.322110462E1,-1.576928616E0
6.566391667E0,6.515012264E0,-9.608648300E0,3.903670311E-1
6.583057604E0,1.055761242E1,-3.676385880E0,5.152501583E0
6.599723542E0,1.449229622E1,2.323406696E0,1.271157169E1
6.616389479E0,1.601597977E1,8.034824371E0,2.065265656E1
6.633055417E0,1.817566681E1,1.206858253E1,2.971049690E1
6.649721354E0,1.953307343E1,1.108380318E1,3.067446327E1
6.666387292E0,1.414634895E1,9.357618332E0,2.057215500E1
6.683053229E0,5.003380299E0,7.946340561E0,8.612571716E0
6.699719167E0,-2.190871716E0,7.088110924E0,2.231175900E0
6.716385104E0,-6.285621643E0,6.256110191E0,-5.326886177E-1
6.733051042E0,-8.143176079E0,5.322813988E0,-2.879850864E0
6.749716979E0,-9.715297699E0,5.233221054E0,-5.116859436E0
6.766382917E0,-1.119302654E1,6.159780502E0,-7.943849087E0
6.783048854E0,-1.260449123E1,7.235887527E0,-1.048027897E1
6.799714792E0,-1.453057384E1,8.296613693E0,-1.033714867E1
6.816380729E0,-1.578747559E1,8.677055359E0,-6.964043140E0
6.833046667E0,-1.622644234E1,8.278031349E0,-7.174844742E-1
6.849712604E0,-1.587571335E1,7.322799683E0,5.700807095E0
6.866378542E0,-1.279181862E1,6.474082470E0,7.351181984E0
6.883044479E0,-7.236329079E0,6.582569122E0,5.472824574E0
6.899710417E0,-1.602849007E0,8.308514595E0,4.917335510E0
6.916376354E0,2.604131699E0,9.431800842E0,9.641936302E0
6.933042292E0,5.559396267E0,8.561935425E0,1.970640373E1
6.949708229E0,7.723494530E0,6.669599056E0,2.842914581E1
6.966374167E0,1.121798515E1,4.182648182E0,3.105867767E1
6.983040104E0,1.709163857E1,4.146418571E-1,2.741035080E1
6.999706042E0,1.977788162E1,-3.753386259E0,1.888777924E1
7.016371979E0,1.513952637E1,-7.606153011E0,9.944503784E0
7.033037917E0,7.613377571E0,-1.031103611E1,3.564921379E0
7.049703854E0,1.294836521E0,-1.163997841E1,5.759344101E-1
7.066369792E0,-2.580926418E0,-1.354533386E1,-3.221988678E-3
7.083035729E0,-4.040580750E0,-1.654709244E1,-3.094339371E-1
7.099701667E0,-3.888988972E0,-1.973622894E1,-1.305660605E0
7.116367604E0,-4.121833324E0,-2.211590004E1,-3.920494080E0
7.133033542E0,-4.690305710E0,-2.392662811E1,-7.668355942E0
7.149699479E0,-5.086668491E0,-2.476574898E1,-1.042443848E1
7.166365417E0,-5.749943733E0,-2.425572968E1,-1.049573708E1
7.183031354E0,-5.138391018E0,-2.422154617E1,-8.001591682E0
7.199697292E0,-4.510485172E0,-2.398110962E1,-4.248041153E0
7.216363229E0,-3.250253677E0,-2.287575912E1,-7.758313417E-1
7.233029167E0,-8.074030876E-1,-2.108487892E1,8.903117180E-1
7.249695104E0,4.434875965E0,-1.782479095E1,1.210388660E0
7.266361042E0,1.128864765E1,-1.233376122E1,2.750840187E0
7.283026979E0,1.835615921E1,-4.106194496E0,8.664854050E0
7.299692917E0,2.499018478E1,2.962859392E0,2.039953995E1
7.316358854E0,2.835681343E1,8.633063316E0,3.109835052E1
7.333024792E0,2.518726730E1,1.358905792E1,3.237244034E1
7.349690729E0,1.720914268E1,1.587843418E1,2.535029411E1
7.366356667E0,7.035859108E0,1.513109589E1,1.740425301E1
7.383022604E0,-2.208761215E0,1.290063190E1,1.105873489E1
7.399688542E0,-8.400052071E0,1.137521935E1,5.744353294E0
7.416354479E0,-1.202019882E1,1.170084858E1,5.606727600E-1
7.433020417E0,-1.509286785E1,1.340979862E1,-3.851611853E0
7.449686354E0,-1.673163033E1,1.545495415E1,-6.441653252E0
7.466352292E0,-1.777894402E1,1.745782280E1,-6.933001518E0
7.483018229E0,-1.776618958E1,1.807345581E1,-5.719282627E0
7.499684167E0,-1.608473587E1,1.737470818E1,-1.913254499E0
7.516350104E0,-1.443414688E1,1.569301605E1,4.706867695E0
7.533016042E0,-1.109055614E1,1.417844296E1,1.121286964E1
7.549681979E0,-4.759938240E0,1.340555573E1,1.655233383E1
7.566347917E0,2.728653431E0,1.328887558E1,2.221312904E1
7.583013854E0,1.054724503E1,1.192530537E1,2.905763817E1
7.599679792E0,1.791775894E1,8.756338120E0,3.574643326E1
7.616345729E0,2.511655617E1,1.159885406E0,3.718746948E1
7.633011667E0,2.943684006E1,-7.339319229E0,2.948110390E1
7.649677604E0,2.507053375E1,-1.434367180E1,1.683802032E1
7.666343542E0,1.338266945E1,-1.934412003E1,6.955782890E0
7.683009479E0,1.793715477E0,-2.256562996E1,1.856801987E0
7.699675417E0,-5.945138454E0,-2.419232178E1,-6.704552174E-1
7.716341354E0,-7.243205070E0,-2.633936691E1,-2.792060375E0
7.733007292E0,-6.824931145E0,-2.820082283E1,-5.853451729E0
7.749673229E0,-6.806943417E0,-2.945956039E1,-8.704711914E0
7.766339167E0,-7.373150349E0,-2.999869156E1,-1.009184933E1
7.783005104E0,-8.553574562E0,-2.978196335E1,-1.051699448E1
7.799671042E0,-8.905597687E0,-2.853004074E1,-7.421952724E0
7.816336979E0,-5.594742298E0,-2.740496063E1,-1.907680750E0
7.833002917E0,-1.303506851E0,-2.552059937E1,1.906881690E0
7.849668854E0,2.782375336E0,-2.429511642E1,2.041936159E0
7.866334792E0,7.979256630E0,-2.232978249E1,1.947672367E0
7.883000729E0,1.579991245E1,-1.786339760E1,4.859906197E0
7.899666667E0,2.433719254E1,-9.005880356E0,1.151786995E1
7.916332604E0,3.047032166E1,5.662635565E-1,2.383677864E1
7.932998542E0,3.457613373E1,7.677762032E0,3.679499054E1
7.949664479E0,3.190230560E1,1.304194355E1,3.744517517E1
7.966330417E0,2.160096550E1,1.657401848E1,2.710195160E1
7.982996354E0,8.161456108E0,1.701535606E1,1.520945168E1
7.999662292E0,-2.552917004E0,1.635564423E1,7.675063133E0
8.016328229E0,-8.689438820E0,1.575139236E1,3.810660839E0
8.032994167E0,-1.218436146E1,1.536211777E1,-3.396749496E-2
8.049660104E0,-1.386678886E1,1.591286945E1,-4.440590382E0
8.066326042E0,-1.491988659E1,1.686804390E1,-8.244371414E0
8.082991979E0,-1.620781517E1,1.809123039E1,-1.021231079E1
8.099657917E0,-1.657004929E1,1.753866386E1,-9.003347397E0
8.116323854E0,-1.583485794E1,1.526640797E1,-3.170760632E0
8.132989792E0,-1.459748077E1,1.313629055E1,4.687448025E0
8.149655729E0,-1.125533676E1,1.187250233E1,9.621992111E0
8.166321667E0,-4.725024223E0,1.213060474E1,1.084751320E1
8.182987604E0,3.263772488E0,1.389815903E1,1.210821247E1
8.199653542E0,1.080765629E1,1.430311680E1,1.962741470E1
8.216319479E0,1.643669891E1,1.133959770E1,3.263518524E1
8.232985417E0,2.088098145E1,5.188817024E0,4.241190338E1
8.249651354E0,2.848869896E1,-1.929572582E0,4.074761581E1
8.266317292E0,3.147289276E1,-9.169243813E0,2.828489685E1
8.282983229E0,2.312926102E1,-1.482933044E1,1.405088425E1
8.299649167E0,1.066771889E1,-1.766579247E1,5.930429935E0
8.316315104E0,9.809060097E-1,-1.882087326E1,3.136547327E0
8.332981042E0,-4.529127121E0,-2.066860962E1,1.919065237E0
8.349646979E0,-6.488250732E0,-2.402347183E1,6.435010433E-1
8.366312917E0,-6.726499081E0,-2.776205444E1,-2.892203808E0
8.382978854E0,-7.880609512E0,-2.958642960E1,-6.981965065E0
8.399644792E0,-9.544157028E0,-3.104234695E1,-1.027105427E1
8.416310729E0,-1.133413887E1,-3.180829620E1,-1.046546745E1
8.432976667E0,-1.162875652E1,-3.147029877E1,-4.894185066E0
8.449642604E0,-9.067955971E0,-3.185194969E1,2.915000916E0
8.466308542E0,-5.880853653E0,-3.149650192E1,6.159498215E0
8.482974479E0,-2.354357719E0,-2.993350410E1,3.286684513E0
8.499640417E0,3.434680939E0,-2.845304108E1,5.093922615E-1
8.516306354E0,1.003490448E1,-2.529072571E1,2.125055075E0
8.532972292E0,1.656210327E1,-1.974710083E1,5.980632782E0
8.549638229E0,2.316013336E1,-1.366723919E1,1.274307537E1
8.566304167E0,3.319858932E1,-5.197926521E0,2.703258133E1
8.582970104E0,4.125368500E1,6.529964924E0,3.767686462E1
8.599636042E0,3.541807556E1,1.547927666E1,3.333183289E1
8.616301979E0,2.012435150E1,1.923437309E1,2.306848526E1
8.632967917E0,6.553499222E0,1.963628769E1,1.709897614E1
8.649633854E0,-2.965528965E0,1.985863113E1,1.087383080E1
8.666299792E0,-9.854076385E0,2.177896118E1,3.670958996E0
8.682965729E0,-1.435490608E1,2.526248360E1,-1.138756990E0
8.699631667E0,-1.694835663E1,2.837930679E1,-2.071517706E0
8.716297604E0,-1.807721138E1,2.865973663E1,8.550643921E-1
8.732963542E0,-1.630924416E1,2.557036400E1,8.648364067E0
8.749629479E0,-1.278801155E1,2.104616928E1,1.638136292E1
8.766295417E0,-7.754142761E0,1.748771286E1,1.904796791E1
8.782961354E0,-5.329642296E-1,1.512271881E1,1.937842751E1
8.799627292E0,7.368258476E0,1.327526188E1,2.087047577E1
8.816293229E0,1.663095093E1,9.771307945E0,2.711315155E1
8.832959167E0,2.645659637E1,3.316823483E0,3.438306046E1
8.849625104E0,3.395294952E1,-4.787708282E0,3.562356949E1
8.866291042E0,3.914509201E1,-1.175102520E1,3.111736870E1
8.882956979E0,3.555575180E1,-1.681937981E1,2.127228355E1
8.899622917E0,2.416843796E1,-2.089056206E1,1.250353241E1
8.916288854E0,1.113960075E1,-2.401240540E1,6.392230034E0
8.932954792E0,6.128416061E-1,-2.538873482E1,2.537282705E0
8.949620729E0,-4.802076817E0,-2.675525284E1,1.416052580E-1
8.966286667E0,-6.470608234E0,-2.908748245E1,-2.936448336E0
8.982952604E0,-8.071855545E0,-3.049886513E1,-8.430777550E0
8.999618542E0,-1.054717827E1,-3.058456802E1,-1.294322872E1
9.016284479E0,-1.279557228E1,-3.089772797E1,-1.408931828E1
9.032950417E0,-1.265944672E1,-3.104274750E1,-1.133017254E1
9.049616354E0,-1.018353653E1,-3.053062820E1,-5.960007668E0
9.066282292E0,-5.647290707E0,-3.061443901E1,-8.248965144E-1
9.082948229E0,-7.289714813E-1,-2.897783852E1,1.930114388E0
9.099614167E0,6.310283184E0,-2.574689102E1,2.384250641E0
9.116280104E0,1.649297523E1,-2.084846115E1,3.682736397E0
9.132946042E0,2.398519135E1,-1.267822838E1,1.034696198E1
9.149611979E0,2.701337433E1,-5.748967171E0,2.697041130E1
9.166277917E0,2.661196518E1,-6.748142242E-1,4.053284073E1
9.182943854E0,2.144665909E1,5.339701653E0,3.913768768E1
9.199609792E0,1.176357555E1,1.012748337E1,2.795537567E1
9.216275729E0,-9.231901169E-2,1.599806786E1,1.177533150E1
9.232941667E0,-8.527024269E0,2.294659615E1,1.193832874E0
9.249607604E0,-1.465966034E1,2.921328735E1,-2.961068869E0
9.266273542E0,-1.728916550E1,3.275971985E1,-2.102283478E0
9.282939479E0,-1.625049782E1,3.166089439E1,1.177481651E0
9.299605417E0,-1.117250252E1,2.627311897E1,4.534299850E0
9.316271354E0,-5.889405251E0,1.864047050E1,6.345384121E0
9.332937292E0,-2.622274399E0,1.108310890E1,8.226163864E0
9.349603229E0,1.814194679E0,2.855245590E0,1.091525650E1
9.366269167E0,6.668759346E0,-1.374886513E0,1.547005844E1
9.382935104E0,9.321659088E0,-1.737847805E0,2.344451523E1
9.399601042E0,1.245939350E1,-8.680122375E0,3.188938904E1
9.416266979E0,1.292130566E1,-1.852163506E1,2.931160927E1
9.432932917E0,7.510157585E0,-2.354705048E1,1.662517929E1
9.449598854E0,1.604492664E0,-2.476727867E1,3.547292948E0
9.466264792E0,-9.669337273E-1,-2.548280144E1,-2.490956783E0
9.482930729E0,-5.093359947E-1,-2.405900002E1,-4.409032345E0
9.499596667E0,1.957581043E0,-2.215696335E1,-6.093732834E0
9.516262604E0,2.278392315E0,-1.868687057E1,-7.593432426E0
9.532928542E0,7.915854454E-1,-1.396982765E1,-7.064553261E0
9.549594479E0,1.442179680E0,-1.117270947E1,7.739436626E-2
9.566260417E0,3.030503273E0,-9.834626198E0,9.035430908E0
9.582926354E0,4.742307663E-1,-7.650854111E0,9.267612457E0
9.599592292E0,-5.314763069E0,-4.200833321E0,4.643595695E0
9.616258229E0,-7.794621468E0,-6.030879021E-1,1.753862143E0
9.632924167E0,-7.789538860E0,1.690474987E0,2.642545462E0
9.649590104E0,-7.166727543E0,2.834279537E0,2.513957739E0
9.666256042E0,-6.141809940E0,4.571834087E0,1.628147602E0
9.682921979E0,-7.481250763E-1,5.758372307E0,4.056692600E0
9.699587917E0,1.039074612E1,4.576686382E0,9.520366669E0
9.716253854E0,1.554966831E1,3.309681416E0,1.103116417E1
9.732919792E0,1.330726147E1,2.412987947E0,7.064654827E0
9.749585729E0,6.039466858E0,1.560549974E0,3.117851734E0
9.766251667E0,-1.082466125E0,2.329775333E0,2.920799732E0
9.782917604E0,-4.160719872E0,8.020136356E-1,5.072729588E0
9.799583542E0,-5.285277367E0,-2.066020250E0,4.959490776E0
9.816249479E0,-6.790471077E0,-2.757815599E0,2.292281151E0
9.832915417E0,-8.292962074E0,-2.078005075E0,-2.750841856E0
9.849581354E0,-1.076716328E1,6.470780373E-1,-5.495689392E0
9.866247292E0,-5.841180325E0,-4.583835602E-2,-3.361959934E0
9.882913229E0,2.699674129E0,-4.394733429E0,9.999372482E0
9.899579167E0,8.459651947E0,-1.043961716E1,2.638764000E1
9.916245104E0,1.021080685E1,-1.327260208E1,2.640456009E1
9.932911042E0,3.147633553E0,-9.230785370E0,1.371871758E1
9.949576979E0,-5.548727512E0,-4.057323456E0,5.380811691E-1
9.966242917E0,-1.056728172E1,-2.636466265E0,-1.395543098E0
9.982908854E0,-1.092300606E1,-2.861829042E0,1.741733551E-1
9.999574792E0,-9.305248260E0,-4.103666782E0,1.220688820E-1
1.001624073E1,-9.455796242E0,-2.781317711E0,-3.880834579E-1
1.003290667E1,-1.033337784E1,-5.419925451E-1,-2.702464104E0
1.004957260E1,-9.484783173E0,2.072283268E0,-4.432745934E0
1.006623854E1,-7.807758808E0,3.461889267E0,-3.321000338E0
1.008290448E1,-5.068233967E0,3.358895302E0,-2.116176128E0
1.009957042E1,-2.602515221E-1,1.851107121E0,3.854285240E0
1.011623635E1,5.349070072E0,3.627326488E0,1.609302711E1
1.013290229E1,1.236383533E1,2.955835342E0,2.668597984E1
1.014956823E1,1.470863914E1,-1.153923750E0,2.469117355E1
1.016623417E1,8.611080170E0,-3.586212158E0,1.898144150E1
1.018290010E1,-8.973932266E-1,-6.698716164E0,1.380926132E1
1.019956604E1,-7.628971100E0,-8.283102036E0,9.815051079E0
1.021623198E1,-9.441805840E0,-9.321557045E0,5.759077072E0
1.023289792E1,-8.845111847E0,-9.205088615E0,1.663926125E0
1.024956385E1,-8.038420677E0,-8.856113434E0,-3.347060442E0
1.026622979E1,-8.797760010E0,-7.340291977E0,-8.039098740E0
1.028289573E1,-1.168302155E1,-5.552025795E0,-1.016681099E1
1.029956167E1,-1.538252735E1,-4.012457371E0,-8.384648323E0
1.031622760E1,-1.800534630E1,-2.341763496E0,-4.195181370E0
1.033289354E1,-1.815275764E1,-9.062411785E-1,-5.009346008E-1
1.034955948E1,-1.562362289E1,4.028375149E-1,1.130220890E0
1.036622542E1,-1.191667366E1,3.502358198E0,1.882455826E0
1.038289135E1,-9.725456238E0,8.090859413E0,3.685100555E0
1.039955729E1,-5.628065586E0,1.203641319E1,1.041209793E1
1.041622323E1,3.532344818E0,1.333995438E1,2.174291229E1
1.043288917E1,1.202168941E1,1.224962807E1,2.903293037E1
1.044955510E1,1.669322777E1,1.121014214E1,2.592768288E1
1.046622104E1,1.865236092E1,9.523941994E0,1.885722923E1
1.048288698E1,1.667847443E1,5.187591076E0,1.307461548E1
1.049955292E1,1.066927147E1,2.228055000E-1,6.992784023E0
1.051621885E1,4.838550091E0,-3.766749382E0,1.801097870E0
1.053288479E1,8.435778618E-1,-6.790406227E0,-2.132409096E0
1.054955073E1,-1.935044527E0,-8.792518616E0,-4.875909805E0
1.056621667E1,-3.523184538E0,-1.046358681E1,-7.221740723E0
1.058288260E1,-5.122144222E0,-1.184702682E1,-9.756048203E0
1.059954854E1,-6.854980469E0,-1.255726242E1,-1.152433109E1
1.061621448E1,-8.039839745E0,-1.302324677E1,-1.191083813E1
1.063288042E1,-7.873688698E0,-1.307187843E1,-1.156212234E1
1.064954635E1,-6.437625408E0,-1.257673264E1,-1.145977592E1
1.066621229E1,-4.528552532E0,-1.093185425E1,-1.104423332E1
1.068287823E1,-2.399570942E0,-9.007246017E0,-1.055162430E1
1.069954417E1,-2.490158081E-1,-6.400332451E0,-6.996954918E0
1.071621010E1,5.373501778E-1,-1.923055172E0,1.062874794E0
1.073287604E1,3.776293755E0,3.278644562E0,1.282070827E1
1.074954198E1,8.654787064E0,7.843841553E0,2.048701859E1
1.076620792E1,1.014632988E1,1.303135300E1,1.820723724E1
1.078287385E1,4.260581970E0,1.707873154E1,1.445916367E1
1.079953979E1,-4.301842213E0,2.034140587E1,1.186650944E1
1.081620573E1,-1.085828686E1,2.355732346E1,8.678951263E0
1.083287167E1,-1.403923702E1,2.493672371E1,7.208325863E0
1.084953760E1,-1.461496067E1,2.298974228E1,1.086833954E1
1.086620354E1,-1.209823799E1,2.196672440E1,1.488676262E1
1.088286948E1,-7.363152981E0,2.254184723E1,1.763578606E1
1.089953542E1,-1.620806694E0,2.338142014E1,2.261574745E1
1.091620135E1,4.055401802E0,2.200882721E1,3.160742188E1
1.093286729E1,9.689973831E0,1.647176361E1,4.010413742E1
1.094953323E1,1.557409096E1,5.224137783E0,4.151232529E1
1.096619917E1,1.904290962E1,-6.171070576E0,3.264576721E1
1.098286510E1,1.897626114E1,-1.366967583E1,2.056815338E1
1.099953104E1,1.771800232E1,-1.923834610E1,1.325696182E1
1.101619698E1,1.125483894E1,-2.403479767E1,8.136598587E0
1.103286292E1,2.149390697E0,-2.673561096E1,6.160252571E0
1.104952885E1,-3.773053646E0,-3.004254913E1,5.453122616E0
1.106619479E1,-8.231425285E0,-3.372192764E1,4.765588284E0
1.108286073E1,-1.116549301E1,-3.803109741E1,5.649690628E0
1.109952667E1,-1.164656258E1,-4.246495819E1,7.126840115E0
1.111619260E1,-1.112543297E1,-4.676593018E1,5.046015739E0
1.113285854E1,-1.075791550E1,-4.920529175E1,-4.146010876E-1
1.114952448E1,-7.282265663E0,-4.852236176E1,-4.345319271E0
1.116619042E1,3.234817505E0,-4.610400772E1,-3.456071377E0
1.118285635E1,1.803787231E1,-3.918128204E1,8.828549385E-1
1.119952229E1,3.400180435E1,-2.816212654E1,5.097152233E0
1.121618823E1,4.682495117E1,-1.459057713E1,1.043572044E1
1.123285417E1,4.790016937E1,-5.924545765E0,2.568207169E1
1.124952010E1,3.706173706E1,1.998700023E0,5.030681992E1
1.126618604E1,2.263740540E1,2.094101524E1,5.806263351E1
1.128285198E1,1.321770191E1,3.488863373E1,4.407529449E1
1.129951792E1,9.405670166E0,4.562098694E1,2.601727676E1
1.131618385E1,8.785486221E0,5.187281418E1,1.639511108E1
1.133284979E1,6.708334923E0,5.241318512E1,1.379663372E1
1.134951573E1,-1.030754566E0,4.698690033E1,1.151716709E1
1.136618167E1,-9.553467751E0,3.729765701E1,1.368685532E1
1.138284760E1,-1.163352489E1,2.638455391E1,2.523469543E1
1.139951354E1,-5.084449768E0,1.673922157E1,4.029589081E1
1.141617948E1,6.617511749E0,1.095598221E1,5.054013062E1
1.143284542E1,1.781245422E1,4.501019955E0,5.922500229E1
1.144951135E1,2.895465660E1,-4.507037163E0,5.802062225E1
1.146617729E1,3.795997238E1,-1.471765137E1,4.685587311E1
1.148284323E1,3.778157425E1,-2.736540413E1,3.272704315E1
1.149950917E1,2.908929634E1,-3.678829575E1,1.933106232E1
1.151617510E1,1.757616615E1,-4.183553314E1,9.155127525E0
1.153284104E1,3.226432800E0,-4.172407150E1,2.156099796E0
1.154950698E1,-6.045971870E0,-4.067656326E1,-2.287997961E0
1.156617292E1,-9.719216347E0,-4.097169495E1,-5.250585079E0
1.158283885E1,-1.405430222E1,-4.483420181E1,-1.274379253E0
1.159950479E1,-1.907481384E1,-5.332130432E1,6.839396954E0
1.161617073E1,-2.398445702E1,-5.876786423E1,1.095560265E1
1.163283667E1,-2.024418068E1,-5.746965790E1,1.440161800E1
1.164950260E1,-1.315104389E1,-5.424762344E1,1.204232121E1
1.166616854E1,-2.316849232E0,-5.283196640E1,1.689798737E1
1.168283448E1,1.516763210E1,-4.863356018E1,2.647446442E1
1.169950042E1,3.687870026E1,-3.821351624E1,3.265940857E1
1.171616635E1,4.866959000E1,-2.217235184E1,3.950885773E1
1.173283229E1,5.310980988E1,-1.145328522E1,5.114459991E1
1.174949823E1,4.763489914E1,-2.394190311E0,6.466652679E1
1.176616417E1,3.464938354E1,7.351048470E0,6.253636551E1
1.178283010E1,2.116744232E1,1.758652496E1,4.754627991E1
1.179949604E1,1.147865772E1,3.168480682E1,2.583002281E1
1.181616198E1,5.787819862E0,4.295074463E1,1.003192520E1
1.183282792E1,2.964849472E-1,4.834754562E1,4.359164238E0
1.184949385E1,-6.961544991E0,4.984749603E1,2.613747120E0
1.186615979E1,-1.279903603E1,4.686832809E1,1.368627548E-1
1.188282573E1,-1.777491188E1,4.006513977E1,-6.111893654E-1
1.189949167E1,-1.683215141E1,3.101063728E1,1.089238739E1
1.191615760E1,-8.265859604E0,2.272685432E1,3.338245392E1
1.193282354E1,7.294958591E0,1.869581413E1,6.069673538E1
1.194948948E1,2.705903053E1,1.306497097E1,7.139155579E1
1.196615542E1,4.745370102E1,-6.242442131E-1,6.924024200E1
1.198282135E1,5.650750351E1,-1.871731567E1,5.834728622E1
1.199948729E1,4.901988220E1,-3.380499649E1,4.390520096E1
1.201615323E1,3.367874527E1,-4.548931503E1,2.728161621E1
1.203281917E1,1.439252472E1,-5.097893143E1,1.202472687E1
1.204948510E1,-3.832704306E0,-5.042534637E1,-1.358282566E-1
1.206615104E1,-1.337665176E1,-4.805805206E1,-1.192369747E1
1.208281698E1,-1.457895851E1,-4.483168793E1,-1.605479431E1
1.209948292E1,-1.890959549E1,-4.300663757E1,-9.146679878E0
1.211614885E1,-2.356604195E1,-4.764629745E1,2.345863819E0
1.213281479E1,-2.643946838E1,-5.388401794E1,9.612791061E0
1.214948073E1,-2.460871696E1,-5.653549576E1,1.384338474E1
1.216614667E1,-2.048910332E1,-5.529739380E1,1.641215897E1
1.218281260E1,-1.034829807E1,-5.492873001E1,2.177874947E1
1.219947854E1,8.940245628E0,-5.475243378E1,2.791771126E1
1.221614448E1,3.185259247E1,-4.607538223E1,3.160414505E1
1.223281042E1,5.053667450E1,-3.421809387E1,3.706902313E1
1.224947635E1,5.018425751E1,-1.833758163E1,5.514675522E1
1.226614229E1,4.364916611E1,-4.988895893E0,6.345761490E1
1.228280823E1,3.556501007E1,8.129745483E0,5.265843964E1
1.229947417E1,2.966884041E1,1.700538826E1,3.599476242E1
1.231614010E1,2.160025787E1,2.539517403E1,1.881127548E1
1.233280604E1,1.263163757E1,3.151900291E1,8.297002792E0
1.234947198E1,1.752021790E0,3.519873428E1,4.977422237E0
1.236613792E1,-8.959294319E0,3.841286850E1,3.253337860E0
1.238280385E1,-1.999353409E1,4.142752838E1,1.952229023E0
1.239946979E1,-2.422477913E1,4.197072220E1,9.144266129E0
1.241613573E1,-1.846512222E1,3.754540634E1,1.986732674E1
1.243280167E1,-8.843323708E0,3.269017029E1,2.923086548E1
1.244946760E1,1.738008499E0,2.781638336E1,4.077189255E1
1.246613354E1,1.365127087E1,2.110116005E1,4.785185242E1
1.248279948E1,2.796725464E1,1.229324913E1,5.173175812E1
1.249946542E1,3.969835281E1,-3.619475603E0,5.284503174E1
1.251613135E1,4.443738556E1,-2.381002426E1,4.766665268E1
1.253279729E1,4.096529770E1,-3.478002167E1,3.858366013E1
1.254946323E1,3.090210342E1,-3.985134125E1,2.823362350E1
1.256612917E1,1.590002251E1,-4.460602188E1,1.891791725E1
1.258279510E1,2.313973427E0,-4.916575623E1,9.554457664E0
1.259946104E1,-6.220754623E0,-5.142293930E1,-3.163380146E0
1.261612698E1,-1.096334267E1,-5.247993469E1,-1.336879444E1
1.263279292E1,-1.500513840E1,-5.165216827E1,-1.547047234E1
1.264945885E1,-1.596635628E1,-4.963848114E1,-1.053117085E1
1.266612479E1,-1.403545189E1,-4.522653961E1,-5.780981541E0
1.268279073E1,-1.055086231E1,-4.209366608E1,-3.539675236E0
1.269945667E1,-3.167454958E0,-3.795040512E1,-2.067291737E-2
1.271612260E1,9.225810051E0,-3.157315636E1,3.555342436E0
1.273278854E1,1.955298996E1,-2.368064499E1,5.321788311E0
1.274945448E1,2.306846046E1,-1.398575401E1,1.015335274E1
1.276612042E1,2.188921738E1,-3.364966631E0,2.090006638E1
1.278278635E1,1.591059875E1,6.739939213E0,2.736103058E1
1.279945229E1,6.918780327E0,1.647453117E1,2.507474518E1
1.281611823E1,-1.402700424E0,2.515463257E1,2.013243866E1
1.283278417E1,-7.434769154E0,3.107786942E1,1.673452377E1
1.284945010E1,-9.801563263E0,3.162276649E1,1.565106773E1
1.286611604E1,-8.190355301E0,2.509775925E1,1.534684658E1
1.288278198E1,-3.252473354E0,1.382722950E1,1.505213928E1
1.289944792E1,2.774083138E0,3.853870869E0,1.180744553E1
1.291611385E1,7.406588554E0,-1.452515125E0,4.895904541E0
1.293277979E1,1.231350899E1,-5.020454407E0,-1.163602352E0
1.294944573E1,1.754913712E1,-9.470058441E0,-2.694481611E0
1.296611167E1,1.814542389E1,-1.420225143E1,-9.461262226E-1
1.298277760E1,1.319624805E1,-1.624156380E1,7.813794613E-1
1.299944354E1,6.563615799E0,-1.614994621E1,6.631941795E-1
1.301610948E1,5.053195953E-1,-1.445412922E1,-2.004852295E0
1.303277542E1,-2.608270168E0,-1.187830544E1,-5.677120686E0
1.304944135E1,-1.848847866E0,-9.995240211E0,-7.141543388E0
1.306610729E1,-3.167064667E0,-9.085093498E0,-3.872484207E0
1.308277323E1,-1.070653152E1,-5.830700874E0,2.999505997E0
1.309943917E1,-1.948354149E1,-1.760540009E0,1.015684700E1
1.311610510E1,-2.327075386E1,1.186425209E0,1.459722710E1
1.313277104E1,-1.995048141E1,3.676745415E0,1.375390434E1
1.314943698E1,-1.120495892E1,5.502400398E0,1.083065605E1
1.316610292E1,3.851890564E-2,6.002856255E0,1.122137260E1
1.318276885E1,1.030227089E1,5.731601238E0,1.572175217E1
1.319943479E1,1.552014732E1,3.292967796E0,2.216584778E1
1.321610073E1,1.487089443E1,-1.297059059E0,2.378379059E1
1.323276667E1,1.128138351E1,-5.053835392E0,1.818805695E1
1.324943260E1,6.661165714E0,-7.061537743E0,9.289847374E0
1.326609854E1,2.462031841E0,-8.421190262E0,1.126799107E0
1.328276448E1,-1.336685658E0,-9.345095634E0,-4.725679874E0
1.329943042E1,-5.421556950E0,-9.274123192E0,-8.359466553E0
1.331609635E1,-9.445342064E0,-7.816155910E0,-9.517807007E0
1.333276229E1,-1.276581383E1,-6.443379402E0,-7.815805435E0
1.334942823E1,-1.470134640E1,-5.284470081E0,-4.609072685E0
1.336609417E1,-1.428434944E1,-3.807207346E0,-1.318660498E0
1.338276010E1,-1.332236671E1,-6.216573715E-2,5.757398605E-1
1.339942604E1,-9.795724869E0,5.024251461E0,3.329674721E0
1.341609198E1,-1.304769039E0,6.860711098E0,9.486330032E0
1.343275792E1,5.870775223E0,5.852089882E0,1.773667526E1
1.344942385E1,8.883418083E0,3.106824160E0,2.394231987E1
1.346608979E1,7.606794357E0,9.387958050E-1,2.360658073E1
1.348275573E1,2.441171646E0,1.796109676E-1,1.701211929E1
1.349942167E1,-3.130728722E0,-4.119483232E-1,1.001978493E1
1.351608760E1,-7.296345711E0,-1.277892828E0,5.227734566E0
1.353275354E1,-8.983976364E0,-1.836714625E0,1.901698589E0
1.354941948E1,-7.834701538E0,-1.914567351E0,-3.708410263E-2
1.356608542E1,-5.862647057E0,-1.798780322E0,-9.191789627E-1
1.358275135E1,-4.835991859E0,-1.343860865E0,-2.125277519E0
1.359941729E1,-5.179145813E0,-7.539881468E-1,-3.365869522E0
1.361608323E1,-6.424053192E0,2.941670418E-1,-3.983832359E0
1.363274917E1,-7.978563309E0,2.221922874E0,-3.155232906E0
1.364941510E1,-7.950225830E0,4.084715366E0,7.536239624E-1
1.366608104E1,-4.407836914E0,4.644587517E0,6.962548733E0
1.368274698E1,1.282841682E0,4.205187321E0,1.072162819E1
1.369941292E1,6.366788864E0,4.219247818E0,9.690723419E0
1.371607885E1,8.338196754E0,6.160304070E0,8.008691788E0
1.373274479E1,7.230177402E0,8.095472336E0,1.013057232E1
1.374941073E1,4.766908169E0,8.169452667E0,1.310017586E1
1.376607667E1,1.917729855E0,7.667532921E0,1.466777420E1
1.378274260E1,-2.142205238E-1,7.277403355E0,1.403235531E1
1.379940854E1,-1.927980900E0,6.988446236E0,1.089591122E1
1.381607448E1,-3.215909481E0,6.751152039E0,6.521744251E0
1.383274042E1,-3.278101444E0,5.130599976E0,2.796425819E0
1.384940635E1,-2.871300220E0,1.994367480E0,2.024502754E-1
1.386607229E1,-2.671296597E0,-1.664329290E0,-1.066653728E0
1.388273823E1,-3.345366240E0,-4.302096367E0,-1.237520695E0
1.389940417E1,-3.776313066E0,-5.912625313E0,-1.331769466E0
1.391607010E1,-3.483444929E0,-7.018851280E0,-2.323274374E0
1.393273604E1,-2.848598003E0,-7.859414101E0,-3.546548843E0
1.394940198E1,-2.781285286E0,-8.591684341E0,-4.289581776E0
1.396606792E1,-3.535108566E0,-9.117803574E0,-4.642744541E0
1.398273385E1,-4.406289577E0,-9.033667564E0,-4.676172733E0
1.399939979E1,-4.351270676E0,-8.329223633E0,-5.049547195E0
1.401606573E1,-3.188683033E0,-7.349665642E0,-6.342622757E0
1.403273167E1,-1.450191021E0,-6.342269421E0,-8.269323349E0
1.404939760E1,1.746015549E-1,-5.306774139E0,-9.650436401E0
1.406606354E1,1.484755039E0,-4.169066429E0,-9.391302109E0
1.408272948E1,2.631821632E0,-2.734034538E0,-7.912551880E0
1.409939542E1,4.484881878E0,-3.771271706E-1,-5.606743813E0
1.411606135E1,6.671944141E0,3.163075924E0,-1.579636574E0
1.413272729E1,7.722787857E0,7.392630577E0,3.917384148E0
1.414939323E1,7.747119904E0,1.241297150E1,9.357695580E0
1.416605917E1,7.516655445E0,1.845699310E1,1.346071625E1
1.418272510E1,6.102807999E0,2.470924377E1,1.624390411E1
1.419939104E1,3.439067841E0,2.938492966E1,2.006990623E1
1.421605698E1,5.138092041E-1,3.226457977E1,2.438429260E1
1.423272292E1,-1.182983875E0,3.356100845E1,2.727859497E1
1.424938885E1,3.643546104E-1,3.293936157E1,2.837485886E1
1.426605479E1,3.736167908E0,3.010945129E1,2.874709892E1
1.428272073E1,8.107639313E0,2.452908516E1,3.032719994E1
1.429938667E1,1.277848625E1,1.463587952E1,3.173387527E1
1.431605260E1,1.670220375E1,1.767635345E0,3.073935699E1
1.433271854E1,1.820421410E1,-9.913742065E0,2.662785149E1
1.434938448E1,1.680039215E1,-1.835181427E1,2.091406250E1
1.436605042E1,1.328380966E1,-2.434095955E1,1.568274117E1
1.438271635E1,8.594107628E0,-2.881075668E1,1.281710434E1
1.439938229E1,3.870102406E0,-3.269193649E1,1.289410686E1
1.441604823E1,-1.856338024E0,-3.557038879E1,1.381716728E1
1.443271417E1,-7.797276497E0,-3.755944824E1,1.315150070E1
1.444938010E1,-1.165166283E1,-3.928129578E1,1.081522655E1
1.446604604E1,-1.309048653E1,-4.067343521E1,8.130607605E0
1.448271198E1,-1.325156593E1,-4.229804611E1,5.764789581E0
1.449937792E1,-1.108811569E1,-4.386412048E1,4.336155891E0
1.451604385E1,-5.416743279E0,-4.430148315E1,2.675442219E0
1.453270979E1,4.410646915E0,-4.303128052E1,1.027557850E0
1.454937573E1,1.658855629E1,-3.977953339E1,2.839002609E-1
1.456604167E1,2.832766724E1,-3.416182327E1,2.195897579E0
1.458270760E1,3.799621582E1,-2.623986816E1,1.171175385E1
1.459937354E1,4.291802216E1,-1.511468697E1,3.267906189E1
1.461603948E1,4.452340698E1,3.577952385E-1,5.079193115E1
1.463270542E1,4.083488846E1,1.938715744E1,5.149628067E1
1.464937135E1,3.316474152E1,3.661613083E1,4.359820557E1
1.466603729E1,2.359975243E1,4.853539658E1,3.475309372E1
1.468270323E1,1.576491547E1,5.627181244E1,2.485794640E1
1.469936917E1,1.108441734E1,5.854487991E1,1.919223404E1
1.471603510E1,7.616113663E0,5.299270630E1,2.152179909E1
1.473270104E1,5.195604324E0,4.143190002E1,2.946952629E1
1.474936698E1,5.755897522E0,2.889088821E1,3.631830215E1
1.476603292E1,1.024884224E1,1.815845680E1,4.201361465E1
1.478269885E1,1.866558075E1,8.451917648E0,4.698632050E1
1.479936479E1,2.974482727E1,-4.321712255E-1,5.014196396E1
1.481603073E1,4.135181046E1,-8.567335129E0,5.252883148E1
1.483269667E1,4.968824768E1,-1.881246948E1,5.167997360E1
1.484936260E1,4.967679596E1,-3.078230286E1,4.478015518E1
1.486602854E1,4.068686676E1,-4.012866211E1,3.434019089E1
1.488269448E1,2.580107498E1,-4.587776184E1,2.423595810E1
1.489936042E1,9.772495270E0,-4.867430115E1,1.507896519E1
1.491602635E1,-3.771324158E0,-4.883543777E1,5.120282173E0
1.493269229E1,-1.332380295E1,-4.765077209E1,2.589071989E-1
1.494935823E1,-2.029411697E1,-4.862517548E1,5.026113033E0
1.496602417E1,-2.610553741E1,-5.298128891E1,1.150896454E1
1.498269010E1,-2.923351097E1,-5.641610718E1,1.348719788E1
1.499935604E1,-2.720448494E1,-5.734309769E1,1.284053802E1
1.501602198E1,-2.193322754E1,-5.765599442E1,1.124474525E1
1.503268792E1,-1.155943489E1,-5.854401779E1,1.572978306E1
1.504935385E1,5.608329773E0,-5.735519409E1,2.319758987E1
1.506601979E1,2.608502769E1,-5.143444443E1,2.959263992E1
1.508268573E1,4.191606903E1,-4.076819992E1,3.836777115E1
1.509935167E1,5.081422806E1,-2.909598923E1,5.384730530E1
1.511601760E1,5.170668411E1,-1.509594345E1,6.568527985E1
1.513268354E1,4.780774689E1,1.152352810E0,6.909872437E1
1.514934948E1,4.032270813E1,1.619742966E1,5.701147461E1
1.516601542E1,3.013948250E1,2.946228218E1,3.896094131E1
1.518268135E1,1.866852379E1,3.853453827E1,2.377658463E1
1.519934729E1,7.468107700E0,4.434347153E1,1.250101566E1
1.521601323E1,-1.683585167E0,4.863507462E1,6.361416817E0
1.523267917E1,-7.598277092E0,4.972003174E1,6.456635952E0
1.524934510E1,-9.596847534E0,4.546951294E1,1.372603798E1
1.526601104E1,-8.608791351E0,3.668397141E1,2.618517494E1
1.528267698E1,-4.511543274E0,2.702402687E1,4.154312515E1
1.529934292E1,4.897602558E0,1.716521454E1,5.528058243E1
1.531600885E1,1.964681435E1,5.540227413E0,6.282431412E1
1.533267479E1,3.551205444E1,-8.247913361E0,6.591874695E1
1.534934073E1,4.691803360E1,-2.388581467E1,6.456030273E1
1.536600667E1,4.962377167E1,-3.873046112E1,5.752691650E1
1.538267260E1,4.266505432E1,-4.933954620E1,4.565894318E1
1.539933854E1,2.851169205E1,-5.502313995E1,3.076984596E1
1.541600448E1,1.196513653E1,-5.467868805E1,1.555409145E1
1.543267042E1,-2.420582294E0,-5.068189240E1,3.391837120E0
1.544933635E1,-1.268833923E1,-4.710126495E1,-1.666940451E0
1.546600229E1,-2.088003540E1,-4.643639374E1,2.543240070E0
1.548266823E1,-2.726473999E1,-4.850489426E1,9.112779617E0
1.549933417E1,-2.952700996E1,-5.088231659E1,1.193834305E1
1.551600010E1,-2.758769989E1,-5.208433533E1,1.257083893E1
1.553266604E1,-2.340941238E1,-5.282079697E1,1.457027054E1
1.554933198E1,-1.677601051E1,-5.518413162E1,1.878823662E1
1.556599792E1,-7.333016872E0,-5.876009750E1,2.528648376E1
1.558266385E1,6.308310509E0,-5.895733643E1,3.392412567E1
1.559932979E1,2.593839455E1,-5.253068924E1,4.490414429E1
1.561599573E1,4.532715988E1,-4.031113434E1,5.455932236E1
1.563266167E1,5.543342209E1,-2.465997696E1,6.076339340E1
1.564932760E1,5.269194794E1,-9.182507515E0,6.183057404E1
1.566599354E1,4.171225739E1,4.470900536E0,5.616336823E1
1.568265948E1,3.120106125E1,1.655667877E1,4.465269089E1
1.569932542E1,2.390891838E1,2.780351639E1,3.079563904E1
1.571599135E1,1.637683105E1,3.713676834E1,1.868041229E1
1.573265729E1,6.312793732E0,4.363082886E1,1.127993202E1
1.574932323E1,-5.781842709E0,4.715990829E1,8.789714813E0
1.576598917E1,-1.507964897E1,4.624430466E1,1.362201214E1
1.578265510E1,-1.640348244E1,3.957979584E1,2.365611267E1
1.579932104E1,-1.037245846E1,3.153638458E1,3.349624252E1
1.581598698E1,7.475562096E-1,2.488021469E1,4.057496262E1
1.583265292E1,1.311372757E1,1.769768906E1,4.728983688E1
1.584931885E1,2.595628357E1,4.642597198E0,5.529365540E1
1.586598479E1,3.778459930E1,-1.262466526E1,5.880316162E1
1.588265073E1,4.415942764E1,-2.761325073E1,5.445601273E1
1.589931667E1,4.160589981E1,-3.800802994E1,4.531616592E1
1.591598260E1,3.216373062E1,-4.479045868E1,3.543622589E1
1.593264854E1,1.934305573E1,-4.864958191E1,2.580731773E1
1.594931448E1,6.590337753E0,-5.078188705E1,1.695500374E1
1.596598042E1,-2.912440538E0,-5.324650192E1,8.320215225E0
1.598264635E1,-1.000794411E1,-5.617658234E1,-3.369501829E-1
1.599931229E1,-1.812231064E1,-5.851227188E1,-7.391836166E0
1.601597823E1,-2.761890411E1,-6.030104828E1,-1.137861538E1
1.603264417E1,-3.403420639E1,-5.953222656E1,-1.088988400E1
1.604931010E1,-3.249675751E1,-5.687896347E1,-3.578389645E0
1.606597604E1,-2.209979057E1,-5.489914703E1,5.794288158E0
1.608264198E1,-3.889631271E0,-5.341783905E1,1.154292583E1
1.609930792E1,1.565699387E1,-4.898332596E1,1.403558731E1
1.611597385E1,2.999800682E1,-4.033724594E1,1.798571587E1
1.613263979E1,3.809586334E1,-2.824186325E1,2.958106232E1
1.614930573E1,4.038326263E1,-1.809878349E1,4.009870911E1
1.616597167E1,3.715003967E1,-8.280679703E0,4.222922134E1
1.618263760E1,3.220841217E1,1.886750340E0,3.637256622E1
1.619930354E1,2.554899406E1,1.133955956E1,2.733321953E1
1.621596948E1,1.285264111E1,2.269185638E1,2.063303757E1
1.623263542E1,-4.043703079E-1,3.420117569E1,1.985879707E1
1.624930135E1,-8.412994385E0,4.189715195E1,2.251331902E1
1.626596729E1,-9.823055267E0,4.431458282E1,2.539923859E1
1.628263323E1,-7.287699699E0,4.275627518E1,2.627597237E1
1.629929917E1,-4.814808369E0,3.745499802E1,2.627342224E1
1.631596510E1,-2.919396877E0,2.749085236E1,2.722979546E1
1.633263104E1,1.173813820E0,1.336776829E1,2.997267151E1
1.634929698E1,8.338249207E0,-9.751852751E-1,3.067175102E1
1.636596292E1,1.828597260E1,-1.262860775E1,2.588285446E1
1.638262885E1,2.373938751E1,-1.945545197E1,1.895573044E1
1.639929479E1,2.221147537E1,-2.469382095E1,1.310362244E1
1.641596073E1,1.611910629E1,-2.872632599E1,8.699960709E0
1.643262667E1,8.298007011E0,-3.142601204E1,5.564809799E0
1.644929260E1,1.450015068E0,-3.283796310E1,4.162326813E0
1.646595854E1,-3.064940929E0,-3.209144592E1,3.650887489E0
1.648262448E1,-4.587173462E0,-3.034511566E1,2.044783115E0
1.649929042E1,-4.315644264E0,-2.822938538E1,-1.125531316E0
1.651595635E1,-4.533886909E0,-2.561478424E1,-4.655784130E0
1.653262229E1,-2.104077339E0,-2.340887833E1,-3.029533863E0
1.654928823E1,2.680948257E0,-2.189041710E1,3.934046984E0
1.656595417E1,6.064664841E0,-1.914120483E1,9.553475380E0
1.658262010E1,6.119971275E0,-1.375227928E1,8.759304047E0
1.659928604E1,1.070985794E0,-5.702717304E0,2.992695808E0
1.661595198E1,-8.685182571E0,3.952447891E0,-1.859312057E0
1.663261792E1,-1.805423737E1,1.175587559E1,-9.442296028E-1
1.664928385E1,-2.328649139E1,1.588985729E1,4.526943684E0
1.666594979E1,-2.348217392E1,1.697404289E1,9.601023674E0
1.668261573E1,-1.776531982E1,1.564675617E1,1.031898308E1
1.669928167E1,-7.582798958E0,1.119474411E1,7.202472210E0
1.671594760E1,1.888243198E0,6.442317963E0,2.736165524E0
1.673261354E1,8.933735847E0,2.967063427E0,2.427237511E0
1.674927948E1,1.245077610E1,-1.852664948E0,1.140994263E1
1.676594542E1,1.388312721E1,-1.031354904E1,2.264505959E1
1.678261135E1,1.199256516E1,-1.650227928E1,2.288223839E1
1.679927729E1,6.945632935E0,-1.698014069E1,1.475469971E1
1.681594323E1,1.781845093E0,-1.556513214E1,8.066387177E0
1.683260917E1,-1.925699711E0,-1.443477917E1,4.645766258E0
1.684927510E1,-4.595625877E0,-1.404770088E1,1.899083138E0
1.686594104E1,-7.379584789E0,-1.210925579E1,1.359114647E-1
1.688260698E1,-8.981437683E0,-8.671058655E0,-1.053380728E0
1.689927292E1,-9.762742996E0,-5.008768082E0,-2.519205570E0
1.691593885E1,-9.713634491E0,-1.595756173E0,-3.052009106E0
1.693260479E1,-9.596158028E0,1.143702984E0,-2.130508900E0
1.694927073E1,-8.796152115E0,2.524106979E0,-2.151250839E-2
1.696593667E1,-7.135400772E0,3.438087225E0,3.390915394E0
1.698260260E1,-4.177701473E0,4.451187611E0,7.243671417E0
1.699926854E1,2.871742249E-1,5.859823704E0,1.020470715E1
1.701593448E1,5.060597420E0,5.634907722E0,1.141165543E1
1.703260042E1,7.691674232E0,3.532803535E0,1.214220905E1
1.704926635E1,7.326424599E0,1.982553601E-1,1.305000114E1
1.706593229E1,4.589372635E0,-2.045077085E0,1.281597328E1
1.708259823E1,1.332544327E0,-2.588848591E0,1.111774921E1
1.709926417E1,-1.512301922E0,-1.911861062E0,8.471899986E0
1.711593010E1,-3.861928463E0,-8.806347847E-1,5.256493092E0
1.713259604E1,-5.473929405E0,9.951519966E-2,2.200603008E0
1.714926198E1,-6.706503391E0,1.200302124E0,-1.699538231E-1
1.716592792E1,-7.878296852E0,2.839505672E0,-2.386497736E0
1.718259385E1,-9.380831718E0,4.871912003E0,-3.937973499E0
1.719925979E1,-1.096749687E1,6.411173820E0,-3.809388399E0
1.721592573E1,-1.233019733E1,6.974433899E0,-2.522862911E0
1.723259167E1,-1.290399170E1,6.329512596E0,-9.081482887E-1
1.724925760E1,-1.231538391E1,4.695231438E0,-1.831469536E-1
1.726592354E1,-1.077533436E1,3.299547195E0,-1.362517357E0
1.728258948E1,-9.053255081E0,3.319575310E0,-4.236468315E0
1.729925542E1,-7.563290119E0,5.313426971E0,-7.035687447E0
1.731592135E1,-6.790924072E0,9.757043839E0,-5.082014084E0
1.733258729E1,-4.818722725E0,1.359428406E1,6.510213852E0
1.734925323E1,4.378237724E-1,1.305435658E1,2.377638626E1
1.736591917E1,7.043814659E0,8.859498024E0,3.260225677E1
1.738258510E1,1.030932236E1,6.371878624E0,2.877202988E1
1.739925104E1,9.022544861E0,4.339368343E0,2.068846512E1
1.741591698E1,5.243989944E0,9.527271986E-1,1.481445312E1
1.743258292E1,7.777218819E-1,-3.137876272E0,1.057876587E1
1.744924885E1,-2.645377398E0,-6.687271118E0,7.502902985E0
1.746591479E1,-4.349847794E0,-9.722561836E0,5.101588249E0
1.748258073E1,-4.574954033E0,-1.242976284E1,2.113671303E0
1.749924667E1,-3.953645229E0,-1.442553616E1,-2.090881348E0
1.751591260E1,-3.007903337E0,-1.561106873E1,-6.780245304E0
1.753257854E1,-1.738849163E0,-1.633878899E1,-1.050746155E1
1.754924448E1,-3.043513298E-1,-1.641562462E1,-1.257100964E1
1.756591042E1,1.214822769E0,-1.559393883E1,-1.208790398E1
1.758257635E1,3.204133034E0,-1.405712700E1,-8.068893433E0
1.759924229E1,5.764927387E0,-1.123604774E1,-1.115106583E0
1.761590823E1,8.570975304E0,-7.098751068E0,6.671219826E0
1.763257417E1,1.130150986E1,-1.992694259E0,1.226018238E1
1.764924010E1,1.277493191E1,4.055356026E0,1.399456787E1
1.766590604E1,1.219762421E1,1.064109516E1,1.267385101E1
1.768257198E1,8.845804214E0,1.717703056E1,9.781044006E0
1.769923792E1,3.995665550E0,2.300855637E1,6.789793968E0
1.771590385E1,-4.253544807E-1,2.639947701E1,4.338455200E0
1.773256979E1,-4.019999027E0,2.757411385E1,3.350542068E0
1.774923573E1,-6.165336609E0,2.674119759E1,3.690744400E0
1.776590167E1,-6.265460491E0,2.452663994E1,4.371374607E0
1.778256760E1,-5.298797607E0,2.191152954E1,5.694288731E0
1.779923354E1,-3.978294611E0,1.929084969E1,9.301570892E0
1.781589948E1,-2.176341057E0,1.656674576E1,1.598825932E1
1.783256542E1,1.520862579E0,1.330516434E1,2.514885712E1
1.784923135E1,7.522705078E0,8.162066460E0,3.229526138E1
1.786589729E1,1.364464760E1,7.535586357E-1,3.208182907E1
1.788256323E1,1.661342239E1,-7.120404243E0,2.605017090E1
1.789922917E1,1.561119747E1,-1.412757587E1,1.961131287E1
1.791589510E1,1.199880028E1,-1.931714439E1,1.508209610E1
1.793256104E1,7.307596207E0,-2.397547913E1,1.197898006E1
1.794922698E1,2.096633911E0,-2.814868927E1,8.384305954E0
1.796589292E1,-3.059763432E0,-3.106839180E1,3.679842949E0
1.798255885E1,-7.252501488E0,-3.301100922E1,-1.962364912E0
1.799922479E1,-1.089684010E1,-3.374088669E1,-7.423853397E0
1.801589073E1,-1.367777252E1,-3.421191788E1,-1.077701378E1
1.803255667E1,-1.510486031E1,-3.512590408E1,-1.110007191E1
1.804922260E1,-1.490356445E1,-3.629859543E1,-9.082752228E0
1.806588854E1,-1.151930428E1,-3.820094299E1,-4.557106972E0
1.808255448E1,-4.993834496E0,-3.948011780E1,1.939361572E0
1.809922042E1,5.017504215E0,-3.807771683E1,6.853768349E0
1.811588635E1,1.760764503E1,-3.399681854E1,7.817127705E0
1.813255229E1,2.875523376E1,-2.677665138E1,1.023718071E1
1.814921823E1,3.406690979E1,-1.925799751E1,1.921608353E1
1.816588417E1,3.228576660E1,-1.277629471E1,3.741562271E1
1.818255010E1,2.726359558E1,-3.284348488E0,5.600486374E1
1.819921604E1,2.487748718E1,1.043679428E1,5.980221176E1
1.821588198E1,2.410974312E1,2.649800301E1,4.829011917E1
1.823254792E1,2.022858810E1,4.000247955E1,3.418823242E1
1.824921385E1,1.332543373E1,4.796289444E1,2.417875481E1
1.826587979E1,5.998361111E0,4.999427032E1,1.648226166E1
1.828254573E1,6.977033615E-2,4.623221588E1,1.242445660E1
1.829921167E1,-3.310117722E0,3.799274063E1,1.540007019E1
1.831587760E1,-3.574096680E0,2.795468330E1,2.450970078E1
1.833254354E1,5.343179703E-1,1.910831451E1,3.911732483E1
1.834920948E1,1.089516354E1,1.208199406E1,5.456932449E1
1.836587542E1,2.551020050E1,3.750224590E0,6.135243225E1
1.838254135E1,3.817609406E1,-7.347596645E0,6.012044525E1
1.839920729E1,4.340666962E1,-2.122882271E1,5.622775269E1
1.841587323E1,4.098412704E1,-3.469614029E1,4.877029800E1
1.843253917E1,3.414904022E1,-4.492048645E1,3.808263779E1
1.844920510E1,2.341857529E1,-5.012679291E1,2.602699089E1
1.846587104E1,1.117743206E1,-5.097465134E1,1.604057693E1
1.848253698E1,-1.503000259E-1,-5.017417908E1,7.921086311E0
1.849920292E1,-9.791864395E0,-4.824695206E1,2.390192509E0
1.851586885E1,-1.760361290E1,-4.674581146E1,1.820177794E0
1.853253479E1,-2.323924637E1,-4.832991791E1,4.879384995E0
1.854920073E1,-2.721792984E1,-5.182974243E1,6.586734295E0
1.856586667E1,-2.764665413E1,-5.428779221E1,6.213924408E0
1.858253260E1,-2.440137482E1,-5.505169678E1,5.436586857E0
1.859919854E1,-1.619643021E1,-5.561526108E1,9.395934105E0
1.861586448E1,-1.975104809E0,-5.631743240E1,1.875018120E1
1.863253042E1,1.461409283E1,-5.404308701E1,2.821407127E1
1.864919635E1,3.158069229E1,-4.669836807E1,3.896086502E1
1.866586229E1,4.402115250E1,-3.328948212E1,5.420389557E1
1.868252823E1,4.626901245E1,-1.682154465E1,6.477740479E1
1.869919417E1,3.902741623E1,-1.316247940E0,6.789310455E1
1.871586010E1,2.546164703E1,1.097716904E1,6.226293182E1
1.873252604E1,1.206735039E1,2.326812935E1,5.044704056E1
1.874919198E1,3.510913372E0,3.567173386E1,3.554852676E1
1.876585792E1,-6.220788956E-1,4.425648117E1,2.356691170E1
1.878252385E1,-4.670573235E0,4.916408539E1,1.776566124E1
1.879918979E1,-1.174610996E1,4.895056152E1,1.664157104E1
1.881585573E1,-1.967415237E1,4.252278137E1,2.195455933E1
1.883252167E1,-2.254012871E1,3.206982803E1,3.345271301E1
1.884918760E1,-1.717356300E1,2.227051544E1,4.789805222E1
1.886585354E1,-2.476209402E0,1.186738110E1,5.910041809E1
1.888251948E1,1.677922821E1,-1.446805239E0,6.410267639E1
1.889918542E1,3.106299400E1,-1.547317123E1,6.381945419E1
1.891585135E1,3.678753281E1,-3.024804115E1,5.844498444E1
1.893251729E1,3.536807251E1,-4.157407379E1,4.851461792E1
1.894918323E1,2.837264633E1,-4.906209564E1,3.544852448E1
1.896584917E1,1.600634956E1,-5.083074570E1,2.157363701E1
1.898251510E1,3.251219273E0,-4.800999069E1,1.064369583E1
1.899918104E1,-6.970943928E0,-4.342000961E1,1.594299078E0
1.901584698E1,-1.359058952E1,-3.999081421E1,-1.600807190E0
1.903251292E1,-1.888384247E1,-3.931591034E1,3.122994661E0
1.904917885E1,-2.331528091E1,-4.135744095E1,9.131964684E0
1.906584479E1,-2.553568649E1,-4.369761276E1,9.257217407E0
1.908251073E1,-2.536203766E1,-4.490850449E1,7.061609268E0
1.909917667E1,-2.303891373E1,-4.570376587E1,8.377626419E0
1.911584260E1,-1.662893295E1,-4.728406525E1,1.429825401E1
1.913250854E1,-5.226513863E0,-4.836344910E1,2.143159866E1
1.914917448E1,1.053676510E1,-4.516910172E1,2.933782196E1
1.916584042E1,2.651214409E1,-3.616231537E1,3.906459427E1
1.918250635E1,3.449285889E1,-2.248720360E1,5.110463333E1
1.919917229E1,3.551205063E1,-7.286798954E0,6.026469803E1
1.921583823E1,3.125367355E1,5.628643036E0,5.811414337E1
1.923250417E1,2.306705856E1,1.527540207E1,4.801519394E1
1.924917010E1,1.271778870E1,2.221519661E1,3.705530167E1
1.926583604E1,2.600124836E0,2.932236862E1,2.600708771E1
1.928250198E1,-4.806117058E0,3.755404663E1,1.533832359E1
1.929916792E1,-1.144884872E1,4.519479752E1,7.691742897E0
1.931583385E1,-1.835083389E1,4.875502014E1,6.339194775E0
1.933249979E1,-2.234818268E1,4.586422348E1,1.190695953E1
1.934916573E1,-2.054646301E1,3.833486557E1,2.416778183E1
1.936583167E1,-1.378152466E1,3.094544983E1,4.097593307E1
1.938249760E1,-1.674450874E0,2.278082848E1,5.536715317E1
1.939916354E1,1.518455124E1,1.150568104E1,6.281098175E1
1.941582948E1,3.217348480E1,-3.440950394E0,6.572858429E1
1.943249542E1,4.265619659E1,-1.993213081E1,6.488240051E1
1.944916135E1,4.429621124E1,-3.402119446E1,5.953321457E1
1.946582729E1,3.908003616E1,-4.294681168E1,4.926791000E1
1.948249323E1,2.735295296E1,-4.634568405E1,3.609527588E1
1.949915917E1,1.312641430E1,-4.696479797E1,2.426971436E1
1.951582510E1,5.736846924E-1,-4.571072388E1,1.404771805E1
1.953249104E1,-8.153098106E0,-4.432839203E1,7.563078880E0
1.954915698E1,-1.435813618E1,-4.447789764E1,5.278037071E0
1.956582292E1,-1.939888000E1,-4.632250977E1,4.327686787E0
1.958248885E1,-2.397150612E1,-4.867884827E1,2.350066900E0
1.959915479E1,-2.709454918E1,-5.021484756E1,8.980582952E-1
1.961582073E1,-2.680389786E1,-5.143174362E1,2.652283907E0
1.963248667E1,-2.197637177E1,-5.302462006E1,8.256362915E0
1.964915260E1,-1.052926922E1,-5.480318069E1,1.646144295E1
1.966581854E1,5.748873711E0,-5.358552933E1,2.342326355E1
1.968248448E1,2.293381500E1,-4.706624985E1,3.023028564E1
1.969915042E1,3.337164688E1,-3.660398102E1,3.695808411E1
1.971581635E1,3.214216614E1,-2.624314117E1,4.675692368E1
1.973248229E1,2.515711212E1,-1.848611069E1,5.424554443E1
1.974914823E1,1.756949615E1,-9.646148682E0,5.141662216E1
1.976581417E1,1.236835098E1,-2.312336206E0,4.383907318E1
1.978248010E1,7.924758911E0,3.426095247E0,3.416184616E1
1.979914604E1,4.037575245E0,6.647647381E0,2.518262100E1
1.981581198E1,1.551961899E-1,7.669283867E0,1.859092522E1
1.983247792E1,-4.213334084E0,8.587586403E0,1.431917858E1
1.984914385E1,-9.628677368E0,1.198866940E1,1.174889851E1
1.986580979E1,-1.628119278E1,1.731701088E1,1.106196022E1
1.988247573E1,-2.264265060E1,2.185625839E1,1.108195114E1
1.989914167E1,-2.826172256E1,2.323177528E1,1.135228729E1
1.991580760E1,-3.219381714E1,2.241483688E1,1.183421898E1
1.993247354E1,-3.227827835E1,2.083571625E1,1.190500832E1
1.994913948E1,-2.644437599E1,1.571338749E1,1.424051380E1
1.996580542E1,-1.552515888E1,4.286421776E0,2.207726669E1
1.998247135E1,-3.851996660E0,-9.721672058E0,2.993356705E1
1.999913729E1,4.929119587E0,-1.815250969E1,3.131562042E1
2.001580323E1,1.187309170E1,-2.249102211E1,2.364609909E1
2.003246917E1,1.486632824E1,-2.307553864E1,1.396710968E1
2.004913510E1,1.511392879E1,-2.274517632E1,8.329586029E0
2.006580104E1,1.422602367E1,-2.454594040E1,4.435907364E0
2.008246698E1,1.297141171E1,-2.718609810E1,2.171863556E0
2.009913292E1,1.291426849E1,-2.957363701E1,1.929032326E0
2.011579885E1,1.402319336E1,-3.000168991E1,1.925315857E-1
2.013246479E1,1.423432636E1,-2.790743065E1,-2.208044529E0
2.014913073E1,1.406005287E1,-2.506695366E1,-4.606081009E0
2.016579667E1,1.308659935E1,-2.183156586E1,-1.005596542E1
2.018246260E1,8.748287201E0,-1.703501320E1,-1.394674683E1
2.019912854E1,3.408769846E0,-1.317121315E1,-9.825567245E0
2.021579448E1,-4.932770431E-1,-1.005765724E1,-2.194670200E0
2.023246042E1,-3.200956106E0,-7.309088707E0,1.655254364E-1
2.024912635E1,-3.540214539E0,-4.293417454E0,-4.961848259E-1
2.026579229E1,-1.492232203E0,-1.556402206E0,-1.205420017E0
2.028245823E1,9.829208851E-1,1.354994774E-1,-1.199357033E0
2.029912417E1,2.796683311E0,5.316743851E-1,-4.554314613E-1
2.031579010E1,3.912645102E0,-1.408557892E-1,-2.496623993E-2
2.033245604E1,4.658710003E0,-1.152518272E0,-2.514533997E-1
2.034912198E1,5.152502060E0,-1.495997906E0,1.651773453E-1
2.036578792E1,5.345134735E0,-1.622900486E0,2.272649288E0
2.038245385E1,6.154350281E0,-3.106134653E0,6.140410900E0
2.039911979E1,7.293642998E0,-5.350998402E0,8.954662323E0
2.041578573E1,6.739839554E0,-7.203812599E0,7.830008507E0
2.043245167E1,3.205424547E0,-6.783178329E0,3.039175510E0
2.044911760E1,-1.235122681E0,-4.631765366E0,-1.065690994E0
2.046578354E1,-4.438869476E0,-3.216053247E0,-1.681335926E0
2.048244948E1,-6.397919655E0,-2.952071428E0,-1.449302197E0
2.049911542E1,-7.152027130E0,-2.961837292E0,-2.397827625E0
2.051578135E1,-6.682842255E0,-2.791143894E0,-4.554960251E0
2.053244729E1,-5.420552254E0,-2.438348293E0,-6.514038086E0
2.054911323E1,-3.811164618E0,-2.772596121E0,-7.008430004E0
2.056577917E1,-1.968536377E0,-4.571338654E0,-5.763313770E0
2.058244510E1,2.203925848E-1,-7.696707249E0,-1.556077003E0
2.059911104E1,3.370076656E0,-1.123878288E1,5.792557240E0
2.061577698E1,7.816565514E0,-1.386064720E1,1.202449036E1
2.063244292E1,1.332291985E1,-1.543477821E1,1.185432529E1
2.064910885E1,1.568733978E1,-1.382888603E1,5.912390709E0
2.066577479E1,1.527410412E1,-1.045296001E1,3.631881714E0
2.068244073E1,1.321300316E1,-8.861176491E0,7.214702606E0
2.069910667E1,9.947809219E0,-7.972962856E0,1.266138649E1
2.071577260E1,7.179749012E0,-6.451078415E0,1.612598991E1
2.073243854E1,5.972607136E0,-3.363700151E0,1.403926945E1
2.074910448E1,6.005620003E0,5.963506699E-1,7.607823372E0
2.076577042E1,6.182305813E0,4.098124504E0,8.567152023E-1
2.078243635E1,5.383982658E0,5.777050018E0,-3.510685921E0
2.079910229E1,3.468081951E0,5.542607784E0,-5.137592793E0
2.081576823E1,1.310214281E0,4.019724846E0,-4.824274540E0
2.083243417E1,-2.746163011E-1,2.216859102E0,-3.825793743E0
2.084910010E1,-1.153509140E0,7.541856766E-1,-2.842427731E0
2.086576604E1,-1.113427043E0,-7.213020325E-2,-2.222564697E0
2.088243198E1,-3.812142611E-1,-3.313393593E-1,-1.483055115E0
2.089909792E1,7.087559104E-1,-6.424096823E-1,2.438144684E-1
2.091576385E1,1.749953151E0,-1.594630003E0,2.826589584E0
2.093242979E1,2.392263412E0,-2.786685705E0,5.507966042E0
2.094909573E1,2.719494343E0,-3.397407055E0,6.765169144E0
2.096576167E1,2.804616690E0,-3.244981766E0,5.856661797E0
2.098242760E1,2.688573360E0,-2.623643398E0,3.598087311E0
2.099909354E1,2.409842730E0,-1.797535419E0,1.160796165E0
2.101575948E1,2.167089939E0,-1.214844108E0,-9.355592728E-1
2.103242542E1,1.864509225E0,-9.035834074E-1,-2.664806843E0
2.104909135E1,1.584648252E0,-7.452472448E-1,-3.884718418E0
2.106575729E1,1.316308975E0,-6.398037672E-1,-4.679998875E0
2.108242323E1,1.056792140E0,-5.665041208E-1,-5.010186195E0
2.109908917E1,8.505812883E-1,-5.555995703E-1,-4.787320614E0
2.111575510E1,8.228262663E-1,-3.889214993E-1,-4.297955036E0
2.113242104E1,9.849212170E-1,-2.643095255E-1,-3.912230492E0
2.114908698E1,1.229372978E0,-2.152305841E-1,-3.327245235E0
2.116575292E1,1.358305693E0,-2.343755960E-1,-2.341710567E0
2.118241885E1,1.665340185E0,-2.251189947E-1,-1.280104637E0
2.119908479E1,2.080463409E0,1.619553566E-2,5.565643311E-2
2.121575073E1,2.450603962E0,6.913676262E-1,2.158597946E0
2.123241667E1,2.611297131E0,1.681142569E0,4.735975266E0
2.124908260E1,2.648926020E0,1.925889730E0,7.188564301E0
2.126574854E1,2.955138683E0,1.073090792E0,8.604686737E0
2.128241448E1,3.157311440E0,1.740362644E-1,8.420291901E0
2.129908042E1,3.082957268E0,4.075694084E-2,7.112884521E0
2.131574635E1,2.969946861E0,3.038637638E-1,5.359741211E0
2.133241229E1,2.831354618E0,5.382630825E-1,3.593621254E0
2.134907823E1,2.599242687E0,6.141700745E-1,2.096825600E0
2.136574417E1,2.032267570E0,5.537323952E-1,7.107248306E-1
2.138241010E1,2.002092361E0,3.288176060E-1,-3.297271729E-1
2.139907604E1,1.873179197E0,-2.015749216E-1,-1.115768433E0
2.141574198E1,1.304075480E0,-5.329505205E-1,-1.769659996E0
2.143240792E1,7.317364216E-1,-4.596105814E-1,-2.335608959E0
2.144907385E1,1.291335821E-1,-6.516569853E-1,-2.806008816E0
2.146573979E1,-4.813634157E-1,-9.085385799E-1,-2.869506359E0
2.148240573E1,-1.008508801E0,-1.181295872E0,-3.001634121E0
2.149907167E1,-1.279961109E0,-1.330754042E0,-3.329756737E0
2.151573760E1,-1.459898829E0,-1.165744185E0,-3.634516239E0
2.153240354E1,-1.191486955E0,-1.427484751E0,-2.679499149E0
2.154906948E1,-1.071490645E0,-1.657949686E0,-2.393369198E0
2.156573542E1,-9.324765205E-1,-1.904079914E0,-2.086236477E0
2.158240135E1,-9.118373394E-1,-2.189629555E0,-1.737352848E0
2.159906729E1,-8.858325481E-1,-1.596061587E0,-1.439113140E0
2.161573323E1,-1.513264179E-1,-4.195202827E0,-1.944818497E-1
2.163239917E1,-6.026239395E-1,-4.572725296E0,-2.799129486E-2
2.164906510E1,-1.247674942E0,-4.482024193E0,1.526918411E-1
2.166573104E1,-1.008719683E0,-5.304399967E0,1.548173904E0
2.168239698E1,-1.342345953E0,-5.099277496E0,1.030987740E0
2.169906292E1,-1.382035017E0,-4.772484303E0,7.858161926E-1
2.171572885E1,-1.731330872E0,-4.217839718E0,8.691015244E-1
2.173239479E1,-2.154397488E0,-4.102928638E0,5.449361801E-1
2.174906073E1,-1.936922312E0,-3.860520601E0,1.241130829E-1
2.176572667E1,-1.402154922E0,-2.872642994E0,2.414751053E-1
2.178239260E1,-1.150934458E0,-1.797064304E0,2.206530571E0
2.179905854E1,-9.196968079E-1,-1.185506105E0,4.204115868E0
2.181572448E1,-6.950702667E-1,-8.474342823E-1,4.892818451E0
2.183239042E1,-7.022020817E-1,-6.686711311E-1,4.379197121E0
2.184905635E1,-9.638593197E-1,-5.787434578E-1,3.071934700E0
2.186572229E1,-1.173579693E0,-5.274837017E-1,1.810196877E0
2.188238823E1,-1.149836302E0,-4.559652805E-1,1.116191864E0
2.189905417E1,-1.143015146E0,-5.554120541E-1,9.981927872E-1
2.191572010E1,-1.362696290E0,-7.737656832E-1,1.115725517E0
2.193238604E1,-1.517934561E0,-1.086566210E0,8.013734818E-1
2.194905198E1,-1.506963849E0,-1.380615115E0,-6.017780304E-2
2.196571792E1,-1.480571151E0,-1.359076142E0,-1.162020683E0
2.198238385E1,-1.427567601E0,-1.006987453E0,-2.190418243E0
2.199904979E1,-1.359152555E0,-7.157607079E-1,-2.630702496E0
2.201571573E1,-1.356279016E0,-5.496473312E-1,-2.179316998E0
2.203238167E1,-1.139001012E0,-4.630043507E-1,-9.742326736E-1
2.204904760E1,-8.372566700E-1,-5.514464378E-1,-1.320791245E-1
2.206571354E1,-7.144155502E-1,-5.281355381E-1,-4.079475403E-1
2.208237948E1,-7.271878719E-1,-2.635962963E-1,-1.230034828E0
2.209904542E1,-5.451166630E-1,-1.739976406E-1,-1.872762203E0
2.211571135E1,-5.290615559E-1,-1.825664043E-1,-1.790505886E0
2.213237729E1,-8.946461678E-1,-1.474440098E-1,-1.150010109E0
2.214904323E1,-9.536632299E-1,-4.284899235E-1,-2.026100159E-1
2.216570917E1,-8.080009222E-1,-6.965987682E-1,3.935823441E-1
2.218237510E1,-5.658891201E-1,-8.948898315E-1,6.581792831E-1
2.219904104E1,-3.167313337E-1,-8.438611031E-1,7.726421356E-1
2.221570698E1,9.351277351E-2,-6.266922951E-1,1.063443184E0
2.223237292E1,4.629565477E-1,-4.815356731E-1,1.491261482E0
2.224903885E1,5.681791306E-1,-4.973888397E-1,1.507719040E0
2.226570479E1,4.857591391E-1,-6.467797756E-1,9.975051880E-1
2.228237073E1,1.408125162E-1,-7.426941395E-1,3.597574234E-1
2.229903667E1,-2.872445583E-1,-7.211427689E-1,-1.383056641E-1
2.231570260E1,-5.314274430E-1,-5.947473049E-1,-4.477586746E-1
2.233236854E1,-5.473490953E-1,-4.350836277E-1,-4.002580643E-1
2.234903448E1,-6.298217773E-1,-5.936055183E-1,-1.676025391E-1
2.236570042E1,-7.624827623E-1,-8.115320206E-1,-5.499792099E-1
2.238236635E1,-7.350817919E-1,-7.804844379E-1,-1.058358192E0
2.239903229E1,-6.476918459E-1,-7.555277348E-1,-1.478499413E0
2.241569823E1,-6.074031591E-1,-8.322224617E-1,-1.386942863E0
2.243236417E1,-7.583138943E-1,-8.296358585E-1,-9.080972672E-1
2.244903010E1,-1.142811179E0,-8.101329803E-1,-4.260778427E-1
2.246569604E1,-2.131757259E0,-1.018221855E0,-1.452290535E0
2.248236198E1,-2.486511707E0,-8.384082317E-1,-2.054244518E0
2.249902792E1,-2.095260143E0,-4.915821552E-1,-2.253482819E0
2.251569385E1,-6.828113198E-1,-5.078964233E-1,-7.033290863E-1
2.253235979E1,1.775113106E0,-1.263651133E0,2.060078621E0
2.254902573E1,2.264917850E0,-2.013549805E0,2.815760612E0
2.256569167E1,1.265764117E0,-1.688657165E0,2.656777382E0
2.258235760E1,2.087550163E-1,-9.133410454E-1,2.515912056E0
2.259902354E1,-8.598208427E-3,-5.259542465E-1,1.778029442E0
2.261568948E1,2.328341007E-1,-4.628210068E-1,1.516504288E0
2.263235542E1,4.206264019E-1,-2.971971035E-1,1.372089386E0
2.264902135E1,4.201265574E-1,-1.409983635E-2,1.084756851E0
2.266568729E1,2.144439220E-1,1.699204445E-1,6.246595383E-1
2.268235323E1,5.608212948E-2,2.795202732E-1,2.351951599E-1
2.269901917E1,3.331935406E-2,3.516204357E-1,-1.603183746E-1
2.271568510E1,3.989827633E-2,3.337509632E-1,-5.154170990E-1
2.273235104E1,2.955698967E-2,2.716605663E-1,-5.904016495E-1
2.274901698E1,-1.654183865E-1,2.116088867E-1,-2.937746048E-1
2.276568292E1,-2.936900854E-1,1.704399586E-1,1.300811768E-2
2.278234885E1,-2.710908651E-1,1.843786240E-2,1.845464706E-1
2.279901479E1,-2.970027328E-1,-2.296948433E-1,2.116479874E-1
2.281568073E1,-4.208217263E-1,-4.555323124E-1,2.188491821E-1
2.283234667E1,-5.509994030E-1,-6.245164871E-1,2.720260620E-1
2.284901260E1,-7.105035782E-1,-7.884359360E-1,-5.820369720E-2
2.286567854E1,-8.954469562E-1,-8.727238178E-1,-5.786228180E-1
2.288234448E1,-7.454980612E-1,-9.453759193E-1,-6.487903595E-1
2.289901042E1,-5.501126051E-1,-1.010295630E0,-6.982135773E-1
2.291567635E1,-1.380146265E0,-1.866033077E-1,-1.428410530E0
2.293234229E1,-1.541196585E0,-3.492331505E-2,-2.053979874E0
2.294900823E1,-8.777251244E-1,-1.219514847E0,-1.753529549E0
2.296567417E1,-3.058685660E-1,-1.967464209E0,-5.712804794E-1
2.298234010E1,-2.654286623E-1,-1.639941216E0,6.119318008E-1
2.299900604E1,-1.056061387E-1,-1.422354102E0,1.184199333E0
2.301567198E1,-3.522264957E-2,-1.530815482E0,8.928298950E-1
2.303233792E1,-1.457495093E-1,-1.516417027E0,1.041250229E-1
2.304900385E1,-4.153980613E-1,-1.263865113E0,-9.136171341E-1
2.306566979E1,-5.247809291E-1,-9.050205946E-1,-1.469345093E0
2.308233573E1,-4.121617675E-1,-7.125943899E-1,-1.144829750E0
2.309900167E1,-2.887209654E-1,-6.437722445E-1,-6.287250519E-1
2.311566760E1,-2.778817415E-1,-5.596066713E-1,-2.984714508E-1
2.313233354E1,-2.650521994E-1,-5.961174965E-1,-6.972885132E-2
2.314899948E1,-2.678347826E-1,-7.773913145E-1,1.858348846E-1
2.316566542E1,-2.756553888E-1,-9.315196872E-1,2.223720551E-1
2.318233135E1,-2.968727350E-1,-1.120827794E0,-7.958412170E-3
2.319899729E1,-3.288226128E-1,-1.178726673E0,-5.190677643E-1
2.321566323E1,-3.067809343E-1,-1.023925185E0,-9.740514755E-1
2.323232917E1,-8.653080463E-2,-7.449097037E-1,-8.948202133E-1
2.324899510E1,3.258283138E-1,-4.508256316E-1,-4.643640518E-1
2.326566104E1,6.149119139E-1,-2.908902168E-1,-5.889797211E-2
2.328232698E1,5.586665869E-1,-1.944143772E-1,1.309909821E-1
2.329899292E1,4.273482561E-1,1.316523552E-2,2.015085220E-1
2.331565885E1,4.823677540E-1,2.988862991E-1,4.319591522E-1
2.333232479E1,6.069074869E-1,4.548293352E-1,8.110399246E-1
2.334899073E1,6.852070093E-1,3.613909483E-1,1.150424004E0
2.336565667E1,6.831223965E-1,-3.529608250E-2,1.232235909E0
2.338232260E1,4.140183926E-1,-4.706850648E-1,8.587150574E-1
2.339898854E1,1.726531982E-2,-6.826252341E-1,1.473741531E-1
2.341565448E1,-2.009549141E-1,-6.432211399E-1,-5.000419617E-1
2.343232042E1,-2.177212238E-1,-6.340306401E-1,-6.223993301E-1
2.344898635E1,-2.493726015E-1,-5.845847726E-1,-4.084463120E-1
2.346565229E1,-2.748317719E-1,-3.538216949E-1,-2.119750977E-1
2.348231823E1,-2.721495628E-1,-1.715954542E-1,-1.784915924E-1
2.349898417E1,-2.618921995E-1,-1.276808977E-1,-2.405385971E-1
2.351565010E1,-2.159554362E-1,-3.048539162E-2,-2.628068924E-1
2.353231604E1,-7.650542259E-2,1.633751392E-2,-3.101301193E-1
2.354898198E1,1.336822510E-1,-7.241225243E-2,-3.490505219E-1
2.356564792E1,2.055270076E-1,-2.407667637E-1,-6.108436584E-1
2.358231385E1,9.846973419E-2,-2.700073719E-1,-9.077339172E-1
2.359897979E1,9.819269180E-3,-9.076428413E-2,-9.189138412E-1
2.361564573E1,-6.123214960E-2,1.593351364E-3,-6.423110962E-1
2.363231167E1,-1.815494895E-1,-6.689190865E-3,-3.623142242E-1
2.364897760E1,-2.890448570E-1,-7.464027405E-2,-1.961622238E-1
2.366564354E1,-4.026952684E-1,-8.435535431E-2,-1.164064407E-1
2.368230948E1,-4.515160918E-1,4.092812538E-3,7.646656036E-2
2.369897542E1,-3.449555337E-1,-1.966047287E-2,1.742019653E-1
2.371564135E1,-5.737906694E-2,-1.137398481E-1,-6.988430023E-2
2.373230729E1,2.044667900E-1,-4.537105560E-2,-6.462669373E-1
2.374897323E1,-1.904913783E-1,2.204062939E-1,-1.794242859E0
2.376563917E1,-3.853498101E-1,1.920539141E-1,-2.220801353E0
2.378230510E1,-3.846976161E-1,-1.868951321E-2,-7.781362534E-1
2.379897104E1,-5.370869040E-1,-1.386864185E-1,1.565994263E0
2.381563698E1,-6.713089943E-1,-2.037205696E-1,2.141521454E0
2.383230292E1,-7.185864449E-1,-2.204389572E-1,1.878279686E0
2.384896885E1,-9.360726476E-1,-5.155254006E-1,6.486005783E-1
2.386563479E1,-1.052432775E0,-4.190163612E-1,-9.049606323E-2
2.388230073E1,-4.478208423E-1,-1.638928652E-1,-5.571727753E-1
2.389896667E1,-2.360598445E-1,5.949783325E-2,-1.040229797E-1
2.391563260E1,1.531598270E-1,2.794785500E-1,-3.305463791E-1
2.393229854E1,5.086292624E-1,7.683649063E-1,-3.774423599E-1
2.394896448E1,3.833479285E-1,1.114399433E0,-2.081174850E-1
2.396563042E1,-5.294591188E-3,8.249306679E-1,1.819744110E-1
2.398229635E1,-2.322888076E-1,2.015154362E-1,5.043296814E-1
2.399896229E1,-3.860431910E-1,-1.460427046E-1,7.471446991E-1
2.401562823E1,-5.476642251E-1,-6.919527054E-2,8.424463272E-1
2.403229417E1,-5.376881361E-1,2.082101107E-1,8.405370712E-1
2.404896010E1,-2.486847043E-1,3.091304302E-1,8.057527542E-1
2.406562604E1,-1.199531555E-2,2.276533842E-1,5.533342361E-1
2.408229198E1,-3.521752357E-2,9.305715561E-2,3.509550095E-1
2.409895792E1,-2.919746637E-1,1.008796692E-1,1.239690781E-1
2.411562385E1,-5.658380985E-1,3.586153984E-1,1.920108795E-1
2.413228979E1,-6.611096859E-1,8.156507015E-1,3.485355377E-1
2.414895573E1,-3.317909241E-1,1.033322811E0,7.182598114E-1
2.416562167E1,-3.626143932E-2,7.628657818E-1,7.632894516E-1
2.418228760E1,-1.586163044E-2,3.581025600E-1,6.712379456E-1
2.419895354E1,-2.256880999E-1,1.864721775E-1,4.664287567E-1
2.421561948E1,-4.325543642E-1,3.287982941E-1,3.786134720E-1
2.423228542E1,-5.752389431E-1,9.777944088E-1,3.528823853E-1
2.424895135E1,-4.604787827E-1,1.601711750E0,5.243949890E-1
2.426561729E1,-2.511563301E-1,1.742120266E0,6.701955795E-1
2.428228323E1,-4.307484627E-2,1.371413708E0,6.965188980E-1
2.429894917E1,2.995395660E-2,1.036320686E0,7.355766296E-1
2.431561510E1,1.207828522E-3,4.062662125E-1,8.697519302E-1
2.433228104E1,-9.605169296E-2,-2.387466431E-1,3.715500832E-1
2.434894698E1,-2.508289814E-1,3.817739487E-1,9.558010101E-2
2.436561292E1,-2.981255054E-1,3.808965683E-1,2.952308655E-1
2.438227885E1,3.734493256E-2,-6.723399162E-1,1.251087189E-1
2.439894479E1,4.481599331E-1,-1.467640400E0,1.428890228E-2
2.441561073E1,7.820065022E-1,-1.913891792E0,-1.187753677E-2
2.443227667E1,7.727218866E-1,-2.347474098E0,-3.119134903E-2
2.444894260E1,6.194723845E-1,-2.744080544E0,-1.587972641E-1
2.446560854E1,5.414683819E-1,-2.800176144E0,-1.975140572E-1
2.448227448E1,-1.339381933E-1,-2.593127728E0,6.312036514E-2
2.449894042E1,-1.308634520E0,-2.455251217E0,1.849832535E-1
2.451560635E1,-2.403390884E0,-2.263146877E0,-6.356477737E-2
2.453227229E1,-2.956308365E0,-2.417295456E0,-1.285839081E-1
2.454893823E1,-2.643803358E0,-2.920766830E0,-9.150981903E-2
2.456560417E1,-1.865671039E0,-3.144204617E0,-3.081884384E-1
2.458227010E1,-2.048350573E0,-3.269109249E0,-7.357964516E-1
2.459893604E1,-2.913388491E0,-2.887384415E0,-1.085219383E0
2.461560198E1,-4.186745644E0,-2.289553165E0,-1.132069349E0
2.463226792E1,-5.505052567E0,-2.101778507E0,-3.584332466E-1
2.464893385E1,-5.846854210E0,-2.420898914E0,-1.565415859E-1
2.466559979E1,-4.891536713E0,-2.843617916E0,-5.106675625E-1
2.468226573E1,-3.828195572E0,-2.603372574E0,-1.226806879E0
2.469893167E1,-3.613894463E0,-1.512248993E0,-2.015566587E0
2.471559760E1,-3.909523964E0,-5.905861855E-1,-2.604828119E0
2.473226354E1,-3.883291960E0,-5.990128517E-1,-2.723741531E0
2.474892948E1,-3.183270454E0,-1.300984859E0,-2.097919941E0
2.476559542E1,-2.174067497E0,-2.158630133E0,-1.297667503E0
2.478226135E1,-1.714622974E0,-2.227847815E0,-3.226835728E-1
2.479892729E1,-2.032161236E0,-1.119148731E0,6.620430946E-1
2.481559323E1,-2.110029221E0,3.660712242E-1,1.133899689E0
2.483225917E1,-1.492059708E0,9.557676315E-1,9.081645012E-1
2.484892510E1,3.135995865E-1,2.256097794E-1,5.021085739E-1
2.486559104E1,2.735988617E0,-7.075517178E-1,1.015777588E-1
2.488225698E1,3.279082298E0,-6.464977264E-1,3.530993462E-1
2.489892292E1,2.163078785E0,2.744526863E-1,1.570200443E0
2.491558885E1,1.064000130E0,1.142657280E0,2.614503860E0
2.493225479E1,3.838500977E-1,1.446881533E0,2.694972515E0
2.494892073E1,1.975989342E-1,9.298980236E-1,1.933101177E0
2.496558667E1,9.908237457E-1,2.018465996E-1,9.037208557E-1
2.498225260E1,2.444376945E0,1.415836811E-1,5.052680969E-1
2.499891854E1,2.491632938E0,7.149558067E-1,6.838202477E-1
2.501558448E1,1.297346592E0,1.072621822E0,5.294589996E-1
2.503225042E1,3.752512932E-1,9.587869644E-1,2.225055695E-1
2.504891635E1,-2.370214462E-1,4.141845703E-1,7.603693008E-1
2.506558229E1,-1.067088604E0,6.146633625E-1,2.009234905E0
2.508224823E1,-5.880742073E-1,7.235131264E-1,1.757911682E0
2.509891417E1,3.250479698E-1,8.131692410E-1,1.391820908E0
2.511558010E1,1.081870079E0,7.202619314E-1,1.345383644E0
2.513224604E1,1.152150631E0,6.882601976E-1,9.811916351E-1
2.514891198E1,1.077577114E0,2.349072695E-1,5.854959488E-1
2.516557792E1,1.399309635E0,-9.858654737E-1,2.108831406E-1
2.518224385E1,1.401111603E0,-1.825818181E0,-7.546424866E-2
2.519890979E1,9.489059448E-1,-1.308606386E0,2.286291122E-1
2.521557573E1,5.948541164E-1,-4.514925480E-1,1.142495155E0
2.523224167E1,6.669304371E-1,1.286146641E-1,1.243684769E0
2.524890760E1,1.249158382E-1,7.235856056E-1,9.923868179E-1
2.526557354E1,-6.324996948E-1,1.175259948E0,7.981414795E-1
2.528223948E1,-4.787726402E-1,9.488981962E-1,8.796577454E-1
2.529890542E1,-3.465962410E-1,4.355508089E-1,2.772579193E-1
2.531557135E1,-7.176518440E-1,4.560219049E-1,-1.038687706E0
2.533223729E1,-6.697961092E-1,7.532387972E-1,-5.806503296E-1
2.534890323E1,7.694721222E-3,6.123883724E-1,2.537078857E-1
2.536556917E1,3.751964569E-1,5.260089636E-1,1.020182610E0
2.538223510E1,3.836264610E-1,2.496839762E-1,1.357225418E0
2.539890104E1,2.346404791E-1,-2.241938114E-1,9.777193069E-1
2.541556698E1,7.825469971E-2,-4.585098028E-1,4.110231400E-1
2.543223292E1,2.365791798E-2,-3.331458569E-1,9.866619110E-2
2.544889885E1,-2.323234677E-1,-8.656883240E-2,6.999969482E-4
2.546556479E1,-6.443679929E-1,4.665458202E-2,1.329231262E-2
2.548223073E1,-7.115515471E-1,2.357244492E-3,1.033620834E-1
2.549889667E1,-3.523822427E-1,-1.888871193E-3,1.854104996E-1
2.551556260E1,1.301403940E-1,1.361434460E-1,3.763418198E-1
2.553222854E1,4.630005360E-2,1.784180403E-1,5.483179092E-1
2.554889448E1,-5.248247385E-1,-1.445497274E-1,2.204647064E-1
2.556556042E1,-7.287198305E-1,-4.162281752E-1,-1.763296127E-1
2.558222635E1,-5.351316333E-1,-2.748030424E-1,-2.911653519E-1
2.559889229E1,-3.231551051E-1,5.822753906E-2,-9.011650085E-2
2.561555823E1,-1.816262454E-1,2.258585691E-1,4.872512817E-2
2.563222417E1,-2.457053065E-1,2.286149263E-1,-9.291172028E-2
2.564889010E1,-6.190471649E-1,2.126538754E-1,-4.430294037E-1
2.566555604E1,-7.650259733E-1,2.281770706E-1,-7.595405579E-1
2.568222198E1,-5.458256602E-1,1.614991426E-1,-5.933694839E-1
2.569888792E1,-2.716737390E-1,-1.221776009E-3,-1.716594696E-1
2.571555385E1,-8.481225371E-2,-5.762970448E-2,1.838426590E-1
2.573221979E1,-1.331919581E-1,-5.977499485E-2,2.662639618E-1
2.574888573E1,-3.817125261E-1,-2.359902859E-1,-1.928281784E-1
2.576555167E1,-5.256514549E-1,-3.758865595E-1,-8.132038116E-1
2.578221760E1,-4.091888666E-1,-2.808824778E-1,-1.075810432E0
2.579888354E1,5.642339587E-3,-1.804757118E-2,-8.865623474E-1
2.581554948E1,6.638400555E-1,1.843054295E-1,-6.121997833E-1
2.583221542E1,8.352683783E-1,-2.055573463E-2,-4.777317047E-1
2.584888135E1,9.792701006E-1,-5.099874735E-1,-2.685060501E-1
2.586554729E1,1.137228370E0,-6.769090891E-1,-2.625246048E-1
2.588221323E1,8.742127419E-1,-3.540201187E-1,-3.830661774E-1
2.589887917E1,4.642616510E-1,-1.623046398E-2,-3.430547714E-1
2.591554510E1,7.590723038E-2,2.587062120E-1,-1.501655579E-2
2.593221104E1,-6.076701880E-1,8.475450277E-1,7.959270477E-2
2.594887698E1,-1.430891037E0,1.489097834E0,1.681909561E-1
2.596554292E1,-1.880774975E0,1.831915736E0,-4.266662598E-1
2.598220885E1,-1.354505539E0,1.490595341E0,-8.875379562E-1
2.599887479E1,-5.298289061E-1,7.834963799E-1,-7.569332123E-1
2.601554073E1,-2.502208054E-1,5.404286385E-1,-4.252309799E-1
2.603220667E1,-7.303622365E-2,4.856783152E-1,-3.858499527E-1
2.604887260E1,2.762705386E-1,5.101307631E-1,-3.685235977E-1
2.606553854E1,5.113452673E-1,6.401450634E-1,-3.457565308E-1
2.608220448E1,5.627120733E-1,6.564962864E-1,-5.446882248E-1
2.609887042E1,5.212188959E-1,6.723284721E-1,-6.893539429E-1
2.611553635E1,3.916299045E-1,8.064343929E-1,-5.749883652E-1
2.613220229E1,1.825617850E-1,7.609592676E-1,-3.557043076E-1
2.614886823E1,9.614512324E-2,6.560144424E-1,-4.110908508E-2
2.616553417E1,1.648020297E-1,6.672121286E-1,3.045969009E-1
2.618220010E1,3.383561969E-1,6.850316525E-1,4.179039001E-1
2.619886604E1,3.863260746E-1,7.623987198E-1,2.790946960E-1
2.621553198E1,2.178090215E-1,7.266927958E-1,1.251621246E-1
2.623219792E1,-3.657647967E-2,5.289901495E-1,-5.298614502E-3
2.624886385E1,-2.264061868E-1,3.489334583E-1,-1.064567566E-1
2.626552979E1,-2.365565002E-1,2.854313850E-1,-1.357727051E-1
2.628219573E1,-3.508812189E-2,3.069998026E-1,1.137800217E-1
2.629886167E1,2.271558344E-1,3.541052341E-1,5.606279373E-1
2.631552760E1,2.879132926E-1,2.924093008E-1,7.271413803E-1
2.633219354E1,1.774106771E-1,9.528398514E-2,6.278953552E-1
2.634885948E1,-7.006867230E-2,-6.149339676E-2,4.061260223E-1
2.636552542E1,-3.629288077E-1,-1.059874296E-1,1.513481140E-1
2.638219135E1,-5.219306946E-1,-8.898174763E-2,-1.602668762E-1
2.639885729E1,-4.407041669E-1,8.862257004E-3,-5.760622025E-1
2.641552323E1,-2.599276602E-1,1.551966667E-1,-5.002536774E-1
2.643218917E1,-7.750809938E-2,1.362669468E-1,1.967144012E-2
2.644885510E1,1.800103486E-1,-5.969989300E-2,4.423284531E-1
2.646552104E1,3.683466315E-1,-3.687999249E-1,5.748968124E-1
2.648218698E1,6.209852099E-1,-7.171827555E-1,4.521770477E-1
2.649885292E1,6.989344358E-1,-8.203394413E-1,3.296813965E-1
2.651551885E1,1.819495559E-1,-5.796508789E-1,1.898660660E-1
2.653218479E1,-1.722795516E-1,-4.581276178E-1,3.748607635E-2
2.654885073E1,-4.509202838E-1,-2.309461832E-1,5.734920502E-2
2.656551667E1,-5.142319798E-1,2.119040489E-2,1.220436096E-1
2.658218260E1,-3.209175467E-1,-1.034784317E-2,1.888809204E-1
2.659884854E1,7.163019478E-2,-2.808991671E-1,1.721954346E-2
2.661551448E1,2.476238906E-1,-3.744335175E-1,-4.414367676E-1
2.663218042E1,9.296735376E-2,-2.437777519E-1,-4.610576630E-1
2.664884635E1,1.529522240E-1,-3.403536081E-1,-4.492521286E-1
2.666551229E1,2.881329954E-1,-5.351411104E-1,-3.425426483E-1
2.668217823E1,3.418060541E-1,-6.683522463E-1,-2.280769348E-1
2.669884417E1,3.194607794E-1,-5.960042477E-1,-3.022022247E-1
2.671551010E1,2.712330222E-1,-3.048360348E-1,-2.507438660E-1
2.673217604E1,3.465936780E-1,-1.397596598E-1,1.965141296E-2
2.674884198E1,2.489053309E-1,-1.932431459E-1,1.799135208E-1
2.676550792E1,9.514012933E-2,-2.460154295E-1,8.659362793E-3
2.678217385E1,-3.277927637E-2,-1.143909693E-1,-2.511291504E-1
2.679883979E1,-8.079805970E-2,8.949196339E-2,-4.839391708E-1
2.681550573E1,1.581678987E-1,1.308536530E-1,-6.189041138E-1
2.683217167E1,5.244709849E-1,1.476165056E-1,-7.024917603E-1
2.684883760E1,3.409565091E-1,5.198664665E-1,-7.885684967E-1
2.686550354E1,2.412694693E-1,5.449212790E-1,-8.612756729E-1
2.688216948E1,3.002680242E-1,3.715041876E-1,-7.198028564E-1
2.689883542E1,2.859209180E-1,2.399088144E-1,-4.891700745E-1
2.691550135E1,1.735867560E-1,2.598612309E-1,-3.540067673E-1
2.693216729E1,3.260686994E-2,2.964622974E-1,-3.905401230E-1
2.694883323E1,7.617202401E-2,2.713649273E-1,-6.153135300E-1
2.696549917E1,1.017416418E-1,4.528106451E-1,-9.874267578E-1
2.698216510E1,1.014321297E-1,5.699079037E-1,-9.995346069E-1
2.699883104E1,1.875844598E-1,6.644147635E-1,-6.842527390E-1
2.701549698E1,3.351666629E-1,7.344017029E-1,-1.921749115E-1
2.703216292E1,3.370654285E-1,7.969064713E-1,8.706760406E-2
2.704882885E1,4.318290949E-1,8.205449581E-1,2.284240723E-1
2.706549479E1,5.192914009E-1,8.934831619E-1,7.754993439E-2
2.708216073E1,6.032247543E-1,9.941428900E-1,-1.864156723E-1
2.709882667E1,6.610648632E-1,1.012678862E0,-3.664035797E-1
2.711549260E1,6.452405453E-1,1.140558481E0,-3.574323654E-1
2.713215854E1,6.417267323E-1,1.253830671E0,-2.485904694E-1
2.714882448E1,1.038414478E0,6.955108643E-1,-2.211217880E-1
2.716549042E1,6.014916301E-2,1.616133690E0,2.196216583E-1
2.718215635E1,5.393337607E-1,7.011086941E-1,8.010482788E-2
2.719882229E1,4.954611361E-1,2.410283089E-1,2.726974487E-1
2.721548823E1,5.870359540E-1,1.387696266E-1,1.222604752E0
2.723215417E1,2.946758270E-1,8.588218689E-2,1.763649940E0
2.724882010E1,-1.816781759E-1,-8.558201790E-2,1.039411545E0
2.726548604E1,-4.902462959E-1,-2.574579716E-1,-1.728630066E-1
2.728215198E1,-3.674727082E-1,-1.711444855E-1,-6.139774323E-1
2.729881792E1,1.838669181E-2,2.380132675E-2,-2.238941193E-2
2.731548385E1,3.701157272E-1,1.305675507E-1,6.495456696E-1
2.733214979E1,2.613973618E-1,6.327390671E-2,6.120071411E-1
2.734881573E1,-3.826990724E-2,-3.720750809E-1,5.443687439E-1
2.736548167E1,-4.060789049E-1,-1.023018599E0,9.584779739E-1
2.738214760E1,-3.277744353E-1,-1.606754303E0,1.597174644E0
2.739881354E1,-2.784434557E-1,-1.436920166E0,1.839648247E0
2.741547948E1,-3.685173392E-1,-7.529969215E-1,1.331682205E0
2.743214542E1,-5.099042654E-1,-4.500203133E-1,3.677530289E-1
2.744881135E1,-3.910657763E-1,-4.144676924E-1,-4.848728180E-1
2.746547729E1,-2.873373330E-1,-1.739170551E-1,-1.066090584E0
2.748214323E1,-2.736057937E-1,-1.460385323E-1,-1.129725456E0
2.749880917E1,-3.447657228E-1,-1.503338814E-1,-6.343164444E-1
2.751547510E1,-2.475150973E-1,-4.203318357E-1,-5.807876587E-3
2.753214104E1,-1.103838980E-1,-7.692872286E-1,3.539676666E-1
2.754880698E1,-1.518528163E-1,-9.413100481E-1,3.417139053E-1
2.756547292E1,-2.367072701E-1,-8.391176462E-1,2.204961777E-1
2.758213885E1,-2.171276361E-1,-7.750247717E-1,5.805301666E-2
2.759880479E1,-4.316556454E-1,-5.713245869E-1,-1.595439911E-1
2.761547073E1,-7.139164209E-1,-5.169785023E-1,-7.214784622E-1
2.763213667E1,-9.893849492E-1,-3.856519461E-1,-1.197273254E0
2.764880260E1,-7.738583088E-1,7.409811020E-2,-8.974285126E-1
2.766546854E1,-3.696923554E-1,8.232212067E-2,-2.272863388E-1
2.768213448E1,-3.225668967E-1,-1.094698906E-2,1.385030746E-1
2.769880042E1,-2.685266137E-1,-8.221936226E-2,1.923084259E-2
2.771546635E1,-1.763142943E-1,-6.552720070E-2,-3.190240860E-1
2.773213229E1,-4.084735215E-1,5.751132965E-3,-6.457328796E-1
2.774879823E1,-4.259528518E-1,3.554916382E-2,-7.858095169E-1
2.776546417E1,-4.941065609E-1,1.883134842E-1,-7.377214432E-1
2.778213010E1,-4.336798191E-1,3.301882744E-1,-6.083288193E-1
2.779879604E1,-1.774952412E-1,4.131333828E-1,-3.661670685E-1
2.781546198E1,-2.031036019E-1,5.516602993E-1,-1.826105118E-1
2.783212792E1,-2.195481956E-1,5.097579956E-1,-1.193246841E-1
2.784879385E1,-1.332615316E-1,3.259055614E-1,-2.762050629E-1
2.786545979E1,-2.165530622E-1,4.993362427E-1,-5.986852646E-1
2.788212573E1,-3.143868148E-1,8.349285126E-1,-8.962278366E-1
2.789879167E1,-1.899465919E-1,8.893518448E-1,-8.502502441E-1
2.791545760E1,1.114673018E-1,6.251235008E-1,-3.432655334E-1
2.793212354E1,7.208734751E-3,5.026786327E-1,1.290197372E-1
2.794878948E1,-2.736574411E-1,4.983325005E-1,3.050813675E-1
2.796545542E1,-2.709625959E-1,3.665857315E-1,4.133901596E-1
2.798212135E1,-3.329461813E-1,4.630968571E-1,4.078693390E-1
2.799878729E1,-3.002235293E-1,6.192626953E-1,3.573970795E-1
2.801545323E1,-2.436364293E-1,6.369102001E-1,3.079595566E-1
2.803211917E1,-1.711272895E-1,4.684436321E-1,4.543228149E-1
2.804878510E1,8.141040802E-3,2.395088673E-1,7.102985382E-1
2.806545104E1,-8.571678400E-2,8.533716202E-2,7.982864380E-1
2.808211698E1,-2.140111327E-1,-1.906647682E-1,5.673704147E-1
2.809878292E1,-6.234043837E-2,-4.701544046E-1,5.991153717E-1
2.811544885E1,4.236400127E-4,-3.401569128E-1,1.113265991E0
2.813211479E1,-1.562739909E-1,-6.481385231E-2,1.257017136E0
2.814878073E1,-7.694742084E-2,-2.138367891E-1,9.115915298E-1
2.816544667E1,3.091528118E-1,-4.119695425E-1,5.605096817E-1
2.818211260E1,4.238916934E-1,-4.523447752E-1,2.458209991E-1
2.819877854E1,2.285205126E-1,-3.599554300E-1,1.381587982E-2
2.821544448E1,1.077697501E-1,-6.173750162E-1,-5.251531601E-1
2.823211042E1,7.124271244E-2,-5.222090483E-1,-8.346185684E-1
2.824877635E1,1.262542158E-1,-1.766507626E-1,-7.787761688E-1
2.826544229E1,1.920563579E-1,-2.588678598E-1,-4.624729156E-1
2.828210823E1,3.911471367E-2,-6.219356060E-1,-2.578983307E-1
2.829877417E1,-2.217374593E-1,-8.488824368E-1,-1.726408005E-1
2.831544010E1,-3.053720593E-1,-1.075525045E0,-5.973434448E-2
2.833210604E1,-3.032702804E-1,-1.003409147E0,-1.414146423E-1
2.834877198E1,-9.939673543E-2,-3.545641899E-1,-4.717130661E-1
2.836543792E1,1.130592227E-1,2.284910679E-1,-7.550897598E-1
2.838210385E1,2.934035659E-2,4.293787479E-1,-6.442823410E-1
2.839876979E1,-2.466646433E-1,1.801362038E-1,-3.617591858E-1
2.841543573E1,-3.662597239E-1,3.015756607E-3,-4.562110901E-1
2.843210167E1,-2.451211512E-1,3.885006905E-2,-8.357706070E-1
2.844876760E1,-1.418621838E-1,2.203844786E-1,-1.058398247E0
2.846543354E1,2.418383956E-2,3.180400133E-1,-8.032550812E-1
2.848209948E1,1.107480526E-1,4.066523314E-1,-3.381547928E-1
2.849876542E1,3.513507247E-1,3.233271837E-1,-2.868108749E-1
2.851543135E1,1.705136299E-1,2.587465048E-1,-5.639009476E-1
2.853209729E1,-1.457656920E-1,1.987245083E-1,-7.610321045E-1
2.854876323E1,-2.453848720E-2,2.345395088E-2,-8.422899246E-1
2.856542917E1,7.099997997E-2,3.313046694E-1,-6.413211823E-1
2.858209510E1,2.873418033E-1,5.435357094E-1,-4.041023254E-1
2.859876104E1,4.839013517E-1,5.978534222E-1,-3.254899979E-1
2.861542698E1,3.442682624E-1,9.300155640E-1,-3.967847824E-1
2.863209292E1,4.598870873E-1,9.766947031E-1,-3.560419083E-1
2.864875885E1,5.575981140E-1,1.004165411E0,-4.894466400E-1
2.866542479E1,4.911102057E-1,1.033421874E0,-6.178541183E-1
2.868209073E1,5.725702047E-1,1.115190625E0,-4.316816330E-1
2.869875667E1,8.010112047E-1,1.225356221E0,1.322498322E-1
2.871542260E1,8.102418184E-1,1.012817740E0,6.678457260E-1
2.873208854E1,6.724764109E-1,5.469594002E-1,8.566036224E-1
2.874875448E1,4.270441830E-2,4.803788662E-1,7.284832001E-1
2.876542042E1,-3.219732642E-2,3.546307087E-1,6.455135345E-1
2.878208635E1,1.235758662E-1,3.524947166E-1,7.154626846E-1
2.879875229E1,1.757863462E-1,5.176782608E-1,8.000926971E-1
2.881541823E1,-2.311265171E-1,2.918601036E-1,6.604843140E-1
2.883208417E1,-4.308429062E-1,-1.386003494E-1,5.570755005E-1
2.884875010E1,-7.192703336E-2,-2.814158201E-1,1.177375793E0
2.886541604E1,9.693889320E-2,-2.691715956E-1,1.607006073E0
2.888208198E1,1.077749059E-1,-3.692574501E-1,1.424528122E0
2.889874792E1,8.824409544E-2,-4.430342913E-1,1.095272064E0
2.891541385E1,-2.950999737E-1,-4.560853243E-1,7.100257874E-1
2.893207979E1,-9.175005555E-2,-4.407006502E-1,7.743330002E-1
2.894874573E1,1.750087440E-1,-6.452130079E-1,9.415512085E-1
2.896541167E1,-1.281697452E-1,-7.258397341E-1,7.643470764E-1
2.898207760E1,-2.359324247E-1,-7.259256840E-1,3.186454773E-1
2.899874354E1,-3.508983254E-1,-5.155134201E-1,-2.136659622E-1
2.901540948E1,-3.697892725E-1,-3.524491787E-1,-5.174913406E-1
2.903207542E1,-3.235386908E-1,-4.408156872E-1,-7.323617935E-1
2.904874135E1,-4.014306664E-1,-6.008571386E-1,-3.259458542E-1
2.906540729E1,-6.768462062E-1,-7.137122154E-1,-1.215953827E-1
2.908207323E1,-5.632869005E-1,-8.059004545E-1,-1.449489594E-1
2.909873917E1,-1.820759922E-1,-8.777900934E-1,1.040554047E-1
2.911540510E1,4.540823400E-2,-8.355081081E-1,1.050157547E-1
2.913207104E1,-1.726555079E-1,-6.610977650E-1,-6.868486404E-1
2.914873698E1,-5.084143877E-1,-4.431391954E-1,-1.521892548E0
2.916540292E1,-4.815775156E-1,-1.746385098E-1,-1.703938484E0
2.918206885E1,-2.741917670E-1,1.910506487E-1,-1.308858871E0
2.919873479E1,-5.964597687E-2,1.546778679E-1,-8.573083878E-1
2.921540073E1,-3.748961389E-1,2.750730515E-2,-8.740596771E-1
2.923206667E1,-4.815680385E-1,-8.797049522E-2,-1.111422539E0
2.924873260E1,-2.850260437E-1,3.305256367E-2,-9.759826660E-1
2.926539854E1,-2.985762358E-1,1.350463629E-1,-6.192636490E-1
2.928206448E1,-2.887222767E-1,1.201735735E-1,-2.822589874E-1
2.929873042E1,-2.814779282E-1,3.666796684E-1,2.169380188E-1
2.931539635E1,-2.489497960E-1,4.781910181E-1,6.677951813E-1
2.933206229E1,-4.530743957E-1,4.993147850E-1,3.156433105E-1
2.934872823E1,-5.301435590E-1,4.946753979E-1,-5.880556107E-1
2.936539417E1,-1.929690391E-1,7.201460600E-1,-9.707269669E-1
2.938206010E1,-9.295091033E-2,9.680309296E-1,-9.329795837E-1
2.939872604E1,-3.468668163E-1,1.196296453E0,-6.867656708E-1
2.941539198E1,-3.400229216E-1,9.959923029E-1,-2.397232056E-1
2.943205792E1,-2.674105763E-1,4.761281013E-1,3.105812073E-1
2.944872385E1,-3.552908003E-1,1.316962242E-1,7.094707489E-1
2.946538979E1,-2.045079470E-1,1.042168140E-1,7.363519669E-1
2.948205573E1,1.667850614E-1,1.779075861E-1,7.043914795E-1
2.949872167E1,7.714486122E-2,4.961200953E-1,4.941549301E-1
2.951538760E1,9.100389481E-2,3.213613033E-1,2.029466629E-1
2.953205354E1,1.241478920E-1,1.525466442E-1,1.570367813E-1
2.954871948E1,2.727484703E-1,9.923648834E-2,6.155920029E-1
2.956538542E1,6.679533720E-1,-2.193249464E-1,1.303172112E0
2.958205135E1,6.957432032E-1,-6.631222963E-1,2.102547646E0
2.959871729E1,2.058801651E-1,-9.658602476E-1,3.288212776E0
2.961538323E1,-3.343492746E-1,-1.181173325E0,3.505544662E0
2.963204917E1,-7.335966229E-1,-1.145039201E0,1.702839851E0
2.964871510E1,-4.581347108E-1,-6.803938150E-1,-2.099161148E-1
2.966538104E1,2.074791193E-1,-1.841105223E-1,-5.836305618E-1
2.968204698E1,3.638733625E-1,-2.793694735E-1,-2.635231018E-1
2.969871292E1,7.282793522E-2,-6.526226997E-1,6.903457642E-2
2.971537885E1,-3.729016781E-1,-9.852138758E-1,3.713912964E-1
2.973204479E1,-1.022495031E0,-1.194969296E0,1.420555115E-1
2.974871073E1,-1.119537592E0,-1.138624072E0,9.616756439E-2
2.976537667E1,-9.871780872E-1,-1.071670651E0,-3.352670670E-1
2.978204260E1,-8.533835411E-1,-5.047940016E-1,-3.348064423E0
2.979870854E1,-8.953881264E-2,-2.343583107E-1,4.496459961E-1
2.981537448E1,3.154251575E-1,-8.538603783E-1,1.744593620E0
2.983204042E1,-4.866749048E-2,-8.158122301E-1,1.234979630E0
