"Time (s)","Acceleration x (m/s^2)","Acceleration y (m/s^2)","Acceleration z (m/s^2)"
1.212085100E-2,-3.745365620E0,3.431905985E0,3.879064560E0
2.878678900E-2,-3.759722471E0,4.654638290E0,7.427321434E0
4.545272600E-2,-6.255137444E0,6.475875378E0,1.095344448E1
6.211866400E-2,-5.385047436E0,4.026821613E0,9.858428955E0
7.878460100E-2,-5.525625706E0,3.661616802E0,8.190332413E0
9.545053900E-2,-6.104090691E0,4.683053017E0,6.372684956E0
1.121164760E-1,-5.587839127E0,4.870590687E0,5.869594097E0
1.287824140E-1,-5.018646240E0,4.637290478E0,6.160920143E0
1.454483510E-1,-4.861019135E0,4.410271168E0,6.852745056E0
1.621142890E-1,-5.112564564E0,4.070789337E0,8.244171143E0
1.787802260E-1,-5.442175865E0,3.821636915E0,8.937491417E0
1.954461640E-1,-5.733502388E0,3.792025566E0,8.514560699E0
2.121121010E-1,-5.514259815E0,3.768994808E0,7.757531166E0
2.287780390E-1,-5.291129112E0,4.093222141E0,7.199106216E0
2.454439760E-1,-5.302196026E0,4.114159584E0,7.123134136E0
2.621099140E-1,-5.593821049E0,3.838087559E0,7.432106972E0
2.787758510E-1,-5.880959988E0,3.684647799E0,7.749155998E0
2.954417890E-1,-5.583950520E0,3.557229996E0,7.689634800E0
3.121077260E-1,-5.326722145E0,3.547658682E0,7.477869987E0
3.287736640E-1,-5.362016678E0,3.669393539E0,7.151249409E0
3.454396010E-1,-5.295316696E0,3.710071564E0,6.949355125E0
3.621055390E-1,-5.170291424E0,3.724727631E0,7.063014030E0
3.787714760E-1,-5.096413136E0,3.601497173E0,7.193123817E0
3.954374140E-1,-5.213960648E0,3.597908020E0,7.287939548E0
4.121033510E-1,-5.246562958E0,3.678964853E0,7.342974663E0
4.287692890E-1,-5.135296345E0,3.624528170E0,7.105785847E0
4.454352260E-1,-5.015356064E0,3.703790426E0,7.081558704E0
4.621011640E-1,-4.872385025E0,3.470490217E0,7.138687134E0
4.787671010E-1,-4.883451939E0,3.339184046E0,8.194519997E0
4.954330390E-1,-4.662116051E0,2.934797049E0,8.015656471E0
5.120989760E-1,-4.631607533E0,2.738884687E0,8.283054352E0
5.287649140E-1,-4.625625134E0,2.627917528E0,8.132307053E0
5.454308510E-1,-4.633401871E0,2.643470764E0,7.927122116E0
5.620967890E-1,-4.629812717E0,2.689532757E0,8.031209946E0
5.787627260E-1,-4.515854359E0,2.524727106E0,8.635697365E0
5.954286640E-1,-4.336691856E0,1.898106575E0,9.476774216E0
6.120946010E-1,-3.976273060E0,1.105184913E0,8.889336586E0
6.287605390E-1,-4.124628067E0,1.056431174E0,9.159725189E0
6.454264760E-1,-4.149453640E0,1.324128270E0,9.377771378E0
6.620924140E-1,-3.697210073E0,1.325922847E0,9.392725945E0
6.787583510E-1,-3.192324400E0,1.086939692E0,9.590433121E0
6.954242890E-1,-2.927618504E0,6.909275651E-1,9.942477226E0
7.120902260E-1,-2.675175667E0,2.108674943E-1,1.003519917E1
7.287561640E-1,-2.651546478E0,2.482553571E-2,1.004596710E1
7.454221010E-1,-2.680858612E0,1.498505175E-1,9.946664810E0
7.620880390E-1,-2.670090914E0,2.087737769E-1,9.879067421E0
7.787539760E-1,-2.653341293E0,2.189432681E-1,9.882955551E0
7.954199140E-1,-2.421536446E0,2.685943544E-1,9.795618057E0
8.120858510E-1,-1.915155411E0,-1.426720470E-1,9.329017639E0
8.287517890E-1,-1.618744493E0,-8.569296002E-1,9.025427818E0
8.454177260E-1,-1.653739572E0,-1.305882931E0,9.559925079E0
8.620836640E-1,-1.767996788E0,-1.342672586E0,1.002532864E1
8.787496010E-1,-1.267597795E0,-1.115952611E0,9.863813400E0
8.954155390E-1,-7.178468108E-1,-1.424028635E0,1.004506969E1
9.120814760E-1,-6.167500615E-1,-2.044068813E0,1.001964569E1
9.287474140E-1,-8.997012973E-1,-2.182553291E0,9.911669731E0
9.454133510E-1,-1.322931767E0,-2.218744755E0,1.017428207E1
9.620792890E-1,-1.802094579E0,-2.020140409E0,1.086072254E1
9.787452260E-1,-1.723131418E0,-2.091626167E0,1.191087246E1
9.954111640E-1,-1.219143152E0,-2.365005970E0,1.126451206E1
1.012077101E0,-2.608176768E-1,-2.648555517E0,1.053948689E1
1.028743039E0,4.447658956E-1,-2.358724833E0,1.004267693E1
1.045408976E0,5.138586760E-1,-2.004587173E0,9.985847473E0
1.062074914E0,1.333998591E-1,-1.983051777E0,9.171988487E0
1.078740851E0,-3.308077157E-1,-2.004886389E0,8.583951950E0
1.095406789E0,-7.761718631E-1,-2.240280151E0,8.916853905E0
1.112072726E0,-1.398903966E0,-2.136491537E0,9.774680138E0
1.128738664E0,-2.815753937E0,-5.374878049E-1,9.557532310E0
1.145404601E0,-3.574278831E0,2.653042078E-1,8.570791245E0
1.162070539E0,-2.565404892E0,1.025922745E-1,7.970791340E0
1.178736476E0,-6.592226624E-1,-5.712864175E-2,8.527720451E0
1.195402414E0,-5.772684515E-2,5.048855543E-1,8.758029938E0
1.212068351E0,3.257229924E-1,-6.759724021E-1,9.274580956E0
1.228734289E0,-1.307079345E-1,-8.536394835E-1,1.021406269E1
1.245400226E0,-8.775677085E-1,-6.281159520E-1,1.085832977E1
1.262066164E0,-1.561615825E0,-1.307079345E-1,1.077607632E1
1.278732101E0,-1.564906001E0,-3.798605874E-2,1.064895821E1
1.295398039E0,-1.324128270E0,-1.704886183E-2,1.029392338E1
1.312063976E0,-9.005986452E-1,8.584251255E-2,1.067767239E1
1.328729914E0,-7.342974544E-1,2.042872310E-1,1.033011436E1
1.345395851E0,-6.861419082E-1,2.688934505E-1,1.030229759E1
1.362061789E0,-5.688936114E-1,1.459621787E-1,1.088674450E1
1.378727726E0,-8.440681696E-1,6.023930907E-1,1.054098225E1
1.395393664E0,-1.132702470E0,4.761717021E-1,9.686744690E0
1.412059601E0,-1.084247708E0,3.230310678E-1,9.802796364E0
1.428725539E0,-1.304088354E0,6.056832075E-1,1.035583687E1
1.445391476E0,-1.246062398E0,6.056832075E-1,1.012792110E1
1.462057414E0,-9.005986452E-1,6.933203340E-1,9.574879646E0
1.478723351E0,-5.398806334E-1,6.457630396E-1,9.374181747E0
1.495389289E0,-4.268197417E-1,9.041878581E-1,9.990333557E0
1.512055226E0,-5.114658475E-1,9.448658228E-1,1.039920712E1
1.528721164E0,-7.166503668E-1,8.219345808E-1,1.014975548E1
1.545387101E0,-9.870393276E-1,9.385846853E-1,9.853045464E0
1.562053039E0,-1.137188911E0,9.640084505E-1,9.924830437E0
1.578718976E0,-1.095613718E0,1.186241865E0,9.740582466E0
1.595384914E0,-7.492526174E-1,1.259821177E0,9.471689224E0
1.612050851E0,-5.464608669E-1,1.360917926E0,9.246764183E0
1.628716789E0,-4.657031000E-1,1.251745343E0,9.641879082E0
1.645382726E0,-5.309075117E-1,1.108475089E0,1.018325520E1
1.662048664E0,-7.546364665E-1,1.164407372E0,1.023141098E1
1.678714601E0,-9.565308690E-1,1.352842093E0,1.062114143E1
1.695380539E0,-9.948160052E-1,1.482951880E0,1.020299530E1
1.712046476E0,-1.030409217E0,1.866999865E0,9.844072342E0
1.728712414E0,-7.417750359E-1,1.503889084E0,9.265607834E0
1.745378351E0,-4.552344978E-1,1.691127419E0,9.127422333E0
1.762044289E0,-3.574278951E-1,1.872383714E0,9.210572243E0
1.778710226E0,-3.529413342E-1,1.865205288E0,9.248857498E0
1.795376164E0,-4.654040039E-1,1.979761600E0,9.459127426E0
1.812042101E0,-6.505486369E-1,1.905285001E0,1.010339451E1
1.828708039E0,-8.039883971E-1,1.820339799E0,1.052363396E1
1.845373976E0,-9.622138143E-1,2.042274237E0,1.014018440E1
1.862039914E0,-1.030110121E0,2.132004976E0,9.969695091E0
1.878705851E0,-9.747761488E-1,2.408375978E0,1.013928699E1
1.895371789E0,-8.066803217E-1,2.385943174E0,1.029541874E1
1.912037726E0,-4.818546474E-1,1.957328916E0,9.498908043E0
1.928703664E0,-2.599203587E-1,2.536691189E0,8.728119850E0
1.945369601E0,-4.402793646E-1,2.869891644E0,9.186046600E0
1.962035539E0,-8.925228715E-1,2.948555708E0,1.000199890E1
1.978701476E0,-1.013659477E0,2.818745136E0,9.486644745E0
1.995367414E0,-7.884350419E-1,3.214159012E0,8.470890999E0
2.012033351E0,-5.662016869E-1,3.509672642E0,8.138288498E0
2.028699289E0,-3.170489967E-1,3.420539856E0,8.566305161E0
2.045365226E0,-2.392822653E-1,3.447758436E0,9.021240234E0
2.062031164E0,8.464609832E-2,3.052344322E0,9.010472298E0
2.078697101E0,1.486541033E-1,3.146561861E0,8.907281876E0
2.095363039E0,2.153540403E-2,3.121138096E0,9.437292099E0
2.112028976E0,-1.244267747E-1,3.184248686E0,9.725028992E0
2.128694914E0,-4.049852192E-1,2.976671457E0,9.649057388E0
2.145360851E0,-7.677969933E-1,3.103790045E0,9.630213737E0
2.162026789E0,-9.514461160E-1,3.036192894E0,1.003519917E1
2.178692726E0,-8.865407705E-1,3.297010422E0,9.191729546E0
2.195358664E0,-4.205385745E-1,3.249752283E0,8.847461700E0
2.212024601E0,-1.199402362E-1,3.217748165E0,9.279366493E0
2.228690539E0,-3.379862010E-1,3.201895714E0,9.885348320E0
2.245356476E0,-9.038887620E-1,3.105883837E0,1.021346474E1
2.262022414E0,-9.726824164E-1,3.202194929E0,1.012762165E1
2.278688351E0,-7.549355626E-1,3.011666298E0,9.536893845E0
2.295354289E0,-1.127617657E-1,2.733799934E0,9.157930374E0
2.312020226E0,4.522434771E-1,3.093919754E0,9.362217903E0
2.328686164E0,4.821537733E-1,4.306781769E0,8.886942863E0
2.345352101E0,4.695914388E-1,4.148855209E0,8.770592690E0
2.362018039E0,6.191428751E-2,4.071387768E0,9.050552368E0
2.378683976E0,6.490531564E-2,4.191029072E0,9.236295700E0
2.395349914E0,6.131608039E-2,3.823431492E0,9.510572433E0
2.412015851E0,5.060819983E-1,3.743571043E0,9.094520569E0
2.428681789E0,1.780559182E0,3.089133978E0,9.539586067E0
2.445347726E0,1.402792215E0,2.822334290E0,8.294121742E0
2.462013664E0,6.400800496E-2,3.879662752E0,7.928318501E0
2.478679601E0,-8.569296002E-1,4.486841679E0,8.232506752E0
2.495345539E0,-9.867402315E-1,4.712365150E0,8.619246483E0
2.512011476E0,-5.279164910E-1,4.766203403E0,8.828618050E0
2.528677414E0,6.469594240E-1,5.401497841E0,7.266105175E0
2.545343351E0,1.126122117E0,6.180361748E0,6.219544411E0
2.562009289E0,1.287338614E0,6.026323795E0,5.248955727E0
2.578675226E0,1.364507079E0,6.001498222E0,6.183352947E0
2.595341164E0,2.000399828E0,5.918347836E0,6.335895061E0
2.612007101E0,2.728715181E0,5.958726406E0,9.465108871E0
2.628673039E0,2.109572172E0,4.523332119E0,9.965806961E0
2.645338976E0,1.283151150E0,5.909075737E0,9.870393753E0
2.662004914E0,-5.805585980E-1,3.998107433E0,1.037677479E1
2.678670851E0,1.331007630E-1,4.799404144E0,1.058973598E1
2.695336789E0,1.071685433E0,4.130908966E0,9.504590988E0
2.712002726E0,5.784648657E-1,5.062016487E0,7.481160164E0
2.728668664E0,1.028016448E0,4.848755836E0,8.652746201E0
2.745334601E0,4.860421121E-1,4.650450706E0,9.427422523E0
2.762000539E0,7.178468257E-2,4.508377075E0,1.035882854E1
2.778666476E0,3.314059377E-1,4.698905468E0,9.990931511E0
2.795332414E0,9.445667267E-1,4.794319153E0,9.263513565E0
2.811998351E0,1.081854939E0,4.939683437E0,8.788538933E0
2.828664289E0,9.852447510E-1,5.081458092E0,8.432605743E0
2.845330226E0,9.433703423E-1,5.205286503E0,8.010272980E0
2.861996164E0,7.579265833E-1,5.423033237E0,8.195417404E0
2.878662101E0,5.949155092E-1,5.648257732E0,8.690134048E0
2.895328039E0,1.088136077E0,4.929812908E0,8.536095619E0
2.911993976E0,1.329512119E0,4.472185612E0,8.326724052E0
2.928659914E0,9.397810698E-1,4.711168766E0,7.945367813E0
2.945325851E0,5.291129351E-1,5.270191669E0,7.893323898E0
2.961991789E0,5.754738450E-1,5.230411053E0,7.693223953E0
2.978657726E0,1.503889084E0,5.152644634E0,8.027321815E0
2.995323664E0,1.794616938E0,5.175076962E0,7.899305820E0
3.011989601E0,1.645065546E0,5.129613400E0,8.252845764E0
3.028655539E0,1.370190024E0,5.033003330E0,8.476275444E0
3.045321476E0,1.199701428E0,5.038387299E0,8.385348320E0
3.061987414E0,1.314556956E0,5.122734070E0,8.128717422E0
3.078653351E0,1.515554070E0,5.256433010E0,8.044071198E0
3.095319289E0,1.650449395E0,4.896313190E0,8.089236259E0
3.111985226E0,1.934597135E0,4.170390606E0,8.655437469E0
3.128651164E0,1.766501307E0,4.453940392E0,9.195916176E0
3.145317101E0,1.555035591E0,4.730909348E0,8.769096375E0
3.161983039E0,1.400399446E0,4.998307228E0,8.497511864E0
3.178648976E0,1.772483349E0,4.936991215E0,8.453244209E0
3.195314914E0,2.298904419E0,4.946263313E0,8.485248566E0
3.211980851E0,2.138286114E0,4.815555573E0,8.519644737E0
3.228646789E0,2.030309916E0,4.622634411E0,8.821439743E0
3.245312726E0,1.858624935E0,4.668396950E0,8.983852386E0
3.261978664E0,1.848156333E0,4.718048096E0,8.707182884E0
3.278644601E0,1.457528114E0,4.813760757E0,8.599804878E0
3.295310539E0,1.663909078E0,4.619942188E0,8.587840080E0
3.311976476E0,1.557428479E0,4.638785839E0,8.561818123E0
3.328642414E0,1.390529037E0,4.493122578E0,8.579764366E0
3.345308351E0,1.452144265E0,4.140480518E0,8.659325600E0
3.361974289E0,1.565205097E0,4.242773533E0,8.725427628E0
3.378640226E0,1.606481314E0,4.390829563E0,8.659027100E0
3.395306164E0,1.792523265E0,4.419543266E0,8.540582657E0
3.411972101E0,1.935494423E0,4.505086899E0,8.417949677E0
3.428638039E0,1.945364833E0,4.419244289E0,8.627322197E0
3.445303976E0,1.771586061E0,4.341178417E0,8.872586250E0
3.461969914E0,1.671984792E0,4.255335808E0,9.226723671E0
3.478635851E0,1.687239051E0,4.240979195E0,9.287142754E0
3.495301789E0,1.778465390E0,4.308277130E0,8.957232475E0
3.511967726E0,1.835594058E0,4.255635262E0,8.752646446E0
3.528633664E0,1.828714728E0,4.325624943E0,8.666803360E0
3.545299601E0,1.931306958E0,4.270291328E0,8.609076500E0
3.561965539E0,2.016252279E0,4.258327007E0,8.585148811E0
3.578631476E0,1.882852316E0,4.255635262E0,8.533702850E0
3.595297414E0,2.480160713E0,3.355634689E0,8.553742409E0
3.611963351E0,1.172183990E0,4.797908306E0,9.090332985E0
3.628629289E0,1.603191137E0,4.117748737E0,9.098408699E0
3.645295226E0,2.064706802E0,4.017549038E0,9.039485931E0
3.661961164E0,2.223231316E0,4.467998028E0,8.260024071E0
3.678627101E0,2.706581593E0,4.433900356E0,8.717052460E0
3.695293039E0,2.534597397E0,4.523332119E0,8.555836678E0
3.711958976E0,2.209771633E0,4.559822559E0,8.938090324E0
3.728624914E0,2.576172590E0,4.389633179E0,8.895915985E0
3.745290851E0,2.111665964E0,4.595116615E0,8.826823235E0
3.761956789E0,1.738086581E0,4.940580368E0,8.772386551E0
3.778622726E0,1.943869352E0,4.715655327E0,8.916853905E0
3.795288664E0,2.245963097E0,4.667200565E0,8.798707962E0
3.811954601E0,2.240280151E0,4.732405186E0,8.728418350E0
3.828620539E0,2.254936218E0,4.783252239E0,8.548956871E0
3.845286476E0,2.435594320E0,4.731806755E0,8.076972961E0
3.861952414E0,2.540579557E0,4.750051975E0,8.042277336E0
3.878618351E0,2.435893536E0,4.823033333E0,7.991130352E0
3.895284289E0,2.456830740E0,4.872086048E0,7.807182312E0
3.911950226E0,2.617448807E0,4.821238518E0,8.080861092E0
3.928616164E0,2.630011082E0,4.703093052E0,8.200202942E0
3.945282101E0,2.551048040E0,4.670490742E0,8.170292854E0
3.961948039E0,2.474776745E0,4.707579613E0,8.174779892E0
3.978613976E0,2.744866610E0,4.698606491E0,8.067102432E0
3.995279914E0,2.884547710E0,4.724927425E0,7.989036560E0
4.011945851E0,2.586043119E0,4.783850670E0,7.915457249E0
4.028611789E0,2.245364904E0,4.766801834E0,8.030611992E0
4.045277726E0,2.208575249E0,4.713561535E0,8.297411919E0
4.061943664E0,2.303989172E0,4.635794640E0,8.516654015E0
4.078609601E0,2.265105724E0,4.621737003E0,8.475676537E0
4.095275539E0,2.217249393E0,4.657031059E0,8.254639626E0
4.111941476E0,2.235195398E0,4.732704163E0,8.069794655E0
4.128607414E0,2.276471615E0,4.740480900E0,7.965108395E0
4.145273351E0,2.263610125E0,4.815256596E0,7.886743546E0
4.161939289E0,2.449951172E0,4.916353226E0,7.995018482E0
4.178605226E0,2.488535643E0,4.906183720E0,8.029714584E0
4.195271164E0,2.387737989E0,4.854738235E0,8.183154106E0
4.211937101E0,2.518445730E0,4.786542416E0,8.320143700E0
4.228603039E0,2.726920605E0,4.763511658E0,8.598309517E0
4.245268976E0,2.866003275E0,4.773382187E0,8.719744682E0
4.261934914E0,2.854039192E0,4.791627407E0,8.634799957E0
4.278600851E0,2.934497833E0,4.817350388E0,8.538787842E0
4.295266789E0,3.105883837E0,4.785047054E0,8.578568459E0
4.311932726E0,3.213261604E0,4.702195644E0,8.769096375E0
4.328598664E0,3.185146093E0,4.686044216E0,8.870791435E0
4.345264601E0,3.174677372E0,4.620540619E0,8.831609726E0
4.361930539E0,3.288635731E0,4.576273441E0,8.654241562E0
4.378596476E0,3.456432343E0,4.546961308E0,8.540283203E0
4.395262414E0,3.342175007E0,4.554139614E0,8.374280930E0
4.411928351E0,3.168396235E0,4.537090778E0,8.278268814E0
4.428594289E0,3.133401155E0,4.503591537E0,8.275278091E0
4.445260226E0,3.254238844E0,4.469493389E0,8.296813011E0
4.461926164E0,3.244667530E0,4.478466511E0,8.290831566E0
4.478592101E0,3.048156977E0,4.508676052E0,8.242675781E0
4.495258039E0,2.996412039E0,4.590630054E0,8.142775536E0
4.511923976E0,3.089732170E0,4.677071095E0,8.115856171E0
4.528589914E0,3.291925669E0,4.712066174E0,8.177172661E0
4.545255851E0,3.358326674E0,4.748556614E0,8.138887405E0
4.561921789E0,3.308974504E0,4.740480900E0,8.236992836E0
4.578587726E0,3.179163933E0,4.716253281E0,8.366205215E0
4.595253664E0,3.073281527E0,4.724328995E0,8.368000031E0
4.611919601E0,3.049353361E0,4.757828712E0,8.261817932E0
4.628585539E0,3.096312523E0,4.778766155E0,8.096714020E0
4.645251476E0,3.001197815E0,4.864010334E0,7.919345856E0
4.661917414E0,2.817548752E0,4.962115765E0,7.837391376E0
4.678583351E0,2.662613392E0,4.974678040E0,7.878667831E0
4.695249289E0,2.555534601E0,4.931308270E0,7.997411251E0
4.711915226E0,2.641975403E0,4.851148605E0,8.098507881E0
4.728581164E0,2.756232500E0,4.886443138E0,8.039883614E0
4.745247101E0,3.238984585E0,4.855635166E0,7.981259823E0
4.761913039E0,2.673381090E0,4.907978535E0,7.611867905E0
4.778578976E0,2.571087837E0,5.307579517E0,7.550551891E0
4.795244914E0,2.649153709E0,4.983053207E0,7.766803265E0
4.811910851E0,2.795714140E0,5.059623718E0,7.677670479E0
4.828576789E0,3.009871721E0,5.085645199E0,7.677969456E0
4.845242726E0,3.149552822E0,5.020142078E0,7.809575081E0
4.861908664E0,3.018844843E0,4.934299469E0,7.916952610E0
4.878574601E0,2.930011272E0,4.837988377E0,7.997112274E0
4.895240539E0,2.926422119E0,4.879563808E0,7.995317936E0
4.911906476E0,2.980858803E0,4.950450897E0,7.902894974E0
4.928572414E0,3.084946632E0,4.944169998E0,7.841877937E0
4.945238351E0,3.156432152E0,4.939383984E0,7.741080284E0
4.961904289E0,3.295515060E0,4.905884743E0,7.901698589E0
4.978570226E0,3.295215845E0,4.790730000E0,8.001599312E0
4.995236164E0,3.317349434E0,4.729115009E0,7.954639912E0
5.011902101E0,3.505186081E0,4.703989983E0,7.896314621E0
5.028568039E0,3.584448338E0,4.700700283E0,7.828418255E0
5.045233976E0,3.611367464E0,4.700999260E0,7.832605839E0
5.061899914E0,3.641277790E0,4.678267479E0,8.042575836E0
5.078565851E0,3.568894863E0,4.687240601E0,8.197212219E0
5.095231789E0,3.496811152E0,4.683651447E0,8.190931320E0
5.111897726E0,3.489034414E0,4.740779877E0,8.128418922E0
5.128563664E0,3.838386536E0,4.778466702E0,8.292326927E0
5.145229601E0,4.145565033E0,4.866104126E0,8.665905952E0
5.161895539E0,4.071387768E0,4.794319153E0,8.907880783E0
5.178561476E0,3.919742584E0,4.800301552E0,8.859127045E0
5.195227414E0,3.756731510E0,4.854438782E0,8.644669533E0
5.211893351E0,3.619742393E0,4.716253281E0,8.349156380E0
5.228559289E0,3.349951744E0,4.655535698E0,7.958827019E0
5.245225226E0,3.109472990E0,4.586741924E0,7.588837147E0
5.261891164E0,3.131905794E0,4.533202648E0,7.337291718E0
5.278557101E0,3.088236809E0,4.517948151E0,7.159923553E0
5.295223039E0,2.945863724E0,4.434199333E0,7.086045265E0
5.311888976E0,2.797209740E0,4.322334766E0,7.204789162E0
5.328554914E0,2.883949518E0,4.233800411E0,7.349853992E0
5.345220851E0,3.138186932E0,4.226622105E0,7.438687325E0
5.361886789E0,3.253640652E0,4.196712017E0,7.749455452E0
5.378552726E0,3.265903711E0,4.131806374E0,8.183453560E0
5.395218664E0,3.118745327E0,4.103391647E0,8.335995674E0
5.411884601E0,2.965604544E0,4.121936321E0,8.192127228E0
5.428550539E0,3.043072224E0,4.139882088E0,8.213064194E0
5.445216476E0,3.323032379E0,4.089034557E0,8.329714775E0
5.461882414E0,3.423231840E0,4.093820572E0,8.444570541E0
5.478548351E0,3.241377354E0,4.066602230E0,8.558527946E0
5.495214289E0,3.052045345E0,4.117449760E0,8.651848793E0
5.511880226E0,2.921935558E0,4.132404804E0,8.596514702E0
5.528546164E0,2.868994236E0,4.170989037E0,8.341978073E0
5.545212101E0,2.952444077E0,4.241876125E0,8.151150703E0
5.561878039E0,2.968595505E0,4.292723656E0,8.165207863E0
5.578543976E0,2.894119024E0,4.293322086E0,8.212765694E0
5.595209914E0,2.800798893E0,4.293322086E0,8.357232094E0
5.611875851E0,2.845365286E0,4.325924397E0,8.586943626E0
5.628541789E0,2.956631422E0,4.396213531E0,8.828020096E0
5.645207726E0,3.071486950E0,4.416552544E0,9.137591362E0
5.661873664E0,3.188735247E0,4.345664978E0,9.419047356E0
5.678539601E0,3.354737282E0,4.235595226E0,9.574281693E0
5.695205539E0,3.512962818E0,4.090231419E0,9.510871887E0
5.711871476E0,3.515953779E0,4.025625229E0,9.230612755E0
5.728537414E0,3.311367512E0,3.916452408E0,8.953044891E0
5.745203351E0,3.141177893E0,3.760919094E0,8.805886269E0
5.761869289E0,3.097808123E0,3.547060490E0,8.614759445E0
5.778535226E0,3.125923634E0,3.240779161E0,8.161020279E0
5.795201164E0,3.029313564E0,2.892025232E0,7.589734554E0
5.811867101E0,2.896511793E0,2.437688112E0,6.984350204E0
5.828533039E0,2.970390320E0,1.817049742E0,6.347560406E0
5.845198976E0,3.432204962E0,1.073480010E0,5.482853889E0
5.861864914E0,3.882055521E0,6.580262184E-1,4.051048756E0
5.878530851E0,4.399802685E0,4.441677034E-1,2.319542408E0
5.895196789E0,5.060221672E0,-2.129612118E-1,1.529910922E0
5.911862726E0,5.563910961E0,-1.303490162E0,2.164009094E0
5.928528664E0,6.297909260E0,-2.478964329E0,3.287439108E0
5.945194601E0,7.067500591E0,-3.397509098E0,3.904488325E0
5.961860539E0,7.385447025E0,-3.778865099E0,4.312165737E0
5.978526476E0,7.096513748E0,-3.368795156E0,4.615156651E0
5.995192414E0,7.793423176E0,-3.279064417E0,3.804588079E0
6.011858351E0,1.034776115E1,-3.306880951E0,4.130311012E0
6.028524289E0,1.321795273E1,-3.534797192E0,5.308177948E0
6.045190226E0,1.526441383E1,-3.935894251E0,7.479664326E0
6.061856164E0,1.594726562E1,-3.646362543E0,9.490532875E0
6.078522101E0,1.534906006E1,-2.530410051E0,1.070638561E1
6.095188039E0,1.474696636E1,-1.558923960E0,1.067438221E1
6.111853976E0,1.505235004E1,-9.625129104E-1,1.029242706E1
6.128519914E0,1.550459385E1,-3.762713671E-1,1.037707329E1
6.145185851E0,1.534038639E1,3.308077157E-1,1.103061295E1
6.161851789E0,1.483520126E1,1.009172916E0,1.206012535E1
6.178517726E0,1.367587852E1,1.700399637E0,1.294397449E1
6.195183664E0,1.213280678E1,2.767897606E0,1.276361465E1
6.211849601E0,1.132164001E1,3.992723703E0,1.121336555E1
6.228515539E0,1.124267673E1,4.680061817E0,1.074197865E1
6.245181476E0,1.043091202E1,5.059025288E0,1.108564854E1
6.261847414E0,8.852546692E0,5.300102234E0,1.139551830E1
6.278513351E0,7.430611610E0,5.509174824E0,1.123490047E1
6.295179289E0,6.561717987E0,5.897111416E0,1.066630650E1
6.311845226E0,5.794818401E0,6.455835342E0,9.774680138E0
6.328511164E0,5.140082359E0,6.968198776E0,8.620143890E0
6.345177101E0,4.596313000E0,7.352844715E0,7.464410305E0
6.361843039E0,3.928715706E0,7.529315472E0,6.971488953E0
6.378508976E0,3.289832115E0,7.509574890E0,6.817451000E0
6.395174914E0,2.845963478E0,7.344769001E0,6.639783859E0
6.411840851E0,2.510968208E0,6.997510910E0,6.833901405E0
6.428506789E0,2.475674152E0,6.802794933E0,8.852247238E0
6.445172726E0,3.166900873E0,6.145067692E0,1.128814125E1
6.461838664E0,4.551447868E0,5.489733219E0,1.325534058E1
6.478504601E0,6.663712025E0,5.049454212E0,1.459831142E1
6.495170539E0,9.581459999E0,4.740779877E0,1.593649769E1
6.511836476E0,1.272383404E1,4.826024055E0,1.760878181E1
6.528502414E0,1.561645794E1,4.840381145E0,1.897867203E1
6.545168351E0,1.819322968E1,4.217947960E0,1.994477463E1
6.561834289E0,2.034706879E1,2.953341246E0,2.052712822E1
6.578500226E0,2.127847481E1,1.680359721E0,1.969233131E1
6.595166164E0,2.077867317E1,3.672982752E-1,1.800629044E1
6.611832101E0,1.917009926E1,-1.494317770E0,1.611087418E1
6.628498039E0,1.675723648E1,-3.287439108E0,1.433689594E1
6.645163976E0,1.454118347E1,-5.007280350E0,1.232243824E1
6.661829914E0,1.253898907E1,-6.332605362E0,9.407083511E0
6.678495851E0,1.029781151E1,-7.277770042E0,6.217450619E0
6.695161789E0,8.213363647E0,-8.102994919E0,3.891926050E0
6.711827726E0,6.638288021E0,-8.943773270E0,1.899003863E0
6.728493664E0,4.769493580E0,-9.613762856E0,3.948157430E-1
6.745159601E0,2.425724030E0,-9.590133667E0,-8.563314080E-1
6.761825539E0,1.284347534E0,-9.372985840E0,-2.167000055E0
6.778491476E0,1.107278705E0,-9.292527199E0,-2.804388046E0
6.795157414E0,1.310070395E0,-9.063413620E0,-3.331407309E0
6.811823351E0,1.762014747E0,-8.533702850E0,-4.232006073E0
6.828489289E0,2.265703917E0,-7.638787270E0,-5.169394016E0
6.845155226E0,2.688037157E0,-6.777071953E0,-6.088238239E0
6.861821164E0,3.194418192E0,-6.011966705E0,-6.578168392E0
6.878487101E0,4.801497936E0,-5.592624664E0,-6.299105644E0
6.895153039E0,7.896314621E0,-4.722833633E0,-5.358427048E0
6.911818976E0,1.346770287E1,-2.118545294E0,-2.443969250E0
6.928484914E0,2.035484505E1,2.523829699E0,1.380060434E0
6.945150851E0,2.893819809E1,6.496513367E0,6.947261333E0
6.961816789E0,3.356292725E1,8.470592499E0,1.546570969E1
6.978482726E0,3.048216820E1,7.770990849E0,2.268934250E1
6.995148664E0,2.244676971E1,9.747462273E0,2.249133682E1
7.011814601E0,1.623470306E1,1.138923740E1,1.613988876E1
7.028480539E0,1.319342613E1,1.164855957E1,9.641280174E0
7.045146476E0,9.931111336E0,1.274566936E1,4.491028786E0
7.061812414E0,6.977769852E0,1.314347553E1,2.193919182E0
7.078478351E0,4.330410957E0,1.374287796E1,1.369591832E0
7.095144289E0,3.034996510E0,1.342104340E1,2.240878344E0
7.111810226E0,1.602293849E0,1.345813179E1,2.686242580E0
7.128476164E0,1.989033818E-1,1.355324650E1,2.210369825E0
7.145142101E0,-4.307080805E-2,1.368993664E1,1.273280740E0
7.161808039E0,3.490529954E-1,1.327508068E1,1.025922656E0
7.178473976E0,2.620140910E-1,1.230389404E1,1.749153376E0
7.195139914E0,1.468594968E-1,1.116939735E1,2.848954439E0
7.211805851E0,7.585247755E-1,1.033430195E1,4.363910198E0
7.228471789E0,2.020140409E0,1.020179939E1,6.583253384E0
7.245137726E0,4.905286312E0,1.116580772E1,8.924032211E0
7.261803664E0,9.885647774E0,1.315244865E1,1.228864002E1
7.278469601E0,1.713590050E1,1.343450260E1,1.661217117E1
7.295135539E0,2.393660164E1,1.355952740E1,2.078315926E1
7.311801476E0,2.786023140E1,1.212682533E1,2.135773659E1
7.328467414E0,2.821167755E1,9.725926399E0,1.951556206E1
7.345133351E0,2.861307335E1,5.885745525E0,1.740718651E1
7.361799289E0,2.625404930E1,4.253242314E-1,1.314796257E1
7.378465226E0,1.983650017E1,-3.340679407E0,1.052782154E1
7.395131164E0,1.385713482E1,-7.616055489E0,7.727022648E0
7.411797101E0,9.938589096E0,-1.130788136E1,4.348057747E0
7.428463039E0,6.530611038E0,-1.470269871E1,-7.716853023E-1
7.445128976E0,2.203789711E0,-1.535115337E1,-4.051347733E0
7.461794914E0,-1.964507341E0,-1.535444355E1,-5.560321808E0
7.478460851E0,-4.138985157E0,-1.455135250E1,-6.356234074E0
7.495126789E0,-5.094917774E0,-1.356879997E1,-6.786942482E0
7.511792726E0,-4.529015064E0,-1.251565838E1,-6.538088799E0
7.528458664E0,-3.005983353E0,-1.118973637E1,-6.999006271E0
7.545124601E0,-1.238285661E0,-9.650253296E0,-8.108976364E0
7.561790539E0,1.138684511E0,-8.813961983E0,-9.043673515E0
7.578456476E0,4.617250443E0,-8.993124962E0,-8.833105087E0
7.595122414E0,9.805487633E0,-1.070279694E1,-7.100102901E0
7.611788351E0,1.559821224E1,-9.578767776E0,-4.747360229E0
7.628454289E0,2.535225487E1,-1.865205288E0,-1.617847204E0
7.645120226E0,4.496023941E1,5.149055004E0,1.742872238E0
7.661786164E0,5.992046738E1,7.146463871E0,1.076680470E1
7.678452101E0,4.978835678E1,1.087448120E1,2.358515549E1
7.695118039E0,3.066790962E1,1.411197090E1,2.381157684E1
7.711783976E0,1.895025826E1,1.572413445E1,1.186929798E1
7.728449914E0,1.191176987E1,1.720289993E1,1.355534077E0
7.745115851E0,5.983551979E0,1.885334778E1,-7.516453862E-1
7.761781789E0,3.839283943E0,1.819592094E1,4.334299088E0
7.778447726E0,3.394218922E0,1.751456451E1,1.015394306E1
7.795113664E0,1.075274706E0,1.808585167E1,1.167099285E1
7.811779601E0,-3.025724173E0,1.995464516E1,9.342476845E0
7.828445539E0,-5.359623432E0,2.105683899E1,6.704689026E0
7.845111476E0,-4.749454021E0,2.004647064E1,6.471089840E0
7.861777414E0,-8.195417523E-1,1.623350716E1,9.905687332E0
7.878443351E0,4.288835526E0,1.221356487E1,1.211007500E1
7.895109289E0,8.146963120E0,9.644271851E0,1.107338524E1
7.911775226E0,1.297567940E1,9.393922806E0,7.646564007E0
7.928441164E0,1.888654900E1,1.039890766E1,4.395017147E0
7.945107101E0,2.260469627E1,1.233230877E1,4.778167725E0
7.961773039E0,2.644218636E1,1.384038544E1,5.679364681E0
7.978438976E0,3.039632607E1,1.289970684E1,5.291727066E0
7.995104914E0,2.901237679E1,1.007348442E1,4.822733879E0
8.011770851E0,2.326930237E1,6.351448536E0,6.321837425E0
8.028436789E0,1.706710625E1,2.416750908E0,6.422036648E0
8.045102726E0,1.199581814E1,-1.358225942E0,4.762913704E0
8.061768664E0,7.132705212E0,-4.756632328E0,9.442676306E-1
8.078434601E0,5.919245243E0,-7.422834873E0,-1.596311808E0
8.095100539E0,2.290230274E0,-8.335697174E0,-4.923531532E0
8.111766476E0,3.768396616E0,-1.054187965E1,-4.840680122E0
8.128432414E0,2.052144527E0,-1.157677460E1,-1.083948612E0
8.145098351E0,2.068894386E0,-1.140209866E1,-4.543372095E-1
8.161764289E0,1.876571178E0,-8.988339424E0,-5.520540714E0
8.178430226E0,9.541380405E-1,-6.196513176E0,-9.776474953E0
8.195096164E0,1.737488389E0,-4.822434902E0,-9.212666512E0
8.211762101E0,4.126123428E0,-4.869992256E0,-2.744866610E0
8.228428039E0,9.078668594E0,-4.374079704E0,-2.557329237E-1
8.245093976E0,1.199671555E1,-2.749054193E0,1.764407635E0
8.261759914E0,1.087866879E1,-5.093721151E-1,2.249253273E0
8.278425851E0,1.489023590E1,4.559523582E0,4.255635262E0
8.295091789E0,2.958725166E1,9.091828346E0,8.087141991E0
8.311757726E0,3.921387482E1,1.319312668E1,1.519920921E1
8.328423664E0,3.509762192E1,1.553988743E1,2.175075722E1
8.345089601E0,2.436760902E1,1.507657719E1,2.055883217E1
8.361755539E0,1.199492073E1,1.481157207E1,1.038066292E1
8.378421476E0,3.958626032E0,1.484537125E1,2.036591291E0
8.395087414E0,1.279860973E0,1.336481190E1,4.169493318E-1
8.411753351E0,1.897209287E0,1.089272690E1,3.414557934E0
8.428419289E0,3.549154282E0,9.990931511E0,5.862714767E0
8.445085226E0,2.666501760E0,1.061785126E1,5.362913609E0
8.461751164E0,-2.640180588E0,1.217049408E1,3.629313707E0
8.478417101E0,-6.250052929E0,1.332233906E1,3.449851990E0
8.495083039E0,-6.388537407E0,1.356879997E1,5.133502007E0
8.511748976E0,-4.161417484E0,1.224437237E1,7.701000690E0
8.528414914E0,-3.461816072E0,1.080479050E1,9.606584549E0
8.545080851E0,-2.854039192E0,1.067797089E1,9.470493317E0
8.561746789E0,1.065105200E0,1.227637672E1,7.342974663E0
8.578412726E0,5.817849159E0,1.442273808E1,5.741278648E0
8.595078664E0,7.078567505E0,1.726750565E1,9.230013847E0
8.611744601E0,9.018548965E0,2.036351967E1,1.486481285E1
8.628410539E0,1.872413635E1,2.155394745E1,2.123749733E1
8.645076476E0,3.096013451E1,1.957568169E1,1.994776535E1
8.661742414E0,3.438994598E1,1.605075455E1,1.405155182E1
8.678408351E0,2.993122101E1,1.029840946E1,8.120941162E0
8.695074289E0,2.245364952E1,3.453441381E0,5.701199055E0
8.711740226E0,1.561017704E1,-3.520739317E0,5.533701420E0
8.728406164E0,1.066869926E1,-9.397810936E0,5.030311584E0
8.745072101E0,8.930911064E0,-1.379761314E1,2.841775894E0
8.761738039E0,6.332305908E0,-1.579322720E1,-1.559522152E0
8.778403976E0,2.196312189E0,-1.533051586E1,-7.588837147E0
8.795069914E0,-1.357627749E0,-1.366660690E1,-1.239093304E1
8.811735851E0,-3.256332397E0,-1.226770306E1,-1.385863018E1
8.828401789E0,-4.181457520E0,-1.172931767E1,-1.198534966E1
8.845067726E0,-3.849752426E0,-1.130399323E1,-8.419445992E0
8.861733664E0,-2.626721144E0,-1.020419216E1,-4.696811676E0
8.878399601E0,-3.379862010E-1,-7.856832981E0,-2.629412889E0
8.895065539E0,2.925524712E0,-5.169095039E0,-2.901895761E0
8.911731476E0,8.328219414E0,-1.295115232E0,-3.454936743E0
8.928397414E0,1.660469437E1,3.556631804E0,-1.486541033E0
8.945063351E0,2.640599442E1,9.170791626E0,4.980660439E0
8.961729289E0,3.592823029E1,1.358584881E1,1.610459328E1
8.978395226E0,3.774229050E1,1.597448444E1,2.681307411E1
8.995061164E0,3.129183960E1,1.844297981E1,3.033650398E1
9.011727101E0,2.415853500E1,2.172473526E1,2.220120621E1
9.028393039E0,1.759233093E1,2.460389900E1,9.983753204E0
9.045058976E0,8.524430275E0,2.666053009E1,3.288934708E0
9.061724914E0,1.448554993E0,2.619841766E1,6.038886070E0
9.078390851E0,-1.517946839E0,2.413759804E1,1.298046494E1
9.095056789E0,-2.270489693E0,2.193889427E1,1.644586945E1
9.111722726E0,-2.418246269E0,1.936272049E1,1.556620884E1
9.128388664E0,-2.533400953E-1,1.538644791E1,1.298644638E1
9.145054601E0,3.629911900E0,1.026431179E1,1.113171005E1
9.161720539E0,7.791030407E0,4.488038063E0,1.016889763E1
9.178386476E0,1.138804150E1,-8.461619020E-1,9.695717812E0
9.195052414E0,1.298106289E1,-4.882554531E0,9.227920532E0
9.211718351E0,1.098066330E1,-7.177271366E0,6.346364021E0
9.228384289E0,5.654240131E0,-4.405186653E0,1.869691849E0
9.245050226E0,6.770192623E0,1.214656591E0,4.175475538E-1
9.261716164E0,2.001027870E1,-3.592225075E0,4.275076866E0
9.278382101E0,2.773042107E1,-1.144636631E1,1.075543880E1
9.295048039E0,2.269293213E1,-1.487767410E1,1.534726524E1
9.311713976E0,1.324068451E1,-1.380778313E1,1.478495216E1
9.328379914E0,7.415357590E0,-1.192971611E1,7.932506084E0
9.345045851E0,4.034298897E0,-8.973683357E0,-1.037587762E0
9.361711789E0,9.203394055E-1,-5.491528034E0,-8.544470787E0
9.378377726E0,-9.720842242E-1,-2.232204437E0,-1.270110226E1
9.395043664E0,-1.328016520E0,-1.073779166E-1,-1.512174225E1
9.411709601E0,-3.102294445E0,2.202892303E0,-1.383350563E1
9.428375539E0,-4.226921082E0,4.520041943E0,-7.441080093E0
9.445041476E0,7.316055298E-1,7.307979584E0,1.284945726E0
9.461707414E0,1.827996826E1,8.988637924E0,1.142752266E1
9.478373351E0,3.430530167E1,1.165155029E1,2.171935272E1
9.495039289E0,3.101397324E1,1.574327755E1,2.750699234E1
9.511705226E0,2.040270042E1,1.746132469E1,2.591486740E1
9.528371164E0,1.576301861E1,1.671326828E1,1.575883102E1
9.545037101E0,1.143858910E1,1.561496258E1,5.726622581E0
9.561703039E0,3.018545866E0,1.492612839E1,1.720738530E0
9.578368976E0,-3.064009428E0,1.511157227E1,2.499901533E0
9.595034914E0,-1.960319996E0,1.392323685E1,6.832705021E0
9.611700851E0,3.220739365E0,1.070578766E1,1.282044506E1
9.628366789E0,9.159127235E0,6.296712875E0,1.667199135E1
9.645032726E0,1.187527943E1,2.688037157E0,1.572892094E1
9.661698664E0,1.136979580E1,7.360920906E-1,1.131386375E1
9.678364601E0,9.797113419E0,2.138585299E-1,5.181358337E0
9.695030539E0,7.681858063E0,3.265903711E0,-1.173978567E0
9.711696476E0,1.020927715E1,7.192824841E0,-2.449352980E0
9.728362414E0,1.701865196E1,4.608875751E0,2.656631231E0
9.745028351E0,1.715653801E1,6.379863620E-1,1.043091202E1
9.761694289E0,1.406560993E1,-1.749452472E0,1.608305740E1
9.778360226E0,1.203171062E1,-3.249453068E0,1.681586075E1
9.795026164E0,1.088285637E1,-3.874577999E0,1.240828133E1
9.811692101E0,9.009575844E0,-3.679862022E0,6.754639149E0
9.828358039E0,6.245566368E0,-3.172284603E0,2.887837887E0
9.845023976E0,4.700101852E0,-2.651845694E0,2.073679924E0
9.861689914E0,4.587938309E0,-2.025524378E0,3.238984585E0
9.878355851E0,5.015655518E0,-1.245763302E0,3.820141315E0
9.895021789E0,5.820540905E0,1.851446480E-1,3.344268799E0
9.911687726E0,8.128418922E0,1.826920033E0,1.289432287E0
9.928353664E0,1.246570873E1,3.163311481E0,-7.845467329E-1
9.945019601E0,1.532244015E1,4.631607533E0,-2.520240545E0
9.961685539E0,1.428874016E1,5.924329758E0,-2.991327524E0
9.978351476E0,1.209601784E1,6.465705872E0,-1.790429592E0
9.995017414E0,1.101087284E1,6.111268997E0,-7.579265833E-1
1.001168335E1,1.079222870E1,6.609873295E0,-3.000001311E-1
1.002834929E1,1.197607708E1,7.851449490E0,1.510469317E-1
1.004501523E1,1.422443295E1,9.998409271E0,2.057528257E0
1.006168116E1,1.583510208E1,1.192612743E1,5.240281582E0
1.007834710E1,1.691097450E1,1.208704472E1,8.077870369E0
1.009501304E1,1.671835327E1,1.126750278E1,1.038185883E1
1.011167898E1,1.521865082E1,1.011476040E1,1.039292622E1
1.012834491E1,1.330409431E1,8.906983376E0,8.291429520E0
1.014501085E1,1.119661522E1,7.933403492E0,6.218647003E0
1.016167679E1,8.913563728E0,7.403393269E0,4.760819912E0
1.017834273E1,7.798209190E0,7.424928665E0,3.100499868E0
1.019500866E1,8.421838760E0,8.196314812E0,1.936989903E0
1.021167460E1,7.854440212E0,9.000901222E0,1.299302697E0
1.022834054E1,6.359823704E0,9.544371605E0,6.672984362E-1
1.024500648E1,4.341477394E0,1.036750221E1,-8.144569993E-1
1.026167241E1,1.995314956E0,1.244836044E1,-3.291925669E0
1.027833835E1,1.875374764E-1,1.608844185E1,-5.691029549E0
1.029500429E1,5.718846321E-1,1.873251152E1,-5.357530117E0
1.031167023E1,3.449253798E0,1.810170364E1,7.603194118E-1
1.032833616E1,6.411269188E0,1.377906895E1,1.297478199E1
1.034500210E1,5.044369221E0,9.062217712E0,2.546890450E1
1.036166804E1,3.854238987E0,8.986844063E0,3.227469254E1
1.037833398E1,1.143260765E1,8.842376709E0,3.445156097E1
1.039499991E1,2.233789635E1,6.391229153E0,2.679692078E1
1.041166585E1,2.900519753E1,6.444469452E0,1.319163132E1
1.042833083E1,3.070051193E1,5.275575638E0,2.286042929E0
1.044499656E1,2.601745987E1,-2.601297379E0,1.623829246E0
1.046166250E1,1.397857094E1,-1.361725426E1,9.171091080E0
1.047832843E1,2.199602127E0,-2.041765594E1,1.528236008E1
1.049499437E1,-2.925225735E0,-2.432094765E1,1.006660461E1
1.051166031E1,-2.845963478E0,-2.435893440E1,-4.064807415E0
1.052832625E1,-1.720738530E0,-2.193231392E1,-1.488604832E1
1.054499218E1,2.065903187E0,-1.989661980E1,-1.501974773E1
1.056165812E1,5.633901119E0,-1.841157341E1,-9.397212982E0
1.057832406E1,4.684847832E0,-1.585873127E1,-2.507977247E0
1.059499000E1,4.339982033E0,-1.326042461E1,1.435693651E-1
1.061165593E1,8.877073288E0,-1.152712440E1,-1.579262972E0
1.062832187E1,1.703091431E1,-9.519845009E0,-5.108676434E0
1.064498781E1,2.247698021E1,-6.893423080E0,-8.581260681E0
1.066165375E1,2.074517441E1,-4.048655987E0,-1.033250713E1
1.067831968E1,1.981735802E1,1.083649516E0,-9.358628273E0
1.069498562E1,3.293271637E1,2.958725214E0,-4.705485821E0
1.071165156E1,4.792614365E1,4.703392029E0,4.094717979E0
1.072831750E1,4.651617432E1,8.530113220E0,1.312911892E1
1.074498343E1,3.458944702E1,1.064507008E1,1.495992756E1
1.076164937E1,2.512553596E1,1.191535950E1,1.210917854E1
1.077831531E1,2.038894272E1,1.336750412E1,7.856235027E0
1.079498125E1,1.281565857E1,1.580728531E1,3.938885212E0
1.081164718E1,5.127519608E0,1.810200310E1,5.884848118E0
1.082831312E1,7.866404653E-1,2.093360901E1,9.603593826E0
1.084497906E1,-0.000000000E0,2.369073868E1,1.213071346E1
1.086164500E1,1.761117458E0,2.465624237E1,1.142692471E1
1.087831093E1,2.933899641E0,2.404906464E1,8.842676163E0
1.089497687E1,1.493121386E0,2.195594215E1,7.349554539E0
1.091164281E1,1.352542996E0,1.770688820E1,1.077188969E1
1.092830875E1,3.169293642E0,1.293888950E1,1.678385544E1
1.094497468E1,7.510172844E0,9.125627518E0,1.922363853E1
1.096164062E1,1.279083347E1,7.692924976E0,1.703869247E1
1.097830656E1,1.806491280E1,7.438687325E0,1.395583916E1
1.099497250E1,2.139332962E1,7.378866673E0,1.360529041E1
1.101163843E1,2.269502640E1,8.401200294E0,1.705095482E1
1.102830437E1,2.674308395E1,9.437891006E0,2.097069740E1
1.104497031E1,3.331048584E1,6.422036648E0,2.039701843E1
1.106163625E1,3.319861984E1,4.342075825E0,1.440658665E1
1.107830218E1,3.144587708E1,2.228017092E0,8.178069115E0
1.109496812E1,3.058087158E1,-2.857628345E0,1.932204247E0
1.111163406E1,2.361506653E1,-9.428318977E0,1.131206870E0
1.112830000E1,1.428874016E1,-1.690379715E1,4.631009102E0
1.114496593E1,5.420042515E0,-2.158176422E1,5.942276001E0
1.116163187E1,-1.656132340E0,-2.221227264E1,2.500200510E0
1.117829781E1,-4.701298237E0,-2.074517441E1,-3.066701412E0
1.119496375E1,-4.219443798E0,-1.860748672E1,-6.957430840E0
1.121162968E1,-2.649153709E0,-1.657298851E1,-8.279465675E0
1.122829562E1,-2.123630047E-1,-1.456660652E1,-8.080561638E0
1.124496156E1,2.922234535E0,-1.222164059E1,-8.577671051E0
1.126162750E1,5.748157978E0,-9.945467949E0,-1.029422188E1
1.127829343E1,7.820940971E0,-8.018946648E0,-1.095464134E1
1.129495937E1,9.734899521E0,-6.627819538E0,-9.654440880E0
1.131162531E1,1.236491108E1,-5.819045544E0,-7.344171047E0
1.132829125E1,1.675125313E1,-4.579862595E0,-3.408874989E0
1.134495718E1,2.503042030E1,2.542374134E-1,2.900699139E0
1.136162312E1,3.993590927E1,8.157731056E0,9.920642853E0
1.137828906E1,5.550511169E1,1.398455238E1,1.314586830E1
1.139495500E1,5.524758148E1,1.566999722E1,1.357478237E1
1.141162093E1,3.676572037E1,1.490130329E1,1.429232979E1
1.142828687E1,1.856949997E1,1.429920864E1,1.142243767E1
1.144495281E1,9.637392044E0,1.269033527E1,6.228218079E0
1.146161875E1,5.470890045E0,1.240828133E1,3.298506021E0
1.147828468E1,2.893221617E0,1.256889915E1,1.910070658E0
1.149495062E1,1.110269666E0,1.157916832E1,3.276372433E0
1.151161656E1,1.530808330E0,1.050628567E1,6.216553211E0
1.152828250E1,5.737988472E0,1.080299568E1,8.995218277E0
1.154494843E1,7.720741272E0,1.418076420E1,8.916853905E0
1.156161437E1,2.609672308E0,1.845464516E1,4.961816788E0
1.157828031E1,-2.166401863E0,2.170888329E1,3.480061531E0
1.159494625E1,-1.698305845E0,2.261516571E1,4.861318111E0
1.161161218E1,2.554039001E0,2.116810608E1,7.892725468E0
1.162827812E1,8.017750740E0,1.870260048E1,1.031755257E1
1.164494406E1,1.358106327E1,1.628644753E1,1.106082249E1
1.166161000E1,2.028186417E1,1.489950848E1,1.040967560E1
1.167827593E1,2.923042297E1,1.391934872E1,1.067617607E1
1.169494187E1,3.770520020E1,1.133210850E1,9.611968994E0
1.171160781E1,4.091098785E1,7.639086246E0,6.354439735E0
1.172827375E1,4.113681030E1,3.917648792E0,4.111467361E0
1.174493968E1,3.746083450E1,-2.833999395E0,3.927818298E0
1.176160562E1,2.826222610E1,-9.577571869E0,6.581458569E0
1.177827156E1,1.862961960E1,-1.492822266E1,7.566703320E0
1.179493750E1,1.126122189E1,-1.886441612E1,5.105685234E0
1.181160343E1,5.373681545E0,-1.977039719E1,-5.817549825E-1
1.182826937E1,7.094719410E-1,-1.904507446E1,-7.016055107E0
1.184493531E1,-2.088335991E0,-1.915783501E1,-1.067737293E1
1.186160125E1,-5.001597404E0,-1.930200386E1,-1.048146057E1
1.187826718E1,-8.658129692E0,-1.920479393E1,-9.324232101E0
1.189493312E1,-1.091366386E1,-1.785165405E1,-9.071788788E0
1.191159906E1,-8.426624298E0,-1.640100479E1,-8.906085968E0
1.192826500E1,-2.683550596E0,-1.472602844E1,-8.491828918E0
1.194493093E1,5.272285461E0,-1.325145149E1,-7.095616341E0
1.196159687E1,1.313390446E1,-1.064806080E1,-5.693123341E0
1.197826281E1,2.016072655E1,-6.816254616E0,-3.954438448E0
1.199492875E1,2.687618446E1,1.079761237E-1,-8.892326951E-1
1.201159468E1,3.895275879E1,7.151847839E0,4.679463863E0
1.202826062E1,4.990590668E1,1.440838146E1,1.090409279E1
1.204492656E1,4.991697311E1,1.821476364E1,1.690858269E1
1.206159250E1,3.617528915E1,1.829462433E1,1.935524368E1
1.207825843E1,2.119981003E1,1.720230103E1,1.446371555E1
1.209492437E1,1.101894855E1,1.535294819E1,6.502495766E0
1.211159031E1,4.212265015E0,1.457049561E1,1.717149377E0
1.212825625E1,7.597211599E-1,1.470748425E1,8.536394835E-1
1.214492218E1,-6.759724021E-1,1.512802315E1,2.024028778E0
1.216158812E1,-1.639980793E0,1.601845169E1,3.975375652E0
1.217825406E1,-1.310668588E0,1.697827339E1,4.474279404E0
1.219492000E1,-2.118844509E0,1.861107635E1,4.418945312E0
1.221158593E1,-4.217947960E0,1.958884239E1,4.904688358E0
1.222825187E1,-5.889933109E0,1.908754539E1,6.027819157E0
1.224491781E1,-4.444368839E0,1.694327736E1,8.046463966E0
1.226158375E1,-9.095717072E-1,1.466321754E1,8.875876427E0
1.227824968E1,3.001796007E0,1.315334606E1,9.047262192E0
1.229491562E1,7.078866482E0,1.253958702E1,8.458927155E0
1.231158156E1,1.211695480E1,1.239482117E1,8.498408318E0
1.232824750E1,1.529432392E1,1.328794193E1,8.950054169E0
1.234491343E1,1.752862167E1,1.475564003E1,9.537791252E0
1.236157937E1,2.447020149E1,1.674856186E1,9.973584175E0
1.237824531E1,3.899134445E1,1.331904888E1,1.065673447E1
1.239491125E1,4.387569427E1,6.724429607E0,1.018265629E1
1.241157718E1,3.332334518E1,1.199103236E0,7.972885132E0
1.242824312E1,2.214647102E1,-5.362614632E0,7.127321243E0
1.244490906E1,1.404616833E1,-1.038873863E1,7.116553783E0
1.246157500E1,1.033400249E1,-1.547229004E1,5.436492920E0
1.247824093E1,7.998907089E0,-1.975693893E1,1.983051777E0
1.249490687E1,3.463610888E0,-2.087887383E1,-3.113062143E0
1.251157281E1,-2.700300455E0,-2.095275116E1,-8.650353432E0
1.252823875E1,-9.459127426E0,-2.056780624E1,-1.298913860E1
1.254490468E1,-1.180199909E1,-2.145584297E1,-1.133330536E1
1.256157062E1,-1.082512951E1,-2.252274132E1,-5.469394207E0
1.257823656E1,-7.264908791E0,-2.118575287E1,-2.201995134E0
1.259490250E1,1.127318621E0,-1.702164268E1,-3.379263878E0
1.261156843E1,1.661217117E1,-9.614959717E0,-6.526124477E0
1.262823437E1,3.482813263E1,7.953144312E-1,-4.966901779E0
1.264490031E1,4.535565567E1,1.120349503E1,3.515953779E0
1.266156625E1,4.464648056E1,2.067518425E1,1.939293098E1
1.267823218E1,3.918964767E1,2.463530540E1,3.173630524E1
1.269489812E1,3.161756134E1,2.474118805E1,2.936382294E1
1.271156406E1,1.944856262E1,2.433022118E1,1.136261749E1
1.272823000E1,5.458925724E0,2.470170593E1,-5.231607437E0
1.274489593E1,-3.715455294E0,2.388874435E1,-7.228417873E0
1.276156187E1,-5.906084538E0,2.006531334E1,-5.416752100E-1
1.277822781E1,-4.520640373E0,1.529761410E1,6.819245338E0
1.279489375E1,-2.020738840E0,1.026461124E1,1.063519955E1
1.281155968E1,-2.077269077E0,7.171588421E0,9.828518867E0
1.282822562E1,-8.255237937E-1,5.978467464E0,7.264310360E0
1.284489156E1,5.268397331E0,7.651050568E0,4.927719116E0
1.286155750E1,2.232144547E1,9.880862236E0,3.391526937E0
1.287822343E1,4.032743454E1,1.104347515E1,3.067000389E0
1.289488937E1,4.556951141E1,7.510172844E0,4.910071850E0
1.291155531E1,3.732833099E1,-6.547361016E-1,1.394477177E1
1.292822125E1,2.395753860E1,-6.819245338E0,2.237348938E1
1.294488718E1,1.452892017E1,-9.419645309E0,1.980957985E1
1.296155312E1,1.129771233E1,-1.014616585E1,9.991530418E0
1.297821906E1,9.600603104E0,-9.237491608E0,5.246263742E-1
1.299488500E1,7.009175777E0,-7.720442295E0,-4.705485821E0
1.301155093E1,4.397409916E0,-6.972685337E0,-5.189434052E0
1.302821687E1,1.508375525E0,-6.853941441E0,-3.557229996E0
1.304488281E1,-7.283154130E-1,-6.556632996E0,-2.173580170E0
1.306154875E1,-2.329412937E0,-5.845366478E0,-1.533201098E0
1.307821468E1,-3.620340586E0,-4.835296154E0,-8.629116416E-1
1.309488062E1,-4.270291328E0,-3.535993576E0,3.445664644E-1
1.311154656E1,-3.736990690E0,-2.359323025E0,2.030609131E0
1.312821250E1,-2.442473650E0,-9.664012194E-1,5.161617756E0
1.314487843E1,1.172483116E-1,4.818546474E-1,8.723932266E0
1.316154437E1,3.958925009E0,2.315953255E0,1.164945698E1
1.317821031E1,6.262914181E0,5.627918720E0,1.345304680E1
1.319487625E1,7.463213921E0,8.841778755E0,1.417328644E1
1.321154218E1,9.034700394E0,1.089242744E1,1.402971745E1
1.322820812E1,1.079043388E1,1.142124176E1,1.435484219E1
1.324487406E1,1.250279713E1,1.141346455E1,1.542323780E1
1.326154000E1,1.348804188E1,1.151785183E1,1.592872143E1
1.327820593E1,1.418794250E1,1.217109203E1,1.544836235E1
1.329487187E1,1.698425484E1,1.287428284E1,1.381585884E1
1.331153781E1,2.246591187E1,1.230269718E1,1.105902767E1
1.332820375E1,2.782134819E1,7.601997375E0,4.922036171E0
1.334486968E1,2.628096962E1,1.943869352E0,-3.250051260E0
1.336153562E1,2.413251305E1,-3.589233875E0,-6.015855312E0
1.337820156E1,2.664437866E1,-9.561420441E0,-1.690230131E0
1.339486750E1,2.791436958E1,-1.505115318E1,4.033401489E0
1.341153343E1,2.225564384E1,-1.710150337E1,7.688737392E0
1.342819937E1,1.471466255E1,-1.670279884E1,5.362614632E0
1.344486531E1,6.818946362E0,-1.442602825E1,-2.458326101E0
1.346153125E1,1.335494161E0,-1.161356449E1,-9.836296082E0
1.347819718E1,-3.810569942E-1,-9.597611427E0,-1.414935875E1
1.349486312E1,1.122532964E0,-8.675776482E0,-1.464257908E1
1.351152906E1,5.333302498E0,-8.477471352E0,-1.061336517E1
1.352819500E1,1.011027431E1,-8.561519623E0,-6.216553211E0
1.354486093E1,1.479601860E1,-7.279863834E0,-1.993221283E0
1.356152687E1,2.189672089E1,-4.279263973E0,1.474876046E0
1.357819281E1,3.132653427E1,-5.647061467E-1,3.736990690E0
1.359485875E1,3.498575974E1,3.340380430E0,1.143171024E1
1.361152468E1,3.009692383E1,6.283253193E0,1.986521339E1
1.362819062E1,2.502533531E1,1.154417324E1,1.820489311E1
1.364485656E1,2.668804741E1,1.633191109E1,1.095793152E1
1.366152250E1,2.520240402E1,1.886740685E1,5.776573181E0
1.367818843E1,1.926311874E1,2.005783653E1,2.349153519E0
1.369485437E1,1.371536064E1,2.046969986E1,-1.327119231E0
1.371152031E1,9.564411163E0,2.011137581E1,-2.981756210E0
1.372818625E1,6.642176628E0,1.890688896E1,-2.537289381E0
1.374485218E1,4.529613495E0,1.726660728E1,-1.265504122E0
1.376151812E1,2.883052111E0,1.586710644E1,-1.266999602E0
1.377818406E1,2.538186550E0,1.444487190E1,-1.944766641E0
1.379485000E1,2.339881420E0,1.308335590E1,-1.840977907E0
1.381151593E1,2.292922258E0,1.177926731E1,1.435693651E-1
1.382818187E1,3.678366661E0,1.123789120E1,4.517649174E0
1.384484781E1,6.817451000E0,1.138235855E1,1.012104130E1
1.386151375E1,1.241575813E1,1.160967636E1,1.649163246E1
1.387817968E1,1.959512329E1,1.272144127E1,2.041586113E1
1.389484562E1,2.697668266E1,1.433869076E1,2.231366920E1
1.391151156E1,3.586212921E1,1.556142330E1,2.472623253E1
1.392817750E1,4.448048019E1,1.444307709E1,2.594298363E1
1.394484343E1,4.842744064E1,1.018564796E1,2.397638130E1
1.396150937E1,4.547021103E1,5.223232746E0,1.956132507E1
1.397817531E1,3.954498291E1,3.496512175E-1,1.529731560E1
1.399484125E1,3.304966736E1,-5.268397331E0,1.498265934E1
1.401150718E1,2.614098930E1,-1.217767239E1,1.733540154E1
1.402817312E1,1.913659859E1,-1.883899117E1,1.831346893E1
1.404483906E1,1.531556034E1,-2.393450737E1,1.277198982E1
1.406150500E1,1.311536026E1,-2.630011177E1,4.111467361E0
1.407817093E1,7.947461128E0,-2.484108734E1,-8.733802438E-1
1.409483687E1,3.099602699E0,-2.318226433E1,-3.003291607E0
1.411150281E1,-3.753740489E-1,-2.137299156E1,-5.038985252E0
1.412816875E1,-2.944368362E0,-1.956820488E1,-6.299404621E0
1.414483468E1,-3.707379580E0,-1.769103432E1,-7.852944851E0
1.416150062E1,-1.908874273E0,-1.574955845E1,-1.015214825E1
1.417816656E1,2.106581211E0,-1.427258873E1,-1.145653534E1
1.419483250E1,6.486643314E0,-1.310578918E1,-1.163390350E1
1.421149843E1,1.176162052E1,-1.290479183E1,-1.110209846E1
1.422816437E1,1.798505402E1,-1.168116188E1,-1.023649502E1
1.424483031E1,2.413759804E1,-6.512964249E0,-9.102596283E0
1.426149625E1,3.518256760E1,1.616052628E0,-2.568994284E0
1.427816218E1,5.133531952E1,8.644371033E0,1.182981586E1
1.429482812E1,5.724140167E1,1.365195084E1,2.055943108E1
1.431149406E1,4.280191422E1,1.700638962E1,1.956700897E1
1.432816000E1,2.493081856E1,1.811635971E1,1.334357548E1
1.434482593E1,1.695972824E1,1.689362717E1,5.837290764E0
1.436149187E1,1.466142273E1,1.416551018E1,3.760021687E0
1.437815781E1,1.276600838E1,1.229522038E1,5.705685616E0
1.439482375E1,5.884848118E0,1.276570892E1,8.112865448E0
1.441148968E1,-1.000499010E0,1.446610832E1,7.694420338E0
1.442815562E1,-4.974379063E0,1.757169342E1,5.716154099E0
1.444482156E1,-7.621738434E0,2.125424767E1,4.373481750E0
1.446148750E1,-8.600702286E0,2.367129707E1,5.878866196E0
1.447815343E1,-6.225825310E0,2.376312256E1,9.920941353E0
1.449481937E1,-5.362016678E0,2.174896240E1,1.538196087E1
1.451148531E1,-4.826921463E0,1.877887154E1,2.130868340E1
1.452815125E1,-2.970091105E-1,1.680150414E1,2.420220375E1
1.454481718E1,9.607781410E0,1.568136311E1,2.246710968E1
1.456148312E1,2.138256264E1,1.377787304E1,2.041466522E1
1.457814906E1,3.013580704E1,1.314736366E1,2.047269058E1
1.459481500E1,3.730649948E1,1.469402504E1,1.987418747E1
1.461148093E1,4.903432083E1,1.550160217E1,1.561316776E1
1.462814687E1,5.781867218E1,1.147059345E1,5.335097313E0
1.464481281E1,5.200471115E1,3.382553816E0,2.231307179E-1
1.466147875E1,3.552264786E1,-4.940281391E0,7.123732090E0
1.467814468E1,2.242852402E1,-1.126211929E1,1.246211910E1
1.469481062E1,1.785943031E1,-1.632353783E1,9.993324280E0
1.471147656E1,1.448525143E1,-2.027647972E1,3.149851799E0
1.472814250E1,8.845966339E0,-2.233999062E1,-4.231706619E0
1.474480843E1,2.544766903E0,-2.128385925E1,-8.249854088E0
1.476147437E1,-1.409372568E0,-2.116690826E1,-9.291330338E0
1.477814031E1,-4.080659866E0,-2.140978050E1,-8.743373871E0
1.479480625E1,-5.040780067E0,-2.084417725E1,-8.120343208E0
1.481147218E1,-4.756033897E0,-2.006262207E1,-8.152346611E0
1.482813812E1,-4.975276470E0,-1.800210190E1,-7.620841026E0
1.484480406E1,-3.592823267E0,-1.549203110E1,-6.255735874E0
1.486147000E1,1.033699393E0,-1.323888969E1,-5.064409256E0
1.487813593E1,7.761419296E0,-1.152473164E1,-4.505086899E0
1.489480187E1,1.377159119E1,-8.752646446E0,-3.068794966E0
1.491146781E1,1.904716682E1,-3.095415115E0,-1.278664589E0
1.492813375E1,2.961536789E1,6.838686943E0,6.475576162E-1
1.494479968E1,4.988257599E1,1.665643883E1,6.203392744E-1
1.496146562E1,6.365626144E1,2.135594177E1,2.628814697E0
1.497813156E1,5.052624512E1,2.239652061E1,1.057567787E1
1.499479750E1,2.746900558E1,1.926222229E1,1.807239151E1
1.501146343E1,1.172991562E1,1.610668755E1,1.518036556E1
1.502812937E1,5.597111225E0,1.443231010E1,7.814958572E0
1.504479531E1,2.841177702E0,1.351884937E1,2.615654230E0
1.506146125E1,2.862414122E-1,1.226590824E1,7.767700553E-1
1.507812718E1,-7.519445419E-1,1.100818062E1,5.066801906E-1
1.509479312E1,-2.515454888E-1,1.093101215E1,6.469594240E-1
1.511145906E1,-1.322034478E0,1.292991638E1,1.160219908E0
1.512812500E1,-1.392921925E0,1.461506176E1,2.012962103E0
1.514479093E1,-9.373882413E-1,1.495274830E1,2.772084951E0
1.516145687E1,-2.060818434E0,1.466890049E1,3.240180969E0
1.517812281E1,-3.792025566E0,1.414247894E1,5.365904808E0
1.519478875E1,-2.714956284E0,1.420588875E1,8.256134987E0
1.521145468E1,2.635993242E0,1.677099419E1,9.562317848E0
1.522812062E1,7.631010532E0,2.065604210E1,8.879166603E0
1.524478656E1,1.152712440E1,2.389412880E1,9.188139915E0
1.526145250E1,1.773171234E1,2.542194557E1,1.171795177E1
1.527811843E1,2.557119751E1,2.448994064E1,1.267388439E1
1.529478437E1,3.491188049E1,2.265793610E1,8.416454315E0
1.531145031E1,3.976602173E1,1.826411629E1,-1.260120273E0
1.532811625E1,3.714946747E1,1.244028473E1,-6.124429703E0
1.534478218E1,3.073879814E1,2.909971476E0,-2.496611357E0
1.536144812E1,2.118724823E1,-6.258427620E0,4.059423447E0
1.537811406E1,1.389452267E1,-1.316201973E1,6.014957905E0
1.539478000E1,9.355039597E0,-1.753101540E1,2.014158487E0
1.541144593E1,5.814857960E0,-2.032403755E1,-4.215854168E0
1.542811187E1,2.142174482E0,-2.186381912E1,-8.475378036E0
1.544477781E1,-5.473581553E-1,-2.349422836E1,-1.040010452E1
1.546144375E1,-3.796213150E0,-2.442054939E1,-1.048534870E1
1.547810968E1,-7.428218842E0,-2.319273186E1,-9.392725945E0
1.549477562E1,-6.797709942E0,-2.116092682E1,-8.443971634E0
1.551144156E1,1.300798178E0,-1.924158478E1,-6.202495575E0
1.552810750E1,1.391904926E1,-1.644377708E1,-3.894318819E0
1.554477343E1,2.208814621E1,-1.015035343E1,-3.305086374E0
1.556143937E1,2.496342087E1,1.468594968E-1,-3.634996653E0
1.557810531E1,3.229562759E1,1.212562847E1,-3.615255833E0
1.559477125E1,5.150341415E1,1.972134590E1,1.320239902E0
1.561143718E1,5.914818192E1,2.493051910E1,1.173679543E1
1.562810312E1,4.170091629E1,2.622084999E1,2.276950264E1
1.564476906E1,2.001805496E1,2.460988235E1,1.838854218E1
1.566143500E1,1.016919708E1,2.047149467E1,7.325626373E0
1.567810093E1,5.469394207E0,1.832004929E1,1.786840320E0
1.569476687E1,4.224528313E0,1.782981873E1,2.408375978E0
1.571143281E1,1.689931035E0,1.855334854E1,5.655735493E0
1.572809875E1,-2.465504646E0,1.993460464E1,7.376174927E0
1.574476468E1,-6.035296917E0,2.148485565E1,6.908378124E0
1.576143062E1,-7.318149090E0,2.131227303E1,4.909772873E0
1.577809656E1,-7.942974567E0,1.969442558E1,3.584747314E0
1.579476250E1,-7.927720547E0,1.718824387E1,5.082056046E0
1.581142843E1,-6.316154480E0,1.525992775E1,7.892725468E0
1.582809437E1,-1.129412293E0,1.424895954E1,9.891928673E0
1.584476031E1,6.535995007E0,1.394028568E1,9.266505241E0
1.586142625E1,1.345424366E1,1.368335629E1,7.774580002E0
1.587809218E1,1.630319786E1,1.388405418E1,7.558627605E0
1.589475812E1,1.731416512E1,1.303011608E1,8.829814911E0
1.591142406E1,2.009462547E1,1.661546135E1,1.103001499E1
1.592809000E1,3.760619736E1,1.691994858E1,9.056833267E0
1.594475593E1,5.000281525E1,1.393310738E1,2.476870537E0
1.596142187E1,4.442514420E1,8.235198021E0,6.669992954E-2
1.597808781E1,2.991656494E1,-9.999007583E-1,5.959025860E0
1.599475375E1,1.467637730E1,-8.555836678E0,1.155434227E1
1.601141968E1,6.696912289E0,-1.265623760E1,1.061844921E1
1.602808562E1,6.763911247E0,-1.627986717E1,3.855136395E0
1.604475156E1,6.077470303E0,-1.847647858E1,-2.880360365E0
1.606141750E1,1.441376567E0,-1.924218178E1,-8.889934540E0
1.607808343E1,-5.311169147E0,-1.898555183E1,-1.218664551E1
1.609474937E1,-1.105035400E1,-1.905883217E1,-1.425883007E1
1.611141531E1,-1.280638695E1,-1.882433510E1,-1.261735344E1
1.612808125E1,-9.760921478E0,-1.951975060E1,-7.484749317E0
1.614474718E1,-2.388036966E0,-2.063510513E1,-3.699901998E-1
1.616141312E1,9.572786331E0,-2.015803528E1,6.372086525E0
1.617807906E1,2.409213448E1,-1.506401539E1,8.278268814E0
1.619474500E1,3.384557724E1,-5.319543839E0,7.360322475E0
1.621141093E1,3.717578888E1,7.036095142E0,6.461518288E0
1.622807687E1,3.824538040E1,1.490040588E1,7.041778088E0
1.624474281E1,3.385455322E1,1.714876175E1,6.394519329E0
1.626140875E1,2.371855545E1,1.689631844E1,4.496412754E0
1.627807468E1,1.575434399E1,1.661426544E1,2.268395901E0
1.629474062E1,1.371924877E1,1.789173317E1,-5.216353536E-1
1.631140656E1,1.551177216E1,2.025105667E1,-1.206879973E0
1.632807250E1,1.910519409E1,2.060609055E1,1.646561027E0
1.634473843E1,2.126710892E1,1.900858307E1,5.965306759E0
1.636140437E1,1.774666786E1,1.642104530E1,1.044167995E1
1.637807031E1,1.240917778E1,1.290329647E1,1.220160103E1
1.639473625E1,8.237590790E0,9.019445419E0,9.822237968E0
1.641140218E1,5.239085197E0,6.209673882E0,6.260521412E0
1.642806812E1,4.081557274E0,4.440480709E0,3.880560160E0
1.644473406E1,3.836591959E0,2.784049034E0,2.067697763E0
1.646140000E1,3.161516905E0,2.151745796E0,7.755736113E-1
1.647806593E1,2.360818624E0,3.071187973E0,3.197409213E-1
1.649473187E1,1.064207911E0,3.959224224E0,1.510170221E0
1.651139781E1,4.624129832E-1,5.095515728E0,5.581258774E0
1.652806375E1,1.321735382E0,6.738487720E0,1.245404339E1
1.654472968E1,6.173781395E0,8.236394882E0,2.095634079E1
1.656139562E1,1.528265953E1,9.707681656E0,2.273660088E1
1.657806156E1,2.256491661E1,1.142183971E1,1.912672806E1
1.659472750E1,2.297229385E1,1.366750431E1,1.422383499E1
1.661139343E1,2.149981117E1,1.280130196E1,1.513370609E1
1.662805937E1,1.987807465E1,8.410771370E0,2.062074661E1
1.664472531E1,1.771017838E1,4.660620213E0,2.558196640E1
1.666139125E1,1.799851227E1,1.851147413E0,2.456441879E1
1.667805718E1,1.859642029E1,4.743770957E-1,1.904656982E1
1.669472312E1,1.803590012E1,-1.065105200E0,1.416102314E1
1.671138906E1,1.587637806E1,-2.397309303E0,1.183161068E1
1.672805500E1,1.425284767E1,-4.188635826E0,1.021316528E1
1.674472093E1,1.408923912E1,-6.046064377E0,8.845368385E0
1.676138687E1,1.547587967E1,-8.678169250E0,7.145566463E0
1.677805281E1,1.493480206E1,-1.242114258E1,6.876673222E0
1.679471875E1,1.160728359E1,-1.510229969E1,8.357232094E0
1.681138468E1,7.587939739E0,-1.609382629E1,7.352246761E0
1.682805062E1,4.831408024E0,-1.572144318E1,2.469393015E0
1.684471656E1,3.379263878E0,-1.439043522E1,-5.885446548E0
1.686138250E1,2.691626310E0,-1.211635685E1,-1.473829174E1
1.687804843E1,5.919544220E0,-1.036750221E1,-2.139093781E1
1.689471437E1,1.123220825E1,-8.764310837E0,-2.355943298E1
1.691138031E1,1.353320694E1,-7.439285755E0,-2.046850395E1
1.692804625E1,1.348385429E1,-6.882057190E0,-1.297687531E1
1.694471218E1,1.650180244E1,-6.450750828E0,-5.772385597E0
1.696137812E1,2.317658043E1,-5.547759533E0,-3.149851799E0
1.697804406E1,2.924986458E1,-2.800499916E0,7.372884750E-1
1.699471000E1,3.421138000E1,4.482953072E0,5.578866005E0
1.701137593E1,4.137160492E1,1.313480186E1,8.266005516E0
1.702804187E1,5.012275314E1,1.687807274E1,1.256231880E1
1.704470781E1,4.454957199E1,1.732343864E1,2.195863342E1
1.706137375E1,2.705803871E1,1.679970932E1,2.785963440E1
1.707803968E1,1.455673695E1,1.638784409E1,2.144656944E1
1.709470562E1,1.031127071E1,1.601306915E1,8.026723862E0
1.711137156E1,6.803392887E0,1.728664780E1,-2.506182671E0
1.712803750E1,1.298106313E0,1.895474434E1,-5.356931686E0
1.714470343E1,-2.172383785E0,1.849143410E1,-1.382453322E0
1.716136937E1,-2.678465843E0,1.673570061E1,5.430510998E0
1.717803531E1,-2.373979092E0,1.485942841E1,1.103480053E1
1.719470125E1,-1.960918188E0,1.326431370E1,1.215494061E1
1.721136718E1,-1.445264935E0,1.261825085E1,8.555537224E0
1.722803312E1,1.582254022E-1,1.325205040E1,5.905486107E0
1.724469906E1,4.077369690E0,1.348116302E1,7.992925167E0
1.726136500E1,9.998708725E0,1.180558872E1,1.449033546E1
1.727803093E1,1.623560143E1,1.025474072E1,2.081576157E1
1.729469687E1,2.208336067E1,1.001306534E1,2.229901314E1
1.731136281E1,2.771606445E1,1.167607689E1,1.948236275E1
1.732802875E1,3.470998764E1,1.439372540E1,1.542293835E1
1.734469468E1,4.351527405E1,1.583240986E1,1.354188061E1
1.736136062E1,4.962205505E1,1.209422302E1,1.179571819E1
1.737802656E1,4.846243668E1,5.165804863E0,1.353171158E1
1.739469250E1,4.102913284E1,-3.319742203E0,1.639950943E1
1.741135843E1,3.253700256E1,-9.975677490E0,1.740419579E1
1.742802437E1,2.725843811E1,-1.667408562E1,1.403899002E1
1.744469031E1,2.199003983E1,-2.321875381E1,8.187641144E0
1.746135625E1,1.329422379E1,-2.643082047E1,3.134597778E0
1.747802218E1,3.908675671E0,-2.660639381E1,8.700901270E-1
1.749468812E1,-3.900300860E-1,-2.607787895E1,-6.855437160E-1
1.751135406E1,-3.112164974E0,-2.538665199E1,-4.706083775E0
1.752802000E1,-6.410970211E0,-2.315265274E1,-9.379864693E0
1.754468593E1,-7.988737583E0,-2.081366920E1,-1.241815090E1
1.756135187E1,-6.633203506E0,-1.879293060E1,-1.296670628E1
1.757801781E1,-3.956532240E0,-1.633729553E1,-1.166680527E1
1.759468375E1,-2.177468538E-1,-1.447029591E1,-9.634401321E0
1.761134968E1,5.409573555E0,-1.351137257E1,-6.975377083E0
1.762801562E1,1.372134209E1,-1.331157112E1,-6.466004848E0
1.764468156E1,2.240040970E1,-1.020987511E1,-8.254041672E0
1.766134750E1,3.088685417E1,-3.547359705E-1,-7.516753197E0
1.767801343E1,4.638307190E1,1.056879807E1,-2.366501570E0
1.769467937E1,6.914987946E1,1.508734512E1,7.447062492E0
1.771134531E1,6.706723022E1,1.669322777E1,1.806102562E1
1.772801125E1,3.826691818E1,1.584736538E1,2.664617348E1
1.774467718E1,1.409910965E1,1.492732525E1,2.288256264E1
1.776134312E1,6.822236538E0,1.401565933E1,1.016052341E1
1.777800906E1,6.831508636E0,1.372433376E1,3.568296731E-1
1.779467500E1,4.018745422E0,1.282971668E1,-2.560619354E0
1.781134093E1,-2.491526604E-1,1.165693474E1,-1.483550072E-1
1.782800687E1,-3.308675528E0,1.118405342E1,2.878864765E0
1.784467281E1,-5.017449856E0,1.202154064E1,5.464907646E0
1.786133875E1,-5.163412094E0,1.360798264E1,6.044270039E0
1.787800468E1,-4.335196495E0,1.484058475E1,4.934000492E0
1.789467062E1,-2.865704298E0,1.576720524E1,4.853242397E0
1.791133656E1,-2.312962294E0,1.524287891E1,7.806882858E0
1.792800250E1,-2.400300264E0,1.280638695E1,1.297657585E1
1.794466843E1,-1.619342685E0,1.024397278E1,1.754058647E1
1.796133437E1,1.030409217E0,9.372686386E0,1.656730652E1
1.797800031E1,5.969195366E0,1.108175945E1,1.197398376E1
1.799466625E1,1.436381531E1,1.362652683E1,9.033503532E0
1.801133218E1,2.068864441E1,1.847049713E1,9.880862236E0
1.802799812E1,2.999313545E1,2.171606255E1,1.333938789E1
1.804466406E1,3.949652863E1,1.919941139E1,1.391635704E1
1.806133000E1,4.150739670E1,1.370519066E1,1.468804264E1
1.807799593E1,3.697090530E1,5.487938881E0,1.427557945E1
1.809466187E1,2.892623520E1,-1.677368641E0,1.152652550E1
1.811132781E1,2.088216400E1,-6.913163662E0,7.404589653E0
1.812799375E1,1.521147251E1,-1.104497051E1,3.580260992E0
1.814465968E1,1.043450165E1,-1.541366577E1,2.105683982E-1
1.816132562E1,5.552245617E0,-1.843041801E1,-2.898007393E0
1.817799156E1,1.280758262E0,-1.912224197E1,-5.806184292E0
1.819465750E1,-1.662413478E0,-1.936242104E1,-8.301898003E0
1.821132343E1,-4.114458561E0,-1.836341858E1,-1.064148045E1
1.822798937E1,-5.265705109E0,-1.738265991E1,-1.186211872E1
1.824465531E1,-4.491028786E0,-1.667737579E1,-1.133868885E1
1.826132125E1,-2.025524378E0,-1.633550072E1,-9.208179474E0
1.827798718E1,1.422832131E0,-1.561795330E1,-6.173482418E0
1.829465312E1,5.609673500E0,-1.503260899E1,-3.565604925E0
1.831131906E1,9.036793709E0,-1.379372501E1,-1.581356645E0
1.832798500E1,1.229342556E1,-1.209900856E1,-1.312164068E0
1.834465093E1,1.767877197E1,-9.963414192E0,-3.690928817E-1
1.836131687E1,2.469452858E1,-4.775176525E0,2.930609465E0
1.837798281E1,3.891716766E1,5.571986675E0,9.069695473E0
1.839464875E1,6.291239166E1,1.251087284E1,1.407667637E1
1.841131468E1,6.720481873E1,1.645992851E1,2.056152534E1
1.842798062E1,4.406562424E1,1.585962868E1,2.723929405E1
1.844464656E1,2.059681892E1,1.493300819E1,2.345983124E1
1.846131250E1,1.008514881E1,1.400399494E1,1.082692432E1
1.847797843E1,7.571488857E0,1.367228985E1,1.464108348E0
1.849464437E1,5.539085388E0,1.239033508E1,-1.401595831E0
1.851131031E1,2.359323025E0,1.032024384E1,9.502496719E-1
1.852797625E1,4.040879309E-1,9.026025772E0,4.341477394E0
1.854464218E1,-6.448656917E-1,9.191130638E0,5.481657505E0
1.856130812E1,-1.425225019E0,1.025922680E1,4.427320004E0
1.857797406E1,-1.742872238E0,1.220698452E1,2.046162367E0
1.859464000E1,-1.380359530E0,1.387119293E1,-2.054836452E-1
1.861130593E1,-1.669292927E0,1.468116379E1,-1.748256087E0
1.862797187E1,-5.396712303E0,1.536461353E1,-3.452843189E0
1.864463781E1,-1.112812042E1,1.819382668E1,-6.576673031E0
1.866130375E1,-9.061320305E0,2.205255318E1,-1.199671555E1
1.867796968E1,2.828615427E0,2.220569229E1,-1.393220997E1
1.869463562E1,1.384247875E1,1.919402695E1,-4.000500202E0
1.871130156E1,1.711496353E1,1.991665840E1,1.057777119E1
1.872796750E1,2.263879395E1,2.446421814E1,2.080020905E1
1.874463343E1,3.790979004E1,2.308056831E1,1.399711514E1
1.876129937E1,4.692564392E1,2.083520317E1,-1.364806175E0
1.877796531E1,4.739702988E1,1.558624840E1,-1.529581928E1
1.879463125E1,3.796392441E1,8.491529465E0,-1.683440399E1
1.881129718E1,2.580031013E1,-1.396810263E-1,-7.065407276E0
1.882796312E1,1.666900063E1,-7.417151928E0,2.613560438E0
1.884462906E1,1.160548878E1,-1.295713425E1,8.777172089E0
1.886129500E1,8.829216003E0,-1.645544052E1,8.714659691E0
1.887796093E1,7.334001541E0,-1.863769531E1,2.575275421E0
1.889462687E1,5.286044121E0,-2.012124634E1,-4.057030678E0
1.891129281E1,5.527420044E-1,-2.036112595E1,-6.897610188E0
1.892795875E1,-4.632504463E0,-1.996391678E1,-6.286244392E0
1.894462468E1,-8.140382767E0,-2.001416588E1,-3.463909864E0
1.896129062E1,-9.808777809E0,-1.956042862E1,-1.141376376E0
1.897795656E1,-8.235497475E0,-1.868644905E1,-1.444666624E0
1.899462250E1,-3.814757586E0,-1.754507256E1,-3.320041418E0
1.901128843E1,2.487339020E0,-1.611805344E1,-4.888237476E0
1.902795437E1,9.944570541E0,-1.529282856E1,-8.126026154E0
1.904462031E1,1.595952892E1,-1.505833244E1,-1.045005512E1
1.906128625E1,2.204327965E1,-9.046664238E0,-7.034001350E0
1.907795218E1,4.025983810E1,2.183151484E0,2.854936600E0
1.909461812E1,6.725865173E1,1.093250751E1,1.289043427E1
1.911128406E1,7.394360352E1,1.668485260E1,1.425883007E1
1.912795000E1,5.009643555E1,1.961875343E1,1.444188118E1
1.914461593E1,2.410350037E1,1.908036804E1,8.384450912E0
1.916128187E1,1.248903847E1,1.637229156E1,1.487737536E0
1.917794781E1,8.948259354E0,1.335404396E1,-9.930214286E-2
1.919461375E1,5.264209747E0,1.162493038E1,1.912164450E0
1.921127968E1,3.527618885E0,1.124626637E1,4.816751957E0
1.922794562E1,2.887538671E0,1.225753307E1,4.796711922E0
1.924461156E1,1.611566067E0,1.405484200E1,2.473281384E0
1.926127750E1,-6.580262184E-1,1.588265896E1,-1.701895148E-1
1.927794343E1,-3.617947817E0,1.715833282E1,-2.155634165E0
1.929460937E1,-6.405287266E0,1.820788574E1,-2.676671267E0
1.931127531E1,-7.461120129E0,1.844028854E1,-1.379163146E0
1.932794125E1,-7.430312634E0,1.726361656E1,7.232306600E-1
1.934460718E1,-7.238886833E0,1.500299835E1,4.182952881E0
1.936127312E1,-6.650252342E0,1.276511097E1,7.601399422E0
1.937793906E1,-3.498605728E0,1.103868866E1,9.342476845E0
1.939460500E1,1.257129192E0,1.124566841E1,9.574281693E0
1.941127093E1,6.297610283E0,1.463450336E1,1.020538902E1
1.942793687E1,1.759502220E1,1.932383728E1,1.113410282E1
1.944460281E1,3.701696777E1,2.253530502E1,1.062443161E1
1.946126875E1,5.408915710E1,2.531008148E1,6.492026806E0
1.947793468E1,6.209703827E1,2.106760788E1,4.791028976E0
1.949460062E1,5.608477020E1,1.209541893E1,9.871589661E0
1.951126656E1,4.258715820E1,3.404388428E0,1.471256924E1
1.952793250E1,2.976162910E1,-3.276073217E0,1.450529099E1
1.954459843E1,2.022234154E1,-5.743671417E0,1.155494022E1
1.956126437E1,1.686969948E1,-7.151548862E0,7.713562965E0
1.957793031E1,1.455793285E1,-7.569395542E0,3.568595886E0
1.959459625E1,1.162642574E1,-7.034300327E0,-1.926222295E-1
1.961126218E1,9.594920158E0,-6.342774391E0,-1.819442511E0
1.962792812E1,8.320741653E0,-6.158826351E0,-2.388934374E0
1.964459406E1,6.643373013E0,-6.208477497E0,-2.240878344E0
1.966126000E1,4.606482506E0,-6.392425537E0,-1.628614902E0
1.967792593E1,2.998805046E0,-6.775576591E0,-5.476573110E-1
1.969459187E1,2.393420935E0,-7.486244678E0,-4.280161560E-1
1.971125781E1,2.593819857E0,-7.680063248E0,-1.508076429E0
1.972792375E1,3.538984776E0,-7.313363075E0,-2.823231697E0
1.974458968E1,4.058825493E0,-6.454638958E0,-4.891527653E0
1.976125562E1,4.277469635E0,-6.252744675E0,-5.497509956E0
1.977792156E1,4.337589264E0,-7.314260483E0,-5.296213627E0
1.979458750E1,3.801896095E0,-8.676673889E0,-4.900799751E0
1.981125343E1,2.452942371E0,-1.010638523E1,-4.534996986E0
1.982791937E1,-3.825525343E-1,-1.039382362E1,-3.403491020E0
1.984458531E1,-2.917150021E0,-1.021466064E1,-7.971090674E-1
1.986125125E1,-3.325126171E0,-1.012821960E1,3.227020502E0
1.987791718E1,1.210469127E0,-8.816953659E0,7.080362320E0
1.989458312E1,1.402672672E1,-4.763511658E0,8.846564293E0
1.991124906E1,3.091407204E1,-1.022034407E0,8.283653259E0
1.992791500E1,3.566083527E1,6.180660725E0,5.919843197E0
1.994458093E1,2.961327362E1,1.263709450E1,1.889731646E0
1.996124687E1,2.316371918E1,1.543639755E1,-5.970092416E-1
1.997791281E1,1.963550186E1,1.576451397E1,-3.888336718E-1
1.999457875E1,1.938395691E1,1.563948917E1,1.105783105E0
2.001124468E1,1.970310020E1,1.612134361E1,3.253939629E0
2.002791062E1,1.851626015E1,1.627119446E1,3.895216227E0
2.004457656E1,1.494467258E1,1.611177254E1,2.150549412E0
2.006124250E1,9.695717812E0,1.559432411E1,2.653042078E-1
2.007790843E1,5.340480804E0,1.483340645E1,2.557329237E-1
2.009457437E1,3.575774431E0,1.382034492E1,1.698604941E0
2.011124031E1,3.164208889E0,1.251027489E1,2.275574446E0
2.012790625E1,2.311466694E0,1.130040359E1,1.365703583E0
2.014457218E1,1.252044439E0,1.051196861E1,-1.253240854E-1
2.016123812E1,6.586244106E-1,1.020538902E1,-1.871187329E0
2.017790406E1,1.718345761E0,1.018116093E1,-2.753839731E0
2.019457000E1,3.262912750E0,1.094596672E1,-2.242672920E0
2.021123593E1,5.903990746E0,1.325234890E1,-2.368894368E-1
2.022790187E1,9.324830055E0,1.728395653E1,1.658226132E0
2.024456781E1,1.398335648E1,2.160419655E1,3.751347780E0
2.026123375E1,2.446661186E1,2.200559425E1,2.579163790E0
2.027789968E1,3.521546936E1,2.000220299E1,-6.526423693E-1
2.029456562E1,3.966372681E1,1.529462337E1,6.077769399E-1
2.031123156E1,3.397957611E1,9.386744499E0,6.782754898E0
2.032789750E1,2.464218521E1,5.170889854E0,1.286770248E1
2.034456343E1,1.879113579E1,2.545963287E0,1.288206005E1
2.036122937E1,1.618445396E1,8.898309469E-1,8.039585114E0
2.037789531E1,1.438206005E1,6.699903309E-2,2.630310297E0
2.039456125E1,1.247019482E1,-4.307080805E-1,-7.190431952E-1
2.041122718E1,1.108265686E1,-8.276175261E-1,-1.998605132E0
2.042789312E1,1.048654556E1,-1.633400559E0,-2.211865425E0
2.044455906E1,1.074766159E1,-3.152543783E0,-2.586641312E0
2.046122500E1,1.046441174E1,-5.262415409E0,-3.334099293E0
2.047789093E1,8.223533630E0,-5.276772022E0,-2.811267614E0
2.049455687E1,5.875576019E0,-4.482953072E0,-2.489732027E0
2.051122281E1,4.488337040E0,-3.755834341E0,-2.210968018E0
2.052788875E1,4.570889473E0,-3.739981890E0,-1.320538998E0
2.054455468E1,4.575973988E0,-3.961616993E0,-6.290132403E-1
2.056122062E1,3.796213150E0,-3.957130432E0,1.740778536E-1
2.057788656E1,1.997109652E0,-3.589533091E0,-3.358924687E-1
2.059455250E1,-5.892325938E-2,-3.051147938E0,-1.678864241E0
2.061121843E1,-2.035992861E0,-2.212762833E0,-2.453839540E0
2.062788437E1,-2.943770170E0,-1.532303810E0,-2.250150681E0
2.064455031E1,-2.783151865E0,-9.134600163E-1,-1.477268934E0
2.066121625E1,-2.215753794E0,-6.251249462E-2,3.858426511E-1
2.067788218E1,-2.493321180E0,1.544866085E0,2.041376829E0
2.069454812E1,-1.420140266E0,3.798007727E0,4.677370071E0
2.071121406E1,3.206681490E0,5.859723568E0,5.594419479E0
2.072788000E1,1.091127110E1,7.005287170E0,6.181857109E0
2.074454593E1,1.721516228E1,9.734301567E0,8.133802414E0
2.076121187E1,1.965464592E1,1.300439262E1,9.316155434E0
2.077787781E1,1.866371727E1,1.539811325E1,9.661021233E0
2.079454375E1,1.564846230E1,1.679163361E1,9.599705696E0
2.081120968E1,1.146491051E1,1.714547157E1,8.618648529E0
2.082787562E1,8.026124954E0,1.581924915E1,6.489634037E0
2.084454156E1,5.842973709E0,1.386281776E1,4.621438026E0
2.086120750E1,4.432105541E0,1.212503052E1,3.603590965E0
2.087787343E1,3.426821232E0,1.102163982E1,2.758625507E0
2.089453937E1,2.708974361E0,1.024576759E1,1.823629975E0
2.091120531E1,2.075175524E0,9.591031075E0,9.684949517E-1
2.092787125E1,1.569392562E0,8.953044891E0,4.516452849E-1
2.094453718E1,1.719841242E0,8.551948547E0,3.643072546E-1
2.096120312E1,2.408974171E0,8.348558426E0,1.015753269E0
2.097786906E1,3.151048422E0,8.437391281E0,2.048256159E0
2.099453500E1,3.863212109E0,9.476474762E0,3.607479334E0
2.101120093E1,4.668396950E0,1.028764153E1,5.756832123E0
2.102786687E1,5.716453075E0,1.098215866E1,8.729017258E0
2.104453281E1,7.108478069E0,1.093998528E1,1.039292622E1
2.106119875E1,8.523832321E0,1.046919727E1,1.062473106E1
2.107786468E1,9.485447884E0,9.729516029E0,1.003789139E1
2.109453062E1,9.611669540E0,8.685647011E0,9.086744308E0
2.111119656E1,9.108578682E0,7.519444942E0,8.273483276E0
2.112786250E1,8.611469269E0,6.457929134E0,7.954041481E0
2.114452843E1,7.524828911E0,6.036493301E0,6.934699059E0
2.116119437E1,6.796214581E0,5.026124001E0,5.439185143E0
2.117786031E1,6.400501251E0,4.282853603E0,4.214059830E0
2.119452625E1,4.975276470E0,3.885644913E0,2.975774050E0
2.121119218E1,5.582156181E0,3.826721668E0,3.855734587E0
2.122785812E1,6.515357018E0,3.053839922E0,5.532206059E0
2.124452406E1,6.804888725E0,2.563012123E0,6.136991978E0
2.126119000E1,5.973681927E0,1.956431627E0,5.546263695E0
2.127785593E1,4.151247978E0,1.669292927E0,5.547161102E0
2.129452187E1,2.816950560E0,1.922034740E0,5.530112267E0
2.131118781E1,2.275275230E0,2.106880426E0,5.845067501E0
2.132785375E1,2.391626120E0,2.129312992E0,5.650052547E0
2.134451968E1,2.825026274E0,2.259123564E0,6.325127602E0
2.136118562E1,2.360818624E0,2.184048891E0,7.332805157E0
2.137785156E1,1.800599098E0,1.687239051E0,7.783553123E0
2.139451750E1,1.857129455E0,1.282552958E0,8.032406807E0
2.141118343E1,2.333600283E0,1.188335538E0,8.033902168E0
2.142784937E1,2.389233351E0,1.354636669E0,8.220243454E0
2.144451531E1,1.712662816E0,2.391626120E0,9.074481010E0
2.146118125E1,6.619145870E-1,2.939582586E0,8.971888542E0
2.147784718E1,4.208376706E-1,2.863012314E0,9.468698502E0
2.149451312E1,1.004985452E0,1.898704767E0,1.172273731E1
2.151117906E1,8.449655175E-1,1.576570988E0,1.125673485E1
2.152784500E1,9.837492108E-1,1.493719578E0,1.106022453E1
2.154451093E1,1.029212832E0,2.297109663E-1,1.204726410E1
2.156117687E1,1.525424480E0,-9.786644578E-1,1.146999550E1
2.157784281E1,2.035095692E0,-7.486543655E-1,1.164437199E1
2.159450875E1,7.537391186E-1,1.090229869E0,1.178524971E1
2.161117468E1,5.210371017E-1,1.392921925E0,1.032144070E1
2.162784062E1,2.398804665E0,7.070791125E-1,1.079791164E1
2.164450656E1,1.254736423E0,1.018445134E0,1.059123135E1
2.166117250E1,1.468594968E-1,1.194317579E0,9.819545746E0
2.167783843E1,-2.234298140E-1,9.284151793E-1,9.368798256E0
2.169450437E1,-3.355933726E-1,1.183250785E0,9.670592308E0
2.171117031E1,-2.709871531E-1,1.602592945E0,9.908977509E0
2.172783625E1,3.714857101E-1,1.629811287E0,9.795019150E0
2.174450218E1,1.406979680E0,1.307677627E0,1.025623608E1
2.176116812E1,2.420639277E0,1.118644595E0,1.077876854E1
2.177783406E1,2.867797852E0,1.527817249E0,1.061037350E1
2.179450000E1,3.126521826E0,1.348654628E0,9.774979591E0
2.181116593E1,2.092822552E0,2.721536636E0,8.371888161E0
2.182783187E1,2.207378864E0,2.212762833E0,9.145667076E0
2.184449781E1,1.879263043E0,2.516651154E0,9.225827217E0
2.186116375E1,1.556830287E0,2.829811811E0,9.424132347E0
2.187782968E1,1.335494161E0,2.864208698E0,9.129815102E0
2.189449562E1,9.930213690E-1,2.892025232E0,8.794221878E0
2.191116156E1,8.557332158E-1,2.752045155E0,8.702097893E0
2.192782750E1,6.248258352E-1,2.909074068E0,8.297112465E0
2.194449343E1,5.072783828E-1,2.827120066E0,8.115556717E0
2.196115937E1,9.236295223E-1,2.548356056E0,8.722436905E0
2.197782531E1,1.808674812E0,2.545065880E0,9.424730301E0
2.199449125E1,2.236989975E0,2.656631231E0,9.818947792E0
2.201115718E1,2.118246317E0,2.598306179E0,9.893125534E0
2.202782312E1,1.919342875E0,2.653640270E0,9.715457916E0
2.204448906E1,1.697109461E0,2.821436882E0,9.678070068E0
2.206115500E1,1.612164259E0,2.901596546E0,9.631410599E0
2.207782093E1,2.038684845E0,2.660818815E0,9.688538551E0
2.209448687E1,2.766701221E0,2.064407825E0,1.017488003E1
2.211115281E1,3.054438114E0,1.727917075E0,1.064985561E1
2.212781875E1,2.848954439E0,1.486541033E0,1.135663509E1
2.214448468E1,2.586641312E0,1.384546995E0,1.169372463E1
2.216115062E1,2.614457846E0,1.558325768E0,1.140299606E1
2.217781656E1,2.959024191E0,1.534397483E0,1.107637596E1
2.219448250E1,3.469592810E0,1.479960799E0,1.059511948E1
2.221114843E1,3.853042603E0,1.410269856E0,1.008126068E1
2.222781437E1,3.836591959E0,1.351645708E0,9.581759453E0
2.224448031E1,3.495315790E0,1.223330617E0,9.095417976E0
2.226114625E1,3.071187973E0,1.121037364E0,8.582456589E0
2.227781218E1,2.887837887E0,1.192822099E0,8.109575272E0
2.229447812E1,2.938984394E0,1.358225942E0,7.953742504E0
2.231114406E1,3.014358282E0,1.435693622E0,8.175377846E0
2.232781000E1,3.037090063E0,1.508076429E0,8.640781403E0
2.234447593E1,2.741576433E0,1.520040631E0,9.067003250E0
2.236114187E1,2.540878534E0,1.551147223E0,9.147761345E0
2.237780781E1,2.472084999E0,1.659123421E0,9.083454132E0
2.239447375E1,2.461616278E0,1.787438512E0,9.069993973E0
2.241113968E1,2.556730986E0,1.851446509E0,8.726325035E0
2.242780562E1,2.572583437E0,1.885245085E0,8.661419868E0
2.244447156E1,2.522633314E0,1.925923109E0,8.621639252E0
2.246113750E1,2.465803623E0,2.040778637E0,8.395517349E0
2.247780343E1,2.556730986E0,2.180459738E0,8.208278656E0
2.249446937E1,2.718545675E0,2.274677038E0,7.953144073E0
2.251113531E1,2.937788010E0,2.297708035E0,7.304390430E0
2.252780125E1,2.837588549E0,2.396710873E0,8.008478165E0
2.254446718E1,2.638087034E0,2.303390980E0,8.717052460E0
2.256113312E1,2.630908489E0,2.168794632E0,9.139386177E0
2.257779906E1,2.694617510E0,2.162214279E0,9.024530411E0
2.259446500E1,2.615654230E0,2.358425856E0,8.944371223E0
