"Time (s)","Gyroscope x (rad/s)","Gyroscope y (rad/s)","Gyroscope z (rad/s)"
3.989741400E-2,-2.157650709E0,4.243983030E-1,-8.930079341E-1
5.656335100E-2,-1.096655011E0,2.803869247E-1,-5.593994260E-1
7.322928900E-2,1.290451828E-2,1.277471036E-1,-3.588830531E-1
8.989522600E-2,3.028362095E-1,-3.087921441E-1,-4.276053514E-3
1.065611640E-1,1.248454899E-1,-4.324159026E-1,2.009745091E-1
1.232271010E-1,-2.396880686E-1,-4.485274553E-1,6.414080411E-2
1.398930390E-1,-5.985711217E-1,-3.416261375E-1,-2.039524764E-1
1.565589760E-1,-7.397572398E-1,-1.456912458E-1,-3.371210098E-1
1.732249140E-1,-4.855611324E-1,-6.574432552E-2,-3.028362095E-1
1.898908510E-1,-3.718639165E-2,-3.932442144E-2,-1.101847365E-1
2.065567890E-1,2.533561587E-1,-5.093085021E-2,1.222493127E-1
2.232227260E-1,2.438877672E-1,-1.116355360E-1,1.272889525E-1
2.398886640E-1,4.749473557E-2,-8.116865903E-2,-5.597048625E-2
2.565546010E-1,-1.529452652E-1,1.756236190E-3,-1.915824711E-1
2.732205390E-1,-1.971566081E-1,5.879573524E-2,-1.570686102E-1
2.898864760E-1,-1.163697392E-1,5.192350596E-2,-2.787070535E-2
3.065524140E-1,-2.695440874E-2,1.359174121E-2,5.123628303E-2
3.232183510E-1,-3.588830587E-3,-8.330668509E-2,5.658135191E-2
3.398842890E-1,-7.185296714E-2,-1.792888194E-1,2.664897591E-2
3.565502260E-1,-2.178496569E-1,-2.032652497E-1,-3.252854943E-2
3.732161640E-1,-3.373500705E-1,-1.908188909E-1,-9.369138628E-2
3.898821010E-1,-4.034761786E-1,-2.009745091E-1,-1.081230640E-1
4.065480390E-1,-4.421133697E-1,-2.751945853E-1,-6.750056148E-2
4.232139760E-1,-4.862483740E-1,-3.901135325E-1,-2.916879393E-2
4.398799140E-1,-6.575195789E-1,-4.997637570E-1,-6.062832847E-2
4.565458510E-1,-9.245438576E-1,-6.495019794E-1,-1.232419685E-1
4.732117890E-1,-1.149265766E0,-7.594576478E-1,-2.362519503E-1
4.898777260E-1,-1.218980670E0,-9.860884547E-1,-2.722166181E-1
5.065436640E-1,-1.147891283E0,-9.730312228E-1,-2.413679510E-1
5.232096010E-1,-9.976185560E-1,-9.254601598E-1,-1.534034163E-1
5.398755390E-1,-9.178243279E-1,-8.143591285E-1,-8.261945844E-2
5.565414760E-1,-9.869284034E-1,-7.049379349E-1,-6.101011857E-2
5.732074140E-1,-1.180801630E0,-6.879100800E-1,-1.053741723E-1
5.898733510E-1,-1.363297462E0,-8.375719786E-1,-2.287688553E-1
6.065392890E-1,-1.434539557E0,-1.208901405E0,-2.318231910E-1
6.232052260E-1,-1.525023937E0,-1.461723089E0,-1.156825200E-1
6.398711640E-1,-1.552131057E0,-1.609552383E0,6.490438245E-3
6.565371010E-1,-1.491655469E0,-1.539150119E0,7.857248187E-2
6.732030390E-1,-1.400789261E0,-1.328325510E0,8.185587823E-2
6.898689760E-1,-1.317788005E0,-1.096120477E0,-7.254019380E-3
7.065349140E-1,-1.259374142E0,-1.034346819E0,-4.474584386E-2
7.232008510E-1,-1.231045246E0,-1.131016135E0,4.466948658E-2
7.398667890E-1,-1.210734010E0,-1.211802959E0,1.814268380E-1
7.565327260E-1,-1.163239241E0,-1.196913123E0,3.057378232E-1
7.731986640E-1,-1.101770997E0,-1.008461356E0,3.484219909E-1
7.898646010E-1,-1.086193919E0,-6.225475669E-1,3.003927469E-1
8.065305390E-1,-1.151021957E0,-2.678641975E-1,2.777144015E-1
8.231964760E-1,-1.298240423E0,-2.764163017E-1,3.589594066E-1
8.398624140E-1,-1.450269341E0,-6.411026120E-1,4.423424602E-1
8.565283510E-1,-1.493717074E0,-1.080772519E0,4.331794977E-1
8.731942890E-1,-1.381776094E0,-1.270675063E0,3.759109080E-1
8.898602260E-1,-1.171944022E0,-9.941824079E-1,1.876882017E-1
9.065261640E-1,-9.870811105E-1,-4.540252388E-1,-1.254563481E-1
9.231921010E-1,-9.792162180E-1,-5.795579776E-2,-3.715584874E-1
9.398580390E-1,-1.041906238E0,-9.644027799E-2,-3.549124300E-1
9.565239760E-1,-9.366084337E-1,-4.269181192E-1,-8.941533417E-2
9.731899140E-1,-4.704422355E-1,-7.708349824E-1,3.158170879E-1
9.898558510E-1,3.061196208E-1,-9.182060957E-1,6.174315810E-1
1.006521789E0,9.888373613E-1,-5.816959739E-1,7.050142884E-1
1.023187726E0,1.374674797E0,3.665188700E-2,5.972730517E-1
1.039853664E0,1.555948973E0,5.319104791E-1,4.938841760E-1
1.056519601E0,1.616195440E0,7.165443897E-1,5.549706817E-1
1.073185539E0,1.549763918E0,9.317215085E-1,7.013491392E-1
1.089851476E0,1.390557289E0,1.072220445E0,8.063415289E-1
1.106517414E0,1.127121925E0,8.173370957E-1,8.074105382E-1
1.123183351E0,8.597921729E-1,-7.345648855E-2,8.856775761E-1
1.139849289E0,6.719512343E-1,-1.232343316E0,1.274874806E0
1.156515226E0,5.267181396E-1,-1.816024661E0,1.543578982E0
1.173181164E0,3.552942276E-1,-1.340237379E0,1.101847291E0
1.189847101E0,2.474002354E-2,-9.082031846E-1,2.914588451E-1
1.206513039E0,-2.544251680E-1,-2.241110206E-1,-3.649916872E-2
1.223178976E0,-3.565159440E-1,4.085158110E-1,-1.285870373E-1
1.239844914E0,-1.275943816E-1,6.464476585E-1,-1.073594838E-1
1.256510851E0,1.605810821E-1,4.901426136E-1,-1.321758628E-1
1.273176789E0,3.474293351E-1,4.153880477E-2,-1.265253723E-1
1.289842726E0,4.366155863E-1,-4.883863926E-1,-7.078395784E-2
1.306508664E0,5.031235218E-1,-6.667588949E-1,4.657844082E-3
1.323174601E0,6.059014797E-1,-4.407389462E-1,6.566796452E-2
1.339840539E0,5.822305083E-1,6.078104675E-2,1.035415828E-1
1.356506476E0,4.631118476E-1,3.120755553E-1,1.512653977E-1
1.373172414E0,5.358047485E-1,3.560578227E-1,1.427896470E-1
1.389838351E0,5.480984449E-1,1.601229310E-1,1.144607887E-1
1.406504289E0,4.369210303E-1,-2.206749097E-2,6.414080039E-3
1.423170226E0,4.154644012E-1,-2.327394783E-1,8.857538924E-3
1.439836164E0,5.358047485E-1,-3.720930219E-1,1.289688200E-1
1.456502101E0,5.793288946E-1,-3.427715003E-1,1.794415265E-1
1.473168039E0,4.759400189E-1,-1.774562150E-1,1.963930279E-1
1.489833976E0,3.029889166E-1,8.857538924E-3,1.690568328E-1
1.506499914E0,2.725984156E-1,1.513417512E-1,1.524107605E-1
1.523165851E0,3.714821339E-1,3.121519089E-1,1.188895553E-1
1.539831789E0,4.274526238E-1,3.738492429E-1,9.995274991E-2
1.556497726E0,4.152353406E-1,1.813504845E-1,1.630245447E-1
1.573163664E0,3.814850450E-1,-1.275180280E-1,2.116646469E-1
1.589829601E0,3.481165767E-1,-2.229656428E-1,2.294560820E-1
1.606495539E0,2.710712552E-1,-7.399099320E-2,2.120464295E-1
1.623161476E0,1.421787739E-1,1.475238502E-1,1.906661689E-1
1.639827414E0,9.598212689E-2,2.756527364E-1,1.404989064E-1
1.656493351E0,2.170097083E-1,3.838521540E-1,1.321758628E-1
1.673159289E0,3.659079969E-1,2.884045243E-1,1.091920808E-1
1.689825226E0,5.503891706E-1,5.077813566E-2,7.681624591E-2
1.706491164E0,6.366738081E-1,-1.773798615E-1,9.827287495E-2
1.723157101E0,6.057487726E-1,-2.899316847E-1,1.847866029E-1
1.739823039E0,4.574613571E-1,-1.818086356E-1,1.771507859E-1
1.756488976E0,2.999345958E-1,5.574141070E-2,1.792124510E-1
1.773154914E0,1.822667718E-1,2.680932879E-1,1.618028134E-1
1.789820851E0,7.582359016E-2,3.058905303E-1,9.705114365E-2
1.806486789E0,3.023780696E-2,1.750127524E-1,1.634063199E-2
1.823152726E0,1.599702090E-1,2.138026757E-3,-3.084867075E-2
1.839818664E0,4.087449014E-1,-8.582650125E-2,-1.733328775E-2
1.856484601E0,5.803215504E-1,-4.550942779E-2,5.192350596E-2
1.873150539E0,5.406916738E-1,-1.753181964E-1,1.133917719E-1
1.889816476E0,5.529853702E-1,-3.570504785E-1,1.888335794E-1
1.906482414E0,7.285326123E-1,-3.859901726E-1,2.481638193E-1
1.923148351E0,7.647263408E-1,-1.974620372E-1,1.521053314E-1
1.939814289E0,5.907062292E-1,-2.115119249E-2,2.222020552E-2
1.956480226E0,4.858665764E-1,-2.086103261E-1,-4.535670951E-2
1.973146164E0,6.308705807E-1,-5.022835732E-1,-8.185587823E-2
1.989812101E0,7.010436654E-1,-6.815723777E-1,-1.072831303E-1
2.006478039E0,5.218312144E-1,-6.963095069E-1,-9.521854669E-2
2.023143976E0,2.392299175E-1,-5.868119597E-1,-8.414662629E-2
2.039809914E0,1.019380614E-1,-3.631591201E-1,-1.155297980E-1
2.056475851E0,1.520289779E-1,-3.756818548E-2,-1.449276656E-1
2.073141789E0,1.103374511E-1,2.099084109E-1,-2.409097999E-1
2.089807726E0,-1.435532235E-2,2.800051570E-1,-3.100902438E-1
2.106473664E0,-2.764163166E-2,1.668424457E-1,-3.799578846E-1
2.123139601E0,9.216422588E-2,1.063668281E-1,-4.740310609E-1
2.139805539E0,2.015853822E-1,1.470656991E-1,-4.977784455E-1
2.156471476E0,2.692386508E-1,-2.206749097E-2,-4.002691507E-1
2.173137414E0,3.303251266E-1,-3.417024910E-1,-2.822958827E-1
2.189803351E0,2.780961990E-1,-3.447568119E-1,-2.046397030E-1
2.206469289E0,1.403461844E-1,-1.148425788E-1,-2.283870727E-1
2.223135226E0,9.201150388E-2,9.445496649E-2,-2.534325123E-1
2.239801164E0,1.929569095E-1,7.536543906E-2,-2.296851575E-1
2.256467101E0,3.300196826E-1,-2.642753720E-1,-1.477529258E-1
2.273133039E0,4.384481907E-1,-5.841394663E-1,2.153298259E-2
2.289798976E0,4.990765154E-1,-6.323977709E-1,2.104429156E-1
2.306464914E0,4.541779757E-1,-5.853611827E-1,1.756236255E-1
2.323130851E0,4.110356271E-1,-6.629409790E-1,-5.054906011E-2
2.339796789E0,4.122573733E-1,-6.622537971E-1,-3.016908467E-1
2.356462726E0,3.860665262E-1,-5.351939201E-1,-5.539780259E-1
2.373128664E0,4.172970057E-1,-3.342957497E-1,-5.209913254E-1
2.389794601E0,5.627591610E-1,-1.806632578E-1,-4.240928590E-1
2.406460539E0,6.837867498E-1,-2.144135386E-1,-3.872882724E-1
2.423126476E0,6.792816520E-1,-6.395754218E-1,-4.800633490E-1
2.439792414E0,7.271581888E-1,-1.511355877E0,-8.724676371E-1
2.456458351E0,7.647263408E-1,-1.825340271E0,-1.305112600E0
2.473124289E0,7.970257998E-1,-1.581452608E0,-1.557552457E0
2.489790226E0,8.774309158E-1,-1.383837819E0,-1.489593744E0
2.506456164E0,1.103909016E0,-1.303814530E0,-1.112079382E0
2.523122101E0,1.333212376E0,-1.330005288E0,-6.009382010E-1
2.539788039E0,1.093982458E0,-1.121471405E0,-6.543888897E-2
2.556453976E0,7.516691089E-1,-9.799034595E-1,3.699549735E-1
2.573119914E0,2.776380479E-1,-1.018617004E-1,5.492438078E-1
2.589785851E0,-4.526508152E-1,4.311178327E-1,6.185769439E-1
2.606451789E0,-9.975422025E-1,1.074663877E0,6.236929297E-1
2.623117726E0,-1.254029036E0,8.988875151E-1,8.011491299E-1
2.639783664E0,-1.247385859E0,8.584177494E-1,8.789580464E-1
2.656449601E0,-7.007382512E-1,5.686387420E-1,7.568614483E-1
2.673115539E0,-4.240165055E-1,-4.917461425E-2,2.527453005E-2
2.689781476E0,5.787943676E-2,-3.696495593E-1,3.481929377E-2
2.706447414E0,2.620609999E-1,2.703076601E-2,7.246383280E-2
2.723113351E0,-7.162389904E-2,5.321395993E-1,8.468113095E-2
2.739779289E0,-2.153298408E-1,6.289616227E-1,1.563050300E-1
2.756445226E0,-8.078686893E-2,4.477638900E-1,2.215148360E-1
2.773111164E0,2.579376400E-1,-6.528617442E-2,2.476293147E-1
2.789777101E0,5.517635942E-1,-4.299724400E-1,1.876882017E-1
2.806443039E0,6.627119184E-1,-4.921279252E-1,6.765327603E-2
2.823108976E0,6.104066372E-1,-3.698786199E-1,-1.672242396E-2
2.839774914E0,4.240165055E-1,-1.191186309E-1,1.572976820E-2
2.856440851E0,1.361464858E-1,1.252272725E-1,1.514181048E-1
2.873106789E0,-1.137735695E-2,1.677587330E-1,2.718348205E-1
2.889772726E0,4.382954910E-2,4.230238497E-2,2.935205400E-1
2.906438664E0,1.389717311E-1,-1.704312712E-1,2.138026655E-1
2.923104601E0,2.532798052E-1,-2.768744528E-1,1.526398361E-1
2.939770539E0,2.692386508E-1,-1.900553107E-1,2.337321341E-1
2.956436476E0,2.071595192E-1,-4.894553870E-2,4.075995386E-1
2.973102414E0,9.460768104E-2,-4.680751264E-2,4.993819594E-1
2.989768351E0,2.672533318E-2,-1.587484777E-1,3.595702946E-1
3.006434289E0,-3.451386094E-2,-1.682168841E-1,2.005163580E-1
3.023100226E0,-2.848157100E-2,-1.330921650E-1,1.244636998E-1
3.039766164E0,-1.114828233E-2,-6.475166976E-2,1.447749585E-1
3.056432101E0,-4.505127668E-2,-2.535088919E-2,2.139553875E-1
3.073098039E0,-1.743255407E-1,-7.864884101E-3,2.567159235E-1
3.089763976E0,-3.101665974E-1,-4.169152305E-2,2.654207349E-1
3.106429914E0,-3.539197743E-1,-6.849320978E-2,2.182314396E-1
3.123095851E0,-1.841757298E-1,6.459894776E-2,1.979965419E-1
3.139761789E0,4.505127668E-3,1.521816850E-1,2.370155305E-1
3.156427726E0,1.832594350E-2,6.513345987E-2,2.574031353E-1
3.173093664E0,-5.910116807E-2,-1.052978188E-1,2.895499170E-1
3.189759601E0,-1.282816082E-1,-1.286633909E-1,2.622137070E-1
3.206425539E0,-1.792888194E-1,1.267544460E-2,1.919642538E-1
3.223091476E0,-2.001345754E-1,1.814268380E-1,1.592066288E-1
3.239757414E0,-1.514944583E-1,3.452913165E-1,1.548542231E-1
3.256423351E0,-1.221729591E-1,4.206567705E-1,1.743255407E-1
3.273089289E0,-1.622609496E-1,3.984365463E-1,1.663842946E-1
3.289755226E0,-2.195295244E-1,3.100902438E-1,1.885281354E-1
3.306421164E0,-2.266308367E-1,2.283107042E-1,1.859319657E-1
3.323087101E0,-2.138790339E-1,9.666935354E-2,1.665370166E-1
3.339753039E0,-1.617264450E-1,-6.933315098E-2,1.659261435E-1
3.356418976E0,-6.017018110E-2,-1.362228394E-1,1.531743407E-1
3.373084914E0,1.351538301E-2,-6.742420048E-2,1.760054082E-1
3.389750851E0,1.153007243E-2,-1.588248461E-2,1.944077164E-1
3.406416789E0,-4.726566374E-2,7.017309219E-2,1.879936308E-1
3.423082726E0,-1.398880333E-1,1.859319657E-1,1.569922417E-1
3.439748664E0,-1.866191924E-1,2.454149276E-1,1.378263682E-1
3.456414601E0,-1.737146676E-1,1.979965419E-1,1.353829056E-1
3.473080539E0,-7.200568914E-2,5.864302069E-2,1.358410567E-1
3.489746476E0,1.519526169E-2,-7.521272451E-2,1.303432733E-1
3.506412414E0,2.382372692E-2,-9.598212689E-2,1.406516135E-1
3.523078351E0,2.443459118E-3,-6.520981342E-2,1.491273642E-1
3.539744289E0,-2.756527252E-2,-2.183841541E-2,1.488219351E-1
3.556410226E0,-5.513054505E-2,4.031707719E-2,1.210275814E-1
3.573076164E0,-8.307760954E-2,7.933606207E-2,8.460476995E-2
3.589742101E0,-1.076649204E-1,5.703949928E-2,5.589412898E-2
3.606408039E0,-3.252854943E-2,6.009382382E-2,-7.124210149E-2
3.623073976E0,4.543306679E-2,-1.266780794E-1,1.908952370E-2
3.639739914E0,1.921933293E-1,-3.216203153E-1,-2.962694131E-2
3.656405851E0,2.884045243E-1,-5.700895786E-1,-1.347720474E-1
3.673071789E0,2.366337478E-1,-7.454841137E-1,-2.857320011E-1
3.689737726E0,1.129336283E-1,-4.738020003E-1,-3.747655451E-1
3.706403664E0,7.506000996E-2,-3.754527569E-1,-3.623955250E-1
3.723069601E0,9.857830405E-2,-3.026835024E-1,-2.948949635E-1
3.739735539E0,1.707367003E-1,-2.906189263E-1,-3.132972717E-1
3.756401476E0,2.116646469E-1,-2.542724609E-1,-2.493855506E-1
3.773067414E0,1.922696829E-1,-2.610683441E-1,-1.259144992E-1
3.789733351E0,2.322813272E-1,-2.887099683E-1,-6.169734150E-2
3.806399289E0,2.685514390E-1,-3.097084463E-1,-4.550942779E-2
3.823065226E0,2.994000912E-1,-3.999637067E-1,-2.871064469E-2
3.839731164E0,3.070359230E-1,-4.647917449E-1,-1.733328775E-2
3.856397101E0,2.547306120E-1,-4.463894367E-1,-3.176496923E-2
3.873063039E0,2.005927265E-1,-4.671588540E-1,-6.062832847E-2
3.889728976E0,1.274416596E-1,-4.716639817E-1,-4.886918142E-2
3.906394914E0,1.802051067E-2,-4.382191300E-1,-2.817613818E-2
3.923060851E0,-1.404988952E-2,-3.660607338E-1,-2.596175298E-2
3.939726789E0,-2.748891478E-3,-2.958112657E-1,-3.558287397E-2
3.956392726E0,3.894262947E-3,-2.664897740E-1,-1.847865991E-2
3.973058664E0,7.024944760E-3,-2.580140233E-1,2.901607659E-3
3.989724601E0,3.436114406E-3,-1.553123742E-1,-1.824958436E-2
4.006390539E0,-3.054323979E-2,1.267544460E-2,-4.306596518E-2
4.023056476E0,-1.107956022E-1,1.070540547E-1,-1.099556591E-2
4.039722414E0,-1.706603467E-1,7.651081681E-2,4.718930274E-2
4.056388351E0,-1.561523080E-1,-2.199113183E-2,8.162680268E-2
4.073054289E0,-7.971785218E-2,-8.872810751E-2,9.117157012E-2
4.089720226E0,-1.450803876E-2,-1.103374511E-1,1.128572673E-1
4.106386164E0,-1.679878100E-3,-1.217148080E-1,1.537088454E-1
4.123052101E0,-1.908952370E-2,-1.364519149E-1,1.856265366E-1
4.139718039E0,-4.245510325E-2,-1.320231557E-1,2.092211843E-1
4.156383976E0,-8.697187155E-2,-1.033125073E-1,2.193768173E-1
4.173049914E0,-1.164461002E-1,-4.718930274E-2,2.000582218E-1
4.189715851E0,-1.440877318E-1,-1.099556591E-2,2.026543915E-1
4.206381789E0,-1.480583549E-1,-3.940077871E-2,2.274707705E-1
4.223047726E0,-1.114064679E-1,-6.994401664E-2,2.383136153E-1
4.239713664E0,-2.504545636E-2,-7.819069177E-2,2.235001475E-1
4.256379601E0,5.986474827E-2,-3.917170316E-2,2.114355713E-1
4.273045539E0,7.322741300E-2,-1.351538301E-2,2.164752036E-1
4.289711476E0,3.787361458E-2,-7.635809947E-3,2.246455252E-1
4.306377414E0,-7.635809598E-4,3.764454275E-2,2.254091054E-1
4.323043351E0,-6.872228696E-4,8.017600328E-2,2.230419964E-1
4.339709289E0,3.405570984E-2,8.170316368E-2,2.280052751E-1
4.356375226E0,7.261654735E-2,3.313941509E-2,2.257145345E-1
4.373041164E0,9.185878932E-2,-4.046979360E-3,1.996000707E-1
4.389707101E0,1.152243689E-1,3.627009690E-2,1.498145908E-1
4.406373039E0,1.061377525E-1,6.803506613E-2,1.297324002E-1
4.423038976E0,9.162971377E-2,5.390881747E-2,1.390480995E-1
4.439704914E0,9.896009415E-2,3.207040206E-2,1.447749585E-1
4.456370851E0,1.286633909E-1,3.184132650E-2,1.241582632E-1
4.473036789E0,1.588248461E-1,4.382954910E-2,1.110246703E-1
4.489702726E0,1.715766490E-1,-4.886918236E-3,1.253036410E-1
4.506368664E0,1.636354029E-1,-7.696896046E-2,1.349247545E-1
4.523034601E0,1.482874304E-1,-1.198058575E-1,1.333975941E-1
4.539700539E0,1.427132785E-1,-1.117882580E-1,1.060613990E-1
4.556366476E0,1.275180280E-1,-5.772672221E-2,7.017309219E-2
4.573032414E0,1.262962967E-1,-7.635809743E-5,5.184714869E-2
4.589698351E0,1.545487940E-1,2.916879393E-2,5.910116807E-2
4.606364289E0,1.844811589E-1,3.016144782E-2,7.513637096E-2
4.623030226E0,1.974620372E-1,9.468403645E-3,7.620538026E-2
4.639696164E0,1.860083193E-1,-2.397644334E-2,5.070177838E-2
4.656362101E0,1.547015011E-1,-6.314814836E-2,3.191768378E-2
4.673028039E0,1.173623949E-1,-6.200277433E-2,4.237874225E-2
4.689693976E0,1.120936871E-1,-3.993528336E-2,7.948877662E-2
4.706359914E0,1.497382224E-1,-5.421425030E-2,1.155297980E-1
4.723025851E0,2.112828493E-1,-9.651663154E-2,1.201112866E-1
4.739691789E0,2.334267050E-1,-1.424842030E-1,1.107956022E-1
4.756357726E0,1.936441362E-1,-2.820668221E-1,8.139773458E-2
4.773023664E0,1.873064190E-1,-1.344666034E-1,5.054906011E-2
4.789689601E0,1.246164143E-1,-1.029307172E-1,1.140789986E-1
4.806355539E0,1.254563481E-1,-1.075121984E-1,1.465311944E-1
4.823021476E0,7.658717036E-2,-7.658717036E-2,1.582903415E-1
4.839687414E0,1.878409274E-2,1.977674663E-2,1.465311944E-1
4.856353351E0,-1.130099874E-2,1.352301836E-1,1.222493127E-1
4.873019289E0,-1.756236330E-2,1.676060259E-1,1.351538301E-1
4.889685226E0,7.559451740E-3,1.191949919E-1,1.530216336E-1
4.906351164E0,2.855792828E-2,5.612320080E-2,1.651625633E-1
4.923017101E0,2.458730713E-2,3.565923125E-2,1.678351015E-1
4.939683039E0,1.908952487E-3,4.298960790E-2,1.620318890E-1
4.956348976E0,-5.192350596E-2,7.803797722E-2,1.603520066E-1
4.973014914E0,-6.925679743E-2,1.224020272E-1,1.549305767E-1
4.989680851E0,-5.009091273E-2,1.449276656E-1,1.581376195E-1
5.006346789E0,-4.253146052E-2,1.291215420E-1,1.656207144E-1
5.023012726E0,-4.696023092E-2,1.381317973E-1,1.495091617E-1
5.039678664E0,-6.956222653E-2,1.695149690E-1,1.226311028E-1
5.056344601E0,-9.178243577E-2,2.058614343E-1,9.651663154E-2
5.073010539E0,-6.459894776E-2,2.400698513E-1,6.398808211E-2
5.089676476E0,-1.878409274E-2,2.341139317E-1,3.627009690E-2
5.106342414E0,1.450803876E-2,1.896735132E-1,1.328630932E-2
5.123008351E0,9.926552884E-3,1.471420527E-1,-3.207040019E-3
5.139674289E0,7.024944760E-3,1.637117565E-1,-5.367974192E-2
5.156340226E0,5.505418777E-2,2.420551628E-1,-1.241582632E-1
5.173006164E0,1.248454899E-1,2.788597643E-1,-1.734855920E-1
5.189672101E0,1.701258421E-1,2.258672565E-1,-2.015853822E-1
5.206338039E0,1.831067204E-1,1.417969912E-1,-2.183077931E-1
5.223003976E0,1.863901168E-1,8.231402934E-2,-2.334267050E-1
5.239669914E0,1.661552191E-1,4.810560122E-2,-2.180023640E-1
5.256335851E0,1.126281917E-1,8.017600514E-3,-1.847866029E-1
5.273001789E0,4.245510325E-2,-1.527161949E-4,-1.750891209E-1
5.289667726E0,-6.276635826E-2,-1.328630932E-2,-1.699731201E-1
5.306333664E0,-1.655443609E-1,-3.176496923E-2,-1.468366235E-1
5.322999601E0,-2.342666388E-1,-4.566214234E-2,-1.098793000E-1
5.339665539E0,-3.016908467E-1,-5.581776798E-2,-8.391755074E-2
5.356331476E0,-3.947713673E-1,-8.063415438E-2,-8.506292105E-2
5.372997414E0,-4.398989975E-1,-8.185587823E-2,-8.093958348E-2
5.389663351E0,-4.079813063E-1,-6.268999726E-2,-7.231111825E-2
5.406329289E0,-3.690386713E-1,-6.582067907E-2,-3.321577236E-2
5.422995226E0,-3.781253099E-1,-8.689551800E-2,2.145662531E-2
5.439661164E0,-4.024835229E-1,-1.182786897E-1,4.146244749E-2
5.456327101E0,-4.182133079E-1,-1.214093715E-1,1.542433538E-2
5.472993039E0,-4.306596816E-1,-1.182786897E-1,-8.017600514E-3
5.489658976E0,-4.082867503E-1,-1.004872546E-1,-2.138026757E-3
5.506324914E0,-3.581958413E-1,-7.536543906E-2,2.924515121E-2
5.522990851E0,-3.132209182E-1,-8.681915700E-2,6.498073786E-2
5.539656789E0,-3.239110410E-1,-1.178968996E-1,9.269873053E-2
5.556322726E0,-3.698022664E-1,-1.184314117E-1,9.399681538E-2
5.572988664E0,-4.090503156E-1,-8.712458611E-2,8.781181276E-2
5.589654601E0,-4.346303046E-1,-6.391172856E-2,9.674570709E-2
5.606320539E0,-4.440223277E-1,-5.658135191E-2,1.245400533E-1
5.622986476E0,-4.436405599E-1,-3.833176568E-2,1.492037177E-1
5.639652414E0,-4.374555349E-1,-1.343902480E-2,1.540906429E-1
5.656318351E0,-4.116465151E-1,-9.926552884E-3,1.474474818E-1
5.672984289E0,-3.533089161E-1,-2.542724647E-2,1.364519149E-1
5.689650226E0,-2.688568532E-1,-1.931859925E-2,1.105665267E-1
5.706316164E0,-1.972329617E-1,3.092502989E-2,6.864593178E-2
5.722982101E0,-1.739437431E-1,1.037706509E-1,3.993528336E-2
5.739648039E0,-1.717293561E-1,1.628718227E-1,4.466948658E-2
5.756313976E0,-1.395062506E-1,1.840230078E-1,7.200568914E-2
5.772979914E0,-7.506000996E-2,1.596647799E-1,1.003345400E-1
5.789645851E0,-1.130099874E-2,9.292780608E-2,1.268308014E-1
5.806311789E0,5.780307949E-2,-3.191768378E-2,1.513417512E-1
5.822977726E0,1.811977625E-1,-2.285397798E-1,1.902843714E-1
5.839643664E0,3.982838392E-1,-5.129737258E-1,2.296088040E-1
5.856309601E0,5.974257588E-1,-9.192751646E-1,2.223547846E-1
5.872975539E0,4.502837062E-1,-1.320231557E0,2.377027571E-1
5.889641476E0,-2.098320574E-1,-1.373300433E0,3.746128380E-1
5.906307414E0,-9.887610078E-1,-1.017700672E0,5.895608664E-1
5.922973351E0,-1.474703908E0,-5.272526741E-1,7.697659731E-1
5.939639289E0,-1.559766889E0,-2.710712552E-1,7.664062381E-1
5.956305226E0,-1.344895124E0,-4.378373325E-1,5.553524494E-1
5.972971164E0,-1.007468700E0,-1.279074430E0,3.730092943E-1
5.989637101E0,-9.960150123E-1,-2.597702503E0,5.737547278E-1
6.006303039E0,-1.402850986E0,-3.373118877E0,1.036255717E0
6.022968976E0,-2.008676052E0,-3.387398005E0,1.431485295E0
6.039634914E0,-2.456516266E0,-2.836168766E0,1.547549605E0
6.056300851E0,-2.465755701E0,-2.437808514E0,1.390328288E0
6.072966789E0,-2.155207396E0,-2.698647976E0,1.094898701E0
6.089632726E0,-1.857716203E0,-3.369148254E0,9.766964316E-1
6.106298664E0,-1.727296472E0,-3.726198912E0,1.094822407E0
6.122964601E0,-1.734856009E0,-3.581271172E0,1.239673734E0
6.139630539E0,-1.812130332E0,-3.263163328E0,1.292055368E0
6.156296476E0,-1.845804334E0,-2.993160963E0,1.278387308E0
6.172962414E0,-1.685681343E0,-2.825631380E0,1.211039424E0
6.189628351E0,-1.288771987E0,-2.738812208E0,1.149800181E0
6.206294289E0,-1.000672817E0,-2.583652496E0,1.222569466E0
6.222960226E0,-1.090469956E0,-2.076711178E0,1.308777809E0
6.239626164E0,-1.199280262E0,-1.408883214E0,1.174234867E0
6.256292101E0,-1.097036839E0,-8.678097725E-1,9.471458197E-1
6.272958039E0,-7.696132660E-1,-6.312524080E-1,7.669407129E-1
6.289623976E0,-3.179551065E-1,-6.596575975E-1,5.847502947E-1
6.306289914E0,1.182786897E-1,-7.771727443E-1,3.662897944E-1
6.322955851E0,3.937787116E-1,-7.771727443E-1,1.821904182E-1
6.339621789E0,4.356993139E-1,-4.537961781E-1,3.115410358E-2
6.356287726E0,2.977202237E-1,2.194531709E-1,-9.308052063E-2
6.372953664E0,1.650098413E-1,9.962440729E-1,-2.219729871E-1
6.389619601E0,6.543888897E-2,1.691179156E0,-3.762927055E-1
6.406285539E0,-6.062832847E-2,2.289062977E0,-5.309178233E-1
6.422951476E0,-9.476039559E-2,2.706741810E0,-6.463713050E-1
6.439617414E0,1.967748106E-1,2.613661289E0,-7.354812026E-1
6.456283351E0,8.418480158E-1,2.237444878E0,-7.772490978E-1
6.472949289E0,1.675296664E0,1.915442824E0,-7.918334603E-1
6.489615226E0,2.418871880E0,1.734856009E0,-8.516218662E-1
6.506281164E0,2.956279993E0,1.663155675E0,-9.983821511E-1
6.522947101E0,3.313025236E0,1.526703835E0,-1.223638535E0
6.539613039E0,3.505065680E0,1.435226798E0,-1.494175196E0
6.556278976E0,3.648389816E0,1.498604059E0,-1.839542866E0
6.572944914E0,3.800800562E0,1.648265839E0,-2.236299515E0
6.589610851E0,3.788659811E0,1.878256440E0,-2.574871302E0
6.606276789E0,3.618915558E0,2.039295673E0,-2.792568445E0
6.622942726E0,3.503004074E0,1.979812741E0,-2.777602196E0
6.639608664E0,3.568748474E0,1.417206287E0,-2.592433691E0
6.656274601E0,3.677482367E0,7.263945937E-1,-2.325714827E0
6.672940539E0,3.542862892E0,3.436114490E-1,-1.975460291E0
6.689606476E0,3.168326616E0,1.599702090E-1,-1.542509913E0
6.706272414E0,2.736445189E0,7.322741300E-2,-1.107650518E0
6.722938351E0,2.301356792E0,1.714239269E-1,-7.004328370E-1
6.739604289E0,1.883067012E0,1.975383908E-1,-2.123518735E-1
6.756270226E0,1.445229769E0,-1.120936871E-1,3.788888752E-1
6.772936164E0,1.067562580E0,-4.834231138E-1,9.430224895E-1
6.789602101E0,9.529490471E-1,-8.215367794E-1,1.406363487E0
6.806268039E0,9.709695578E-1,-1.067180753E0,1.712406635E0
6.822933976E0,9.046143889E-1,-1.154305339E0,1.880699992E0
6.839599914E0,6.589703560E-1,-1.025794625E0,1.972787857E0
6.856265851E0,2.871828079E-1,-6.579013467E-1,2.073351383E0
6.872931789E0,-1.830303669E-1,-4.214966893E-1,2.165821075E0
6.889597726E0,-7.082213759E-1,-6.868410707E-1,2.237215996E0
6.906263664E0,-1.378034592E0,-1.412701130E0,2.389779329E0
6.922929601E0,-2.430554628E0,-2.250196695E0,2.816239357E0
6.939595539E0,-3.886932611E0,-2.329991102E0,3.458258152E0
6.956261476E0,-4.929068089E0,-1.296025991E0,3.546680927E0
6.972927414E0,-4.312399864E0,-2.517526448E-1,2.750647783E0
6.989593351E0,-2.156047344E0,-7.202095985E-1,1.833052516E0
7.006259289E0,5.322159454E-2,-2.298378706E0,1.558392406E0
7.022925226E0,1.217911601E0,-3.219104767E0,1.565035582E0
7.039591164E0,1.253341794E0,-3.039968491E0,1.486997604E0
7.056257101E0,6.168206930E-1,-1.930867195E0,1.324889302E0
7.072923039E0,-1.874591261E-1,-7.389936447E-1,1.110628486E0
7.089588976E0,-8.079450130E-1,-8.773545176E-2,8.814778924E-1
7.106254914E0,-9.892191291E-1,-2.204458266E-1,5.208385587E-1
7.122920851E0,-8.052725196E-1,-6.052906513E-1,5.581776798E-2
7.139586789E0,-5.884918571E-1,-7.790052891E-1,-4.284452796E-1
7.156252726E0,-5.476402640E-1,-3.814850450E-1,-9.756274223E-1
7.172918664E0,-6.391173005E-1,4.667770565E-1,-1.586110353E0
7.189584601E0,-6.912698746E-1,1.282968760E0,-2.129016399E0
7.206250539E0,-6.520217657E-1,1.858097911E0,-2.554712772E0
7.222916476E0,-4.683805704E-1,2.207512617E0,-2.849684238E0
7.239582414E0,-1.999818534E-1,2.563265085E0,-2.825173140E0
7.256248351E0,6.055197120E-2,3.286987066E0,-2.482707262E0
7.272914289E0,4.499782622E-1,3.898157120E0,-2.190484762E0
7.289580226E0,1.321376920E0,3.755291224E0,-2.410090685E0
7.306246164E0,2.344499111E0,2.977965832E0,-3.061348915E0
7.322912101E0,3.051269531E0,2.810894251E0,-3.419239283E0
7.339578039E0,3.380143881E0,2.793179274E0,-3.175580502E0
7.356243976E0,3.443063021E0,2.346102476E0,-2.964450359E0
7.372909914E0,3.212766886E0,1.650174856E0,-3.065548420E0
7.389575851E0,3.107087374E0,5.182424188E-1,-2.686048746E0
7.406241789E0,3.251175165E0,-6.668352485E-1,-1.901240230E0
7.422907726E0,3.292408466E0,-1.741499186E0,-1.039844513E0
7.439573664E0,2.873278856E0,-1.962784886E0,-3.093266487E-1
7.456239601E0,2.184910536E0,-1.719355226E0,4.643335938E-1
7.472905539E0,1.519678831E0,-1.333059669E0,1.359937668E0
7.489571476E0,1.023809314E0,-9.719622135E-1,2.173609495E0
7.506237414E0,7.453314066E-1,-1.047556758E0,2.785314322E0
7.522903351E0,6.883682609E-1,-1.584430575E0,3.189553976E0
7.539569289E0,5.490911007E-1,-2.003560066E0,3.445735455E0
7.556235226E0,2.970330045E-2,-1.910403252E0,3.643197536E0
7.572901164E0,-7.953459620E-1,-1.315649986E0,3.766897678E0
7.589567101E0,-1.497458696E0,-4.855611324E-1,3.635561705E0
7.606233039E0,-1.802051067E0,-4.308887422E-1,3.469101191E0
7.622898976E0,-2.246684313E0,-1.659108758E0,4.388605118E0
7.639564914E0,-3.386405230E0,-2.703992844E0,6.288165569E0
7.656230851E0,-4.809720039E0,-1.565188289E0,6.323366642E0
7.672896789E0,-4.715723515E0,2.529743910E-1,3.498804331E0
7.689562726E0,-2.113057613E0,-1.511890292E-1,1.332219720E0
7.706228664E0,5.807796717E-1,-1.715461016E0,8.111520410E-1
7.722894601E0,9.577596188E-1,-1.858250618E0,6.907353401E-1
7.739560539E0,-6.594285369E-1,-1.132085204E0,6.757691503E-1
7.756226476E0,-2.381532669E0,-6.184242368E-1,6.647735834E-1
7.772892414E0,-2.777449369E0,-5.199222565E-1,2.092975378E-1
7.789558351E0,-1.895284295E0,-6.415607333E-1,-7.891609073E-1
7.806224289E0,-8.118392825E-1,-6.257545948E-1,-1.793193579E0
7.822890226E0,-3.992001414E-1,-3.050506115E-1,-2.471940756E0
7.839556164E0,-7.637336850E-1,3.646099269E-1,-2.940244913E0
7.856222101E0,-1.101694584E0,1.371773243E0,-3.334634542E0
7.872888039E0,-5.203804374E-1,2.304029226E0,-4.005440235E0
7.889553976E0,6.762273312E-1,3.047069788E0,-4.806055069E0
7.906219914E0,1.608177900E0,3.624489784E0,-5.204949856E0
7.922885851E0,1.693011761E0,4.361268997E0,-5.262599945E0
7.939551789E0,1.336419463E0,5.240379810E0,-5.306200504E0
7.956217726E0,1.264108300E0,5.324450016E0,-4.950829983E0
7.972883664E0,1.289306521E0,4.545903206E0,-4.366995811E0
7.989549601E0,1.010293961E0,3.835696220E0,-4.229627609E0
8.006215539E0,8.563560843E-1,3.939237833E0,-3.938932419E0
8.022881476E0,1.200960159E0,3.838368893E0,-3.196502686E0
8.039547414E0,1.606421709E0,3.169624567E0,-2.194455385E0
8.056213351E0,1.739742875E0,2.030972719E0,-1.120478749E0
8.072879289E0,1.515250087E0,1.467679024E0,-6.391172856E-2
8.089545226E0,1.015944481E0,1.326187491E0,8.257364631E-1
8.106211164E0,8.116865903E-2,2.011654139E0,1.652389288E0
8.122877101E0,-6.332377195E-1,2.254778147E0,2.055330992E0
8.139543039E0,-6.459894776E-2,9.317978621E-1,2.132299900E0
8.156208976E0,8.659771681E-1,-9.554688931E-1,1.803425550E0
8.172874914E0,5.495492220E-1,-1.712406635E0,1.561141253E0
8.189540851E0,-8.817833066E-1,-1.144607902E0,1.823125958E0
8.206206789E0,-2.186132431E0,-7.980184555E-1,2.171700716E0
8.222872726E0,-2.360534191E0,-8.521563411E-1,2.231565475E0
8.239538664E0,-1.996764302E0,-1.264337420E0,1.633147001E0
8.256204601E0,-1.429270864E0,-2.248135090E0,1.037324786E0
8.272870539E0,-1.486081243E0,-3.226282358E0,1.959730625E0
8.289536476E0,-2.403141975E0,-3.761857986E0,3.497429848E0
8.306202414E0,-3.358000040E0,-2.638248682E0,3.512854338E0
8.322868351E0,-3.283703566E0,-1.365053654E0,2.328082085E0
8.339534289E0,-1.841910005E0,-1.691408157E0,1.223714828E0
8.356200226E0,-2.409097999E-1,-2.679023743E0,6.676751971E-1
8.372866164E0,-1.042288020E-1,-2.787910461E0,7.177661061E-1
8.389532101E0,-1.320460558E0,-2.303876400E0,1.274722099E0
8.406198039E0,-2.493931770E0,-2.013944864E0,1.641928196E0
8.422863976E0,-2.724838734E0,-2.152076721E0,1.407508850E0
8.439529914E0,-2.196669817E0,-1.916206479E0,5.435169339E-1
8.456195851E0,-1.799531341E0,-1.127274632E0,-3.390299380E-1
8.472861789E0,-1.841910005E0,-6.032289863E-1,-6.750819683E-1
8.489527726E0,-1.964693904E0,-1.513417512E-1,-7.900008559E-1
8.506193664E0,-1.747836828E0,4.645626545E-1,-1.150487423E0
8.522859601E0,-8.463531733E-1,1.439197421E0,-1.851454735E0
8.539525539E0,4.905244112E-1,1.815413713E0,-2.350683928E0
8.556191476E0,1.478750944E0,1.491884470E0,-2.534248829E0
8.572857414E0,1.512959361E0,1.636277676E0,-2.861137867E0
8.589523351E0,9.308815598E-1,2.638172150E0,-3.372660875E0
8.606189289E0,8.489493132E-1,3.101284027E0,-3.366628408E0
8.622855226E0,1.496695042E0,2.386801481E0,-2.570060730E0
8.639521164E0,2.833648920E0,1.419497013E0,-2.208199739E0
8.656187101E0,3.595855474E0,1.255250812E0,-2.846553564E0
8.672853039E0,3.128085852E0,1.596266031E0,-3.359145403E0
8.689518976E0,2.045022488E0,2.353891134E0,-3.235827208E0
8.706184914E0,1.389106512E0,2.702694893E0,-2.629620075E0
8.722850851E0,1.529758096E0,2.218431711E0,-1.809916019E0
8.739516789E0,2.185750484E0,1.261817575E0,-9.015600681E-1
8.756182726E0,2.885037899E0,7.257837057E-1,-3.107011020E-1
8.772848664E0,3.118922949E0,2.858083546E-1,3.344484791E-2
8.789514601E0,2.415741205E0,-2.107483447E-1,4.166861475E-1
8.806180539E0,9.020945430E-1,-4.685332775E-1,8.355866671E-1
8.822846476E0,-7.522799969E-1,-5.569559336E-1,1.209970355E0
8.839512414E0,-2.013792038E0,-8.487202525E-1,1.600160241E0
8.856178351E0,-2.583117962E0,-1.169042468E0,2.021809816E0
8.872844289E0,-2.456439972E0,-1.469358921E0,2.421468019E0
8.889510226E0,-2.050138474E0,-1.815795541E0,2.695517302E0
8.906176164E0,-2.059454203E0,-2.159712315E0,2.942306519E0
8.922842101E0,-2.771798849E0,-2.035554171E0,3.445200920E0
8.939508039E0,-4.034533024E0,-1.567784429E0,4.027278900E0
8.956173976E0,-5.139892578E0,-1.240971804E0,4.264599800E0
8.972839914E0,-4.551476955E0,-5.498546362E-1,3.665952206E0
8.989505851E0,-1.874362230E0,-6.053670049E-1,2.628016710E0
9.006171789E0,1.415297389E0,-1.747836828E0,1.964846611E0
9.022837726E0,2.995833635E0,-1.752571106E0,1.444389820E0
9.039503664E0,2.197509766E0,-4.125627875E-1,8.432224989E-1
9.056169601E0,3.998109996E-1,7.681624889E-1,4.024835229E-1
9.072835539E0,-4.156171381E-1,1.043280721E0,-1.461493969E-1
9.089501476E0,3.749182522E-1,9.107993841E-1,-1.010981202E0
9.106167414E0,1.878867388E0,1.084437728E0,-2.005545378E0
9.122833351E0,2.992473841E0,1.488066554E0,-2.802418470E0
9.139499289E0,3.502469540E0,2.030209064E0,-3.513617754E0
9.156165226E0,3.718486547E0,2.571817160E0,-4.220770359E0
9.172831164E0,3.975966215E0,3.071733475E0,-4.826213360E0
9.189497101E0,4.501996994E0,3.418475628E0,-5.322082996E0
9.206163039E0,5.440285206E0,3.217042923E0,-5.515498161E0
9.222828976E0,5.783056736E0,2.088317633E0,-5.057502270E0
9.239494914E0,3.793546677E0,4.518108666E-1,-2.966817617E0
9.256160851E0,3.701840639E-1,5.642863512E-1,9.705114365E-2
9.272826789E0,-1.994626164E0,2.038913965E0,1.434692264E0
9.289492726E0,-2.365955591E0,2.665737629E0,1.224936604E0
9.306158664E0,-7.731257081E-1,1.851149321E0,1.138117433E0
9.322824601E0,1.771202445E0,7.292962074E-1,1.681863427E0
9.339490539E0,3.662439823E0,5.100720748E-2,2.135201454E0
9.356156476E0,4.078896999E0,-1.603520103E-2,2.311435938E0
9.372822414E0,3.146106243E0,3.501782417E-1,2.507905245E0
9.389488351E0,1.402774572E0,6.799688339E-1,2.604727507E0
9.406154289E0,-8.064178824E-1,1.046182275E0,2.510807037E0
9.422820226E0,-2.846171618E0,1.349782109E0,2.870835304E0
9.439486164E0,-4.156858444E0,1.068937063E0,4.224740982E0
9.456152101E0,-4.467559338E0,2.451858521E-1,5.650499344E0
9.472818039E0,-3.518810272E0,-4.734202102E-2,4.919446945E0
9.489483976E0,-1.152243733E0,6.143009067E-1,2.529514790E0
9.506149914E0,2.047313213E0,5.714640021E-1,1.100014806E0
9.522815851E0,4.965261459E0,-1.242346242E-1,9.826523662E-1
9.539481789E0,6.087038517E0,1.969275326E-1,6.053670049E-1
9.556147726E0,5.416614532E0,1.098105788E0,-1.979201883E-1
9.572813664E0,3.975584269E0,1.835037827E0,-5.372555852E-1
9.589479601E0,2.540204763E0,2.737056017E0,-2.864955962E-1
9.606145539E0,2.029063702E0,3.670304775E0,-1.605047137E-1
9.622811476E0,2.869308233E0,4.001775265E0,-6.387354732E-1
9.639477414E0,4.640739918E0,3.973217249E0,-1.653916359E0
9.656143351E0,6.401099205E0,3.816912174E0,-2.583347082E0
9.672809289E0,7.569072723E0,3.252015114E0,-3.038136005E0
9.689475226E0,7.341831207E0,2.110079765E0,-2.952538490E0
9.706141164E0,5.015581608E0,1.115515471E0,-2.097480536E0
9.722807101E0,1.870238900E0,1.231885195E0,-1.150182009E0
9.739473039E0,-2.105956376E-1,1.959272385E0,-8.727730513E-1
9.756138976E0,-6.850848794E-1,1.980652690E0,-5.156462193E-1
9.772804914E0,1.649334878E-1,1.304501772E0,1.658497900E-1
9.789470851E0,1.444084287E0,7.616720200E-1,8.536071777E-1
9.806136789E0,2.086256027E0,6.385827661E-1,1.264948249E0
9.822802726E0,1.793117166E0,8.264237046E-1,1.568089843E0
9.839468664E0,9.496656656E-1,1.257694244E0,2.037692070E0
9.856134601E0,2.591593862E-1,1.644142509E0,2.501338482E0
9.872800539E0,1.838703007E-1,1.812512159E0,2.893208265E0
9.889466476E0,6.055197120E-1,1.724929452E0,3.268508434E0
9.906132414E0,1.154229045E0,1.345887780E0,3.686110735E0
9.922798351E0,1.426598310E0,1.023580313E0,3.898920774E0
9.939464289E0,1.407279730E0,9.164499044E-1,3.510410786E0
9.956130226E0,1.150716543E0,1.067791581E0,2.834183455E0
9.972796164E0,8.970549107E-1,1.308777809E0,2.494771719E0
9.989462101E0,9.513455629E-1,1.287473917E0,2.418871880E0
1.000612804E1,1.168278933E0,1.051298261E0,2.343277216E0
1.002279398E1,1.253036380E0,9.092722535E-1,2.352211237E0
1.003945991E1,1.070158720E0,1.020755053E0,2.391382933E0
1.005612585E1,8.013782501E-1,1.135139465E0,2.381074667E0
1.007279179E1,8.077159524E-1,9.784526825E-1,2.353814602E0
1.008945773E1,1.265406370E0,5.910117030E-1,2.234925270E0
1.010612366E1,2.183459759E0,4.925097153E-2,2.047847748E0
1.012278960E1,3.113195896E0,-3.677406013E-1,1.875202179E0
1.013945554E1,3.685652733E0,-5.994110703E-1,1.733786941E0
1.015612148E1,3.851349831E0,-7.984766364E-1,1.578474641E0
1.017278741E1,3.708407402E0,-1.018998861E0,1.424460292E0
1.018945335E1,3.186347008E0,-1.069471478E0,1.067104459E0
1.020611929E1,2.496146202E0,-7.909935117E-1,4.495201111E-1
1.022278523E1,1.964159369E0,-9.292780608E-2,-1.327867359E-1
1.023945116E1,1.765628338E0,7.276163101E-1,-6.611847878E-1
1.025611710E1,1.630245328E0,1.305036187E0,-1.156214356E0
1.027278304E1,1.042746186E0,1.603596449E0,-1.558697820E0
1.028944898E1,-4.005745649E-1,1.892459035E0,-1.956294417E0
1.030611491E1,-2.408945322E0,2.523864269E0,-2.681391001E0
1.032278085E1,-3.820271969E0,3.859367371E0,-3.780565739E0
1.033944679E1,-3.131598234E0,5.556197166E0,-4.794525146E0
1.035611273E1,-4.253146052E-2,6.641474724E0,-4.395324707E0
1.037277866E1,3.924806118E0,5.499539375E0,-2.695669889E0
1.038944460E1,7.497983456E0,2.349538565E0,-1.537699342E0
1.040611054E1,8.966960907E0,-7.994692773E-2,-1.555109024E0
1.042277531E1,7.041896343E0,-1.382845193E-1,-2.214690208E0
1.043944125E1,2.835481644E0,2.318690062E0,-2.637943268E0
1.045610718E1,-3.746891916E-1,4.938459873E0,-2.516381025E0
1.047277312E1,-1.079703495E-1,4.605385780E0,-1.449887514E0
1.048943906E1,3.129612923E0,1.456377983E0,5.714640021E-1
1.050610500E1,5.960436821E0,-1.294422507E0,2.432234526E0
1.052277093E1,5.396837711E0,-1.787619472E0,3.572184563E0
1.053943687E1,2.125274897E0,-6.582831740E-1,4.364705086E0
1.055610281E1,-1.082376003E0,4.930442274E-1,4.316446781E0
1.057276875E1,-2.554483891E0,6.155989766E-1,3.774457216E0
1.058943468E1,-2.120388031E0,-3.753000498E-1,3.842874050E0
1.060610062E1,-8.023709059E-1,-1.387655735E0,4.380587578E0
1.062276656E1,1.878409237E-1,-1.620318770E0,4.410748959E0
1.063943250E1,3.373500705E-1,-1.306105256E0,3.376326084E0
1.065609843E1,-3.282634616E-1,-7.076104879E-1,2.492710114E0
1.067276437E1,-1.728823662E0,-1.012050271E0,3.414657831E0
1.068943031E1,-3.483685493E0,-2.124129534E0,5.506182194E0
1.070609625E1,-4.621726513E0,-1.946978807E0,6.276635647E0
1.072276218E1,-4.480616570E0,-6.918043494E-1,5.131798744E0
1.073942812E1,-3.159163475E0,-2.305250913E-1,3.713447094E0
1.075609406E1,-1.625358462E0,-6.113229394E-1,3.036685228E0
1.077276000E1,-7.904590368E-1,-8.775836229E-1,2.498360634E0
1.078942593E1,-8.993456960E-1,-6.519454122E-1,1.386968493E0
1.080609187E1,-1.643837094E0,1.566868126E-1,5.039634705E-1
1.082275781E1,-1.688964725E0,4.768563211E-1,-2.015853859E-2
1.083942375E1,-8.832340837E-1,3.353647590E-1,-4.684569240E-1
1.085608968E1,1.885281354E-1,5.009091273E-2,-1.122922182E0
1.087275562E1,7.152463198E-1,2.438877672E-1,-2.211635828E0
1.088942156E1,3.387245238E-1,1.044502378E0,-3.493077517E0
1.090608750E1,-4.070650041E-1,2.123594999E0,-4.295982838E0
1.092275343E1,-2.260963321E-1,2.843575478E0,-4.651887894E0
1.093941937E1,1.238375664E0,2.707810879E0,-4.821021080E0
1.095608531E1,2.905043840E0,2.316399336E0,-5.083082199E0
1.097275125E1,3.605171204E0,2.351142168E0,-5.385536671E0
1.098941718E1,3.412137985E0,3.010341644E0,-5.695321560E0
1.100608312E1,3.215439558E0,3.579362154E0,-5.707996845E0
1.102274906E1,3.633729219E0,3.083263636E0,-5.138594627E0
1.103941500E1,4.532464027E0,2.159406900E0,-4.620886803E0
1.105608093E1,5.498240948E0,2.083965302E0,-4.581867695E0
1.107274687E1,5.522828579E0,1.677892804E0,-4.058127403E0
1.108941281E1,3.960083723E0,9.040035009E-1,-3.398851633E0
1.110607875E1,1.242346287E0,1.427667379E0,-3.345706463E0
1.112274468E1,-8.661298752E-1,2.376264095E0,-2.782870770E0
1.113941062E1,-9.177479744E-1,2.537990332E0,-1.755167246E0
1.115607656E1,3.753000498E-1,1.631925225E0,-5.440514684E-1
1.117274250E1,1.361159444E0,3.885099888E-1,8.436806202E-1
1.118940843E1,1.335961223E0,-1.827249229E-1,2.201022148E0
1.120607437E1,7.031817436E-1,-5.795579776E-2,3.278434992E0
1.122274031E1,2.206749022E-1,7.131846249E-2,4.087143421E0
1.123940625E1,1.824958473E-1,-4.231002033E-1,4.554302216E0
1.125607218E1,1.479819864E-1,-1.359250546E0,4.572704792E0
1.127273812E1,-3.765217662E-1,-1.881845355E0,4.357450962E0
1.128940406E1,-1.179808974E0,-1.710803151E0,4.106691360E0
1.130607000E1,-1.854585528E0,-1.231579781E0,3.765446901E0
1.132273593E1,-2.288299561E0,-1.087873816E0,3.463679552E0
1.133940187E1,-2.490495682E0,-1.587332129E0,3.773159027E0
1.135606781E1,-2.376111269E0,-2.499047756E0,5.001684666E0
1.137273375E1,-2.098931313E0,-3.281947374E0,5.444790363E0
1.138939968E1,-1.958890676E0,-2.329685450E0,3.996659279E0
1.140606562E1,-1.746462345E0,-3.477347791E-1,1.711948514E0
1.142273156E1,-1.090011835E0,1.566868126E-1,8.009200692E-1
1.143939750E1,-7.016545534E-1,-5.665007234E-1,1.214933634E0
1.145606343E1,-1.052825451E0,-1.143538833E0,1.845346093E0
1.147272937E1,-1.839237452E0,-1.363068342E0,2.377180338E0
1.148939531E1,-2.739652157E0,-1.238986492E0,2.887863159E0
1.150606125E1,-3.252167702E0,-8.585704565E-1,3.368690252E0
1.152272718E1,-2.951927662E0,8.445205539E-2,3.294699192E0
1.153939312E1,-1.923536777E0,6.237692833E-1,1.795026183E0
1.155605906E1,-8.562797308E-1,2.367864549E-1,-2.399171442E-1
1.157272500E1,-5.177078843E-1,-3.876700699E-1,-1.346346021E0
1.158939093E1,-5.452731848E-1,-5.783362389E-1,-1.882456183E0
1.160605687E1,-5.364156365E-1,5.291616172E-2,-2.609232664E0
1.162272281E1,-6.658425927E-2,1.249752998E0,-3.662897825E0
1.163938875E1,8.145118356E-1,2.207054377E0,-4.559647560E0
1.165605468E1,1.532430649E0,2.427194834E0,-4.945942879E0
1.167272062E1,1.949804068E0,2.474613190E0,-5.064068794E0
1.168938656E1,2.375424147E0,2.600222349E0,-5.096368313E0
1.170605250E1,2.580445528E0,2.746142626E0,-5.155775070E0
1.172271843E1,2.174754858E0,2.899775028E0,-4.924409866E0
1.173938437E1,1.368108034E0,3.280343771E0,-4.795670509E0
1.175605031E1,9.279035926E-1,3.647168159E0,-4.756727695E0
1.177271625E1,1.390557289E0,3.083721876E0,-4.243066788E0
1.178938218E1,2.382143497E0,2.071595192E0,-3.238881350E0
1.180604812E1,3.273013592E0,1.249218464E0,-2.099313259E0
1.182271406E1,3.374417067E0,8.109229803E-1,-1.191262722E0
1.183938000E1,2.352898359E0,6.828704476E-1,-5.319868922E-1
1.185604593E1,8.277981281E-1,8.504765034E-1,-1.153007299E-1
1.187271187E1,-1.724165827E-1,7.316632867E-1,2.842811942E-1
1.188937781E1,-4.114174247E-1,-5.276344717E-2,1.034117699E0
1.190604375E1,-4.446332157E-1,-1.120707750E0,2.160705090E0
1.192270968E1,-6.693550944E-1,-1.604359984E0,3.219486475E0
1.193937562E1,-1.155145288E0,-1.484095931E0,3.848829985E0
1.195604156E1,-1.602374673E0,-1.660177708E0,3.655796528E0
1.197270750E1,-1.902996540E0,-2.182772636E0,2.981096506E0
1.198937343E1,-2.193233728E0,-2.391153812E0,2.911152363E0
1.200603937E1,-2.718806505E0,-2.250578642E0,3.920148373E0
1.202270531E1,-3.406563759E0,-2.272798777E0,4.407465935E0
1.203937125E1,-3.744753838E0,-1.700113058E0,3.402669430E0
1.205603718E1,-2.842506647E0,-6.069704890E-1,1.676747441E0
1.207270312E1,-1.086728454E0,-6.679042578E-1,6.933315396E-1
1.208936906E1,1.336266659E-2,-9.948696494E-1,5.234347582E-1
1.210603500E1,-1.598175019E-1,-8.593340516E-1,6.197986603E-1
1.212270093E1,-1.026176453E0,-6.666825414E-1,8.642209172E-1
1.213936687E1,-1.745087981E0,-5.607738495E-1,9.351575971E-1
1.215603281E1,-1.866497278E0,-6.638572812E-1,7.315869331E-1
1.217269875E1,-1.458821416E0,-9.388991594E-1,3.728565872E-1
1.218936468E1,-9.224058390E-1,-6.465240121E-1,-2.222784162E-1
1.220603062E1,-4.861720204E-1,6.238456443E-2,-9.563088417E-1
1.222269656E1,-7.299833745E-2,5.688678026E-1,-1.641775489E0
1.223936250E1,4.696786702E-1,7.858775258E-1,-2.114813805E0
1.225602843E1,1.307174325E0,9.664644599E-1,-2.580598354E0
1.227269437E1,2.236681461E0,1.396131396E0,-3.054247618E0
1.228936031E1,2.997971535E0,1.780518174E0,-3.359603643E0
1.230602625E1,3.357618332E0,1.871460557E0,-3.701458693E0
1.232269218E1,3.538815975E0,1.806327105E0,-4.259254456E0
1.233935812E1,3.766668558E0,1.575954795E0,-4.325533390E0
1.235602406E1,3.791103125E0,1.068555236E0,-3.038441420E0
1.237269000E1,3.257741928E0,5.915461779E-1,-1.425758362E0
1.238935593E1,2.717737436E0,7.774018049E-1,-1.811214089E0
1.240602187E1,2.153298378E0,1.312519312E0,-2.826395035E0
1.242268781E1,1.541517258E0,1.869398952E0,-2.841742992E0
1.243935375E1,1.410944939E0,2.152153015E0,-2.217897415E0
1.245601968E1,1.881692648E0,2.003560066E0,-1.376660109E0
1.247268562E1,2.513403177E0,1.471344233E0,-1.024725676E0
1.248935156E1,2.763170481E0,9.509637356E-1,-1.207297921E0
1.250601750E1,2.355112791E0,8.286380768E-1,-1.324049354E0
1.252268343E1,9.020945430E-1,6.840158105E-1,-9.195042253E-1
1.253934937E1,-1.467755318E0,5.755873322E-1,2.283870727E-1
1.255601531E1,-3.000338793E0,6.701950431E-1,1.659643292E0
1.257268125E1,-2.694524527E0,1.006399691E-1,3.224449635E0
1.258934718E1,-1.560988545E0,-1.226921916E0,4.927006245E0
1.260601312E1,-1.405752540E0,-2.306701660E0,6.426984787E0
1.262267906E1,-3.107621908E0,-1.838473916E0,7.087405682E0
1.263934500E1,-5.534893036E0,-2.202931046E-1,6.525181293E0
1.265601093E1,-6.747917652E0,1.033735871E0,5.446852207E0
1.267267687E1,-4.806055069E0,5.628355145E-1,4.646313667E0
1.268934281E1,2.189950198E-1,-8.495602012E-1,3.735285521E0
1.270600875E1,4.923952103E0,-2.027536631E0,2.323882341E0
1.272267468E1,5.994263172E0,-1.765857339E0,1.069853306E0
1.273934062E1,3.963137865E0,-3.519344628E-1,6.882919073E-1
1.275600656E1,1.921856999E0,3.355938494E-1,6.171261668E-1
1.277267250E1,1.582368851E0,2.971093655E-1,3.074940443E-1
1.278933843E1,2.871828079E0,6.971494108E-2,-3.562868834E-1
1.280600437E1,4.805596828E0,8.292489499E-2,-1.211650252E0
1.282267031E1,6.340776443E0,4.108065739E-2,-1.706832528E0
1.283933625E1,7.060909748E0,-3.843866587E-1,-1.506774306E0
1.285600218E1,6.534420490E0,-1.432172418E0,-3.456731141E-1
1.287266812E1,4.330955029E0,-2.908785343E0,-1.550069451E-1
1.288933406E1,8.853721619E-1,-2.480263710E0,-1.694538951E0
1.290600000E1,-2.207665205E0,4.469239414E-1,-3.138470411E0
1.292266593E1,-2.350149632E0,2.316933632E0,-3.905411243E0
1.293933187E1,3.735437989E-1,1.662392139E0,-3.711690664E0
1.295599781E1,3.264766932E0,3.877464235E-1,-2.928333044E0
1.297266375E1,4.398226261E0,-3.597230017E-1,-2.458578110E0
1.298932968E1,3.662134409E0,-3.032943606E-1,-2.361374140E0
1.300599562E1,2.144898891E0,5.522981286E-1,-2.241415501E0
1.302266156E1,1.001818180E0,1.430492640E0,-1.962250352E0
1.303932750E1,5.768090487E-1,1.699731231E0,-1.453705430E0
1.305599343E1,5.260309577E-1,1.395596981E0,-8.385646343E-1
1.307265937E1,3.827831447E-1,9.632573724E-1,-1.833357960E-1
1.308932531E1,1.154534444E-1,8.365029693E-1,5.443568826E-1
1.310599125E1,-2.137263119E-1,1.119486094E0,1.310915828E0
1.312265718E1,-3.792706728E-1,1.752952814E0,2.068159103E0
1.313932312E1,-6.299543381E-2,2.229961872E0,2.722242594E0
1.315598906E1,7.292198539E-1,2.433227062E0,2.975827694E0
1.317265500E1,1.792735457E0,2.364963055E0,2.670548201E0
1.318932093E1,2.748815060E0,2.263025045E0,2.240804672E0
1.320598687E1,3.359298229E0,2.658407211E0,1.925751209E0
1.322265281E1,3.582111120E0,3.609981775E0,1.591379166E0
1.323931875E1,3.630751133E0,4.214279652E0,1.018311620E0
1.325598468E1,3.686798096E0,4.065839767E0,2.589302957E-1
1.327265062E1,3.782016516E0,3.757734776E0,-2.868773639E-1
1.328931656E1,3.911520004E0,3.474369764E0,-3.184132576E-1
1.330598250E1,4.078056812E0,2.951851368E0,-2.593884468E-1
1.332264843E1,4.293310165E0,1.601152897E0,-7.160862088E-1
1.333931437E1,3.854022264E0,-7.292198390E-2,-1.639102936E0
1.335598031E1,1.823507667E0,-8.533781171E-1,-1.410486817E0
1.337264625E1,-6.437751055E-1,-4.504364133E-1,1.950949430E-1
1.338931218E1,-1.730885386E0,1.529452652E-1,1.441030025E0
1.340597812E1,-7.948877811E-1,4.780016840E-1,1.764482975E0
1.342264406E1,1.586492181E0,-1.073594838E-1,1.937892199E0
1.343931000E1,3.997728109E0,-1.512424827E0,2.198502302E0
1.345597593E1,5.024668217E0,-2.247447968E0,2.833878040E0
1.347264187E1,4.434496403E0,-2.024024010E0,3.766744852E0
1.348930781E1,2.792415619E0,-1.416290045E0,4.693274021E0
1.350597375E1,9.803616405E-1,-9.088904262E-1,5.346746922E0
1.352263968E1,-6.895136088E-2,-1.019838691E0,5.567574501E0
1.353930562E1,-2.621373534E-1,-1.290604591E0,5.698299408E0
1.355597156E1,-4.077522457E-2,-1.388190269E0,6.206462383E0
1.357263750E1,-2.303723842E-1,-1.208214164E0,6.349481106E0
1.358930343E1,-1.147280455E0,-5.675697327E-1,5.428678989E0
1.360596937E1,-8.275690675E-1,-2.466366626E-2,4.352258682E0
1.362263531E1,9.285908341E-1,-6.054433584E-1,4.015748501E0
1.363930125E1,1.772576928E0,-1.100396514E0,3.984747410E0
1.365596718E1,1.297324061E0,-3.678933084E-1,2.962694168E0
1.367263312E1,7.175370455E-1,5.496255755E-1,1.600465775E0
1.368929906E1,4.823541045E-1,9.353103638E-1,5.368737578E-1
1.370596500E1,1.992946416E-1,1.046487689E0,-3.931678534E-1
1.372263093E1,-1.985310577E-2,1.000520110E0,-1.251814604E0
1.373929687E1,1.712712198E-1,8.670461774E-1,-2.031659842E0
1.375596281E1,8.568905592E-1,5.241219997E-1,-2.662454128E0
1.377262875E1,1.567402720E0,4.382954910E-2,-3.174817085E0
1.378929468E1,1.888259411E0,-4.124100804E-1,-3.719173908E0
1.380596062E1,1.762039423E0,-3.762927055E-1,-4.145481110E0
1.382262656E1,1.493488073E0,-4.749473557E-2,-4.352106094E0
1.383929250E1,1.526322007E0,5.558869243E-1,-4.371882915E0
1.385595843E1,2.165897369E0,1.104214430E0,-4.404869556E0
1.387262437E1,3.301495075E0,1.332754254E0,-4.810254574E0
1.388929031E1,4.196030140E0,1.752494693E0,-5.386529446E0
1.390595625E1,4.680216789E0,2.444451809E0,-5.844677925E0
1.392262218E1,5.052538872E0,2.753243923E0,-6.238761902E0
1.393928812E1,5.366218090E0,2.539899349E0,-6.818854332E0
1.395595406E1,5.347204685E0,2.461097956E0,-7.235235214E0
1.397262000E1,4.576980591E0,2.469802618E0,-7.014025688E0
1.398928593E1,2.945819139E0,2.720715284E0,-6.331537247E0
1.400595187E1,1.641088247E0,3.396866322E0,-5.306276798E0
1.402261781E1,1.791895509E0,3.469101191E0,-3.978409529E0
1.403928375E1,3.003927469E0,2.112141371E0,-2.476903915E0
1.405594968E1,3.460396290E0,1.174921989E0,-1.327103734E0
1.407261562E1,2.693455458E0,2.031888962E0,-6.832522750E-1
1.408928156E1,1.769369841E0,2.870529890E0,-4.276053514E-3
1.410594750E1,1.095815063E0,2.649473190E0,6.743947268E-1
1.412261343E1,6.149117351E-1,1.999207735E0,1.306716084E0
1.413927937E1,4.887681901E-1,9.356921315E-1,2.009057999E0
1.415594531E1,4.032471180E-1,-1.456148922E-1,2.809978008E0
1.417261125E1,-1.030070707E-1,-5.281689763E-1,3.550193310E0
1.418927718E1,-8.133664727E-1,-6.317868829E-1,3.969552040E0
1.420594312E1,-1.443931580E0,-9.297361970E-1,4.048124313E0
1.422260906E1,-1.961868644E0,-1.574351311E0,3.816759586E0
1.423927500E1,-2.817155600E0,-2.033721685E0,3.936870813E0
1.425594093E1,-4.510090828E0,-1.484706879E0,5.242365360E0
1.427260687E1,-5.719756126E0,-1.387579322E0,6.314509392E0
1.428927281E1,-4.701673508E0,-2.045786142E0,5.489307404E0
1.430593875E1,-2.570366383E0,-2.007836103E0,3.592953920E0
1.432260468E1,-9.252310395E-1,-1.742568135E0,2.723998785E0
1.433927062E1,-6.784417033E-1,-2.027765751E0,3.098993301E0
1.435593656E1,-1.720653415E0,-1.807930708E0,3.370446444E0
1.437260250E1,-2.668868303E0,-1.099785686E0,2.832808971E0
1.438926843E1,-2.684216261E0,-2.498437017E-1,1.606421709E0
1.440593437E1,-1.995160699E0,-5.118283033E-1,5.857429504E-1
1.442260031E1,-1.333365083E0,-1.335884929E0,9.621120058E-3
1.443926625E1,-1.341688156E0,-1.545411587E0,-3.293324709E-1
1.445593218E1,-1.874285817E0,-8.550579548E-1,-7.092140317E-1
1.447259812E1,-2.323729515E0,4.405862093E-2,-1.437593937E0
1.448926406E1,-2.308839798E0,9.457713962E-1,-2.680245638E0
1.450593000E1,-1.617799044E0,1.772576928E0,-3.541564941E0
1.452259593E1,-8.452841640E-2,2.472856998E0,-3.621664524E0
1.453926187E1,1.561904907E0,3.194059134E0,-3.336314440E0
1.455592781E1,2.529667377E0,4.163959980E0,-3.373653412E0
1.457259375E1,3.220860958E0,4.805749416E0,-4.053164005E0
1.458925968E1,4.281016827E0,4.493903160E0,-4.607829571E0
1.460592562E1,5.289630890E0,3.385718107E0,-4.048429966E0
1.462259156E1,4.976333618E0,2.040899277E0,-4.003989697E0
1.463925750E1,2.470260859E0,2.537684917E0,-5.090260029E0
1.465592343E1,-4.642572254E-2,4.394179344E0,-5.606746197E0
1.467258937E1,-3.680460155E-2,4.371806622E0,-4.894859314E0
1.468925531E1,1.748065948E0,2.686812401E0,-3.576231480E0
1.470592125E1,3.454134941E0,1.621998668E0,-2.631605387E0
1.472258718E1,4.051178932E0,1.245171547E0,-1.937128544E0
1.473925312E1,3.306381941E0,1.146516800E0,-1.101770997E0
1.475591906E1,2.069457054E0,1.376660109E0,-1.229365394E-1
1.477258500E1,1.138575554E0,1.137659311E0,7.705295682E-1
1.478925093E1,7.031817436E-1,7.483093534E-3,1.539913774E0
1.480591687E1,5.205331445E-1,-1.106734276E0,2.198196888E0
1.482258281E1,2.745837271E-1,-1.757076144E0,2.767904758E0
1.483924875E1,-1.031597927E-1,-2.178038359E0,3.565083265E0
1.485591468E1,-4.383718371E-1,-2.413755894E0,4.426249981E0
1.487258062E1,-7.774781585E-1,-2.306930780E0,4.790401459E0
1.488924656E1,-1.050992846E0,-2.136652231E0,4.360352993E0
1.490591250E1,-1.135368586E0,-2.445291758E0,3.890903234E0
1.492257843E1,-1.244713306E0,-2.947880745E0,4.825373650E0
1.493924437E1,-1.774867654E0,-2.958876371E0,6.404611588E0
1.495591031E1,-3.146717310E0,-1.986914039E0,5.624002934E0
1.497257625E1,-4.666014194E0,-4.922806621E-1,2.632369041E0
1.498924218E1,-4.497873783E0,1.037706509E-1,4.205040336E-1
1.500590812E1,-2.526154995E0,-9.171370864E-1,3.856083751E-2
1.502257406E1,-9.773836732E-1,-1.731343508E0,6.066650748E-1
1.503924000E1,-8.934661150E-1,-1.743637204E0,1.068860650E0
1.505590593E1,-1.702632904E0,-1.485852242E0,1.292437196E0
1.507257187E1,-2.486066818E0,-1.443244457E0,1.328936338E0
1.508923781E1,-2.809596300E0,-1.362228513E0,1.018006206E0
1.510590375E1,-2.814788580E0,-1.162093878E0,5.496255755E-1
1.512256968E1,-2.655734539E0,-8.173370957E-1,2.877936661E-1
1.513923562E1,-2.266232014E0,-5.041925311E-1,-1.915061027E-1
1.515590156E1,-1.764024734E0,-2.958876193E-1,-1.113759160E0
1.517256750E1,-1.291062713E0,-1.079703495E-1,-2.234772444E0
1.518923343E1,-5.499309897E-1,1.947131567E-2,-3.314628601E0
1.520589937E1,5.216785073E-1,5.559632778E-1,-4.363941669E0
1.522256531E1,1.378798127E0,1.740582824E0,-5.262141705E0
1.523923125E1,1.484630466E0,2.727053165E0,-5.723115921E0
1.525589718E1,1.553810954E0,3.224602461E0,-5.816807270E0
1.527256312E1,2.491870165E0,3.244379282E0,-5.485947609E0
1.528922906E1,4.150979042E0,2.706130981E0,-4.709538460E0
1.530589500E1,4.900204659E0,1.804265499E0,-4.391201496E0
1.532256093E1,3.318217516E0,1.385517716E0,-4.509098530E0
1.533922687E1,7.709113359E-1,1.706221700E0,-4.510472775E0
1.535589281E1,-4.162279963E-1,2.260963202E0,-4.264447212E0
1.537255875E1,5.789470673E-1,2.299371481E0,-3.411756039E0
1.538922468E1,2.276769400E0,1.898033261E0,-2.303647518E0
1.540589062E1,3.030881882E0,1.701487541E0,-1.346880436E0
1.542255656E1,2.351447582E0,1.820453405E0,-5.502364635E-1
1.543922250E1,8.564324379E-1,1.560530424E0,6.207913160E-2
1.545588843E1,-6.703477502E-1,7.677806616E-1,4.508182108E-1
1.547255437E1,-1.687284827E0,-2.705367506E-1,1.158886790E0
1.548922031E1,-2.360076189E0,-1.478445530E0,2.728045702E0
1.550588625E1,-2.850142241E0,-2.300974846E0,4.508945465E0
1.552255218E1,-2.966206551E0,-2.495840788E0,5.263516426E0
1.553921812E1,-2.687117815E0,-2.788597822E0,4.565679550E0
1.555588406E1,-2.667111874E0,-3.540419579E0,3.990092278E0
1.557255000E1,-3.248960733E0,-4.362796307E0,5.082089424E0
1.558921593E1,-4.482984066E0,-4.281169415E0,6.614596367E0
1.560588187E1,-5.365301609E0,-2.694829941E0,5.478082657E0
1.562254781E1,-4.158690929E0,-7.877864838E-1,2.437961340E0
1.563921375E1,-8.038216829E-1,-9.282090068E-1,9.786817431E-1
1.565587968E1,1.456148863E0,-1.351920128E0,1.381088853E0
1.567254562E1,1.436753988E0,-6.671407223E-1,1.743713498E0
1.568921156E1,3.610974550E-1,-1.404225379E-1,1.710268617E0
1.570587750E1,-2.919933498E-1,-6.795870513E-2,1.161024928E0
1.572254343E1,-5.192350596E-3,8.773545176E-2,5.273290277E-1
1.573920937E1,8.549052477E-1,4.423424602E-1,8.246674389E-2
1.575587531E1,1.598556757E0,6.498073936E-1,-4.961749315E-1
1.577254125E1,1.702403784E0,7.750346661E-1,-1.427514672E0
1.578920718E1,1.436295867E0,1.174845695E0,-2.254701853E0
1.580587312E1,1.531667113E0,1.423696756E0,-2.672609806E0
1.582253906E1,2.209421635E0,1.379790783E0,-2.767522812E0
1.583920500E1,3.073031664E0,1.360777617E0,-3.006676435E0
1.585587093E1,3.497658968E0,1.650556684E0,-3.696190119E0
1.587253687E1,3.448102713E0,2.009745121E0,-4.670519352E0
1.588920281E1,3.366170406E0,2.019518852E0,-5.173413754E0
1.590586875E1,3.724213600E0,1.495167851E0,-4.397844791E0
1.592253468E1,4.242990494E0,2.137263119E-1,-2.464381218E0
1.593920062E1,3.812941551E0,-5.250383019E-1,-2.299447775E0
1.595586656E1,1.626427531E0,2.954294682E-1,-3.475973368E0
1.597253250E1,-7.721330523E-1,1.865733743E0,-4.241768837E0
1.598919843E1,-1.144836903E0,2.792797327E0,-4.246655464E0
1.600586437E1,6.800451875E-1,2.915352106E0,-3.118922949E0
1.602253031E1,2.850600481E0,2.652222157E0,-1.728136420E0
1.603919625E1,3.940994024E0,2.353203773E0,-1.235092282E0
1.605586218E1,3.985205412E0,2.085721493E0,-1.400407553E0
1.607252812E1,3.258352757E0,1.933310628E0,-1.610315919E0
1.608919406E1,1.902767420E0,1.441793561E0,-1.166751742E0
1.610586000E1,-2.443459183E-1,6.043743491E-1,2.298378795E-1
1.612252593E1,-2.610988855E0,-3.000873141E-2,2.280052900E0
1.613919187E1,-4.194808483E0,-6.704241037E-2,4.506120205E0
1.615585781E1,-4.192212105E0,6.879864633E-2,6.393539906E0
1.617252375E1,-2.640997410E0,-7.307469845E-2,7.253255844E0
1.618918968E1,-9.275218248E-1,-3.674351573E-1,6.920868874E0
1.620585562E1,-1.466839015E-1,-5.501601100E-1,6.254796982E0
1.622252156E1,-6.032289565E-2,5.429060757E-2,5.912407398E0
1.623918750E1,2.275471240E-1,6.619483232E-1,5.014818192E0
1.625585343E1,8.551343083E-1,4.981602132E-1,3.647473574E0
1.627251937E1,1.620242476E0,3.688096255E-2,2.944444656E0
1.628918531E1,2.068388224E0,-5.523744822E-1,2.855334759E0
1.630585125E1,1.550298452E0,-1.007239699E0,2.759658098E0
1.632251718E1,2.843575478E-1,-9.934188724E-1,2.428263903E0
1.633918312E1,-7.305942774E-1,-5.994874239E-1,1.535790443E0
1.635584906E1,-8.463531733E-1,1.206457913E-1,1.919642538E-1
1.637251500E1,1.400407553E-1,6.069704890E-1,-7.669407129E-1
1.638918093E1,1.754403591E0,7.479275465E-1,-1.225471139E0
1.640584687E1,3.142670155E0,7.747292519E-1,-1.461799383E0
1.642251281E1,3.894110203E0,6.947059631E-1,-1.531437993E0
1.643917875E1,4.141663074E0,5.806269646E-1,-1.623144031E0
1.645584468E1,3.964206934E0,6.892845631E-1,-1.863061190E0
1.647251062E1,3.345629930E0,1.058323264E0,-2.150320292E0
1.648917656E1,2.257221699E0,1.754021883E0,-2.309298038E0
1.650584250E1,1.070387840E0,2.681620121E0,-2.212781191E0
1.652250843E1,5.983420610E-1,3.687179804E0,-1.848095059E0
1.653917437E1,1.507690668E0,4.088441849E0,-1.279074430E0
1.655584031E1,3.739027023E0,3.393964767E0,-8.084031940E-1
1.657250625E1,5.526340961E0,2.766148329E0,-1.113606453E0
1.658917218E1,5.604836941E0,3.004080296E0,-2.095571518E0
1.660583812E1,4.085005283E0,3.939543247E0,-2.829296589E0
1.662250406E1,2.767751932E0,4.811247349E0,-3.203833103E0
1.663917000E1,2.976820469E0,4.889056206E0,-3.341812134E0
1.665583593E1,4.383031368E0,4.089357853E0,-3.183216333E0
1.667250187E1,5.547110558E0,3.329747438E0,-3.126940489E0
1.668916781E1,5.670505047E0,3.025613308E0,-3.171380758E0
1.670583375E1,5.055746078E0,2.613432169E0,-3.150305986E0
1.672249968E1,3.992688656E0,1.628718257E0,-2.703076601E0
1.673916562E1,2.517755508E0,5.958985686E-1,-1.837252140E0
1.675583156E1,9.563088417E-1,6.239983439E-1,-7.475457788E-1
1.677249750E1,-3.911825418E-1,2.118402719E0,2.900844216E-1
1.678916343E1,-9.179006815E-1,3.588830471E0,1.116431713E0
1.680582937E1,-6.635518372E-2,3.941986799E0,1.895666122E0
1.682249531E1,1.494862437E0,3.098229885E0,2.752785683E0
1.683916125E1,2.754465580E0,1.734626889E0,3.546299219E0
1.685582718E1,2.808298111E0,9.653954506E-1,4.364094257E0
1.687249312E1,1.361693978E0,7.111993432E-1,5.253513336E0
1.688915906E1,-9.794453382E-1,2.990183234E-1,5.632784367E0
1.690582500E1,-3.277824163E0,2.888626754E-1,5.386300087E0
1.692249093E1,-4.731911182E0,1.065195426E-1,5.134013176E0
1.693915687E1,-4.699230194E0,-1.337259412E0,5.253818989E0
1.695582281E1,-3.413130522E0,-2.737819672E0,5.278482437E0
1.697248875E1,-2.052963734E0,-3.092273951E0,4.902495384E0
1.698915468E1,-1.039004683E0,-3.782245636E0,4.706102371E0
1.700582062E1,-9.046907425E-1,-4.391506672E0,5.306811333E0
1.702248656E1,-1.944764376E0,-3.399080753E0,5.684173107E0
1.703915250E1,-2.586096048E0,-1.177136421E0,4.173962593E0
1.705581843E1,-9.799798131E-1,1.552360058E-1,2.171700716E0
1.707248437E1,2.394437313E0,-4.643335938E-1,1.347338676E0
1.708915031E1,4.853855133E0,-1.266170025E0,1.125136614E0
1.710581625E1,4.787729263E0,-1.012737393E0,5.958222151E-1
1.712248218E1,2.817537546E0,-3.200931549E-1,-4.573849961E-2
1.713914812E1,3.924806118E-1,1.635590494E-1,-3.900371492E-1
1.715581406E1,-1.013119221E0,5.311469436E-1,-6.732493639E-1
1.717248000E1,-7.297543287E-1,7.175370455E-1,-1.182863235E0
1.718914593E1,8.326850533E-1,7.470875978E-1,-1.806632638E0
1.720581187E1,2.367406368E0,7.690787315E-1,-2.344117165E0
1.722247781E1,2.578154802E0,1.173623919E0,-2.600604057E0
1.723914375E1,1.811290383E0,1.865733743E0,-2.529591084E0
1.725580968E1,1.314504623E0,2.397491455E0,-2.521191597E0
1.727247562E1,2.222478867E0,2.651535034E0,-2.920086384E0
1.728914156E1,4.424570084E0,2.830289125E0,-3.674733400E0
1.730580750E1,6.531671524E0,2.623740673E0,-4.566748619E0
1.732247343E1,7.124516010E0,2.055101871E0,-5.289325237E0
1.733913937E1,6.319090843E0,1.731648922E0,-5.475791931E0
1.735580531E1,4.519635677E0,1.324202180E0,-5.574217319E0
1.737247125E1,2.460105181E0,1.862526655E0,-5.868654251E0
1.738913718E1,1.293277144E0,2.596404314E0,-6.043666840E0
1.740580312E1,1.304196358E0,2.703916550E0,-5.740678310E0
1.742246906E1,1.972558737E0,2.411999464E0,-4.835147381E0
1.743913500E1,2.483241796E0,2.370079041E0,-3.829587698E0
1.745580093E1,2.407723427E0,2.572427988E0,-2.971704483E0
1.747246687E1,2.018297195E0,2.656421900E0,-1.899254918E0
1.748913281E1,2.103131056E0,2.768973589E0,-6.317105293E-1
1.750579875E1,2.708345413E0,2.383594275E0,3.570504785E-1
1.752246468E1,2.891452074E0,1.678809166E0,1.042440772E0
1.753913062E1,2.225227594E0,1.120784163E0,1.952934742E0
1.755579656E1,9.018654823E-1,9.323323965E-1,3.015228510E0
1.757246250E1,-5.542834401E-1,9.160680771E-1,3.940536022E0
1.758912843E1,-1.677969217E0,9.741765857E-1,4.708240509E0
1.760579437E1,-2.097785950E0,6.511818767E-1,5.177690029E0
1.762246031E1,-1.622838616E0,-5.713112950E-1,5.133554935E0
1.763912625E1,-1.112002969E0,-2.160781384E0,4.670748234E0
1.765579218E1,-1.756847143E0,-3.181536436E0,4.757491112E0
1.767245812E1,-3.699626207E0,-3.544466496E0,6.326421261E0
1.768912406E1,-5.726093769E0,-2.682536364E0,7.283569813E0
1.770579000E1,-6.539918423E0,-5.031998754E-1,4.613250732E0
1.772245593E1,-5.292150497E0,1.215620875E0,7.299070358E-1
1.773912187E1,-1.956905365E0,7.223475724E-2,-6.428588033E-1
1.775578781E1,8.502474427E-1,-1.938426614E0,8.781181276E-2
1.777245375E1,1.114904523E0,-2.074649572E0,7.367792726E-1
1.778911968E1,-4.217257798E-1,-9.970076680E-1,5.644390583E-1
1.780578562E1,-2.105192661E0,-2.172387838E-1,1.689804643E-1
1.782245156E1,-2.855334759E0,-1.438586563E-1,-1.997527778E-1
1.783911750E1,-2.634201527E0,-3.403280377E-1,-4.735729098E-1
1.785578343E1,-1.820606112E0,-6.338485479E-1,-6.574432254E-1
1.787244937E1,-1.086346626E0,-6.444623470E-1,-8.924734592E-1
1.788911531E1,-9.236275554E-1,-9.476039559E-2,-1.352149248E0
1.790578125E1,-1.196455002E0,9.932661057E-1,-2.066020966E0
1.792244718E1,-1.047098637E0,2.172616959E0,-2.820439100E0
1.793911312E1,3.368919194E-1,2.687957764E0,-3.455585718E0
1.795577906E1,2.635805130E0,2.182238102E0,-3.821646452E0
1.797244500E1,4.246426582E0,1.712330341E0,-3.877693176E0
1.798911093E1,4.359283924E0,1.904141903E0,-3.855396748E0
1.800577687E1,3.693212032E0,2.376722097E0,-4.167090416E0
1.802244281E1,2.888932228E0,2.181703568E0,-3.806145668E0
1.803910875E1,2.194913626E0,1.702556491E0,-3.472766161E0
1.805577468E1,1.794033527E0,2.401004076E0,-3.991695881E0
1.807244062E1,1.850003958E0,3.138623238E0,-4.182056427E0
1.808910656E1,2.308839798E0,2.971933603E0,-3.971766472E0
1.810577250E1,2.719188213E0,2.431165457E0,-3.312796116E0
1.812243843E1,2.764697552E0,2.150702238E0,-2.258672476E0
1.813910437E1,2.639775753E0,2.240346670E0,-1.173318505E0
1.815577031E1,2.497215271E0,2.074649572E0,-2.366337478E-1
1.817243625E1,2.236376047E0,1.649334908E0,5.273290277E-1
1.818910218E1,1.896429658E0,1.368642569E0,1.248989344E0
1.820576812E1,1.394222498E0,8.406262994E-1,1.866039157E0
1.822243406E1,5.403862596E-1,2.400698513E-1,2.495000839E0
1.823910000E1,-5.697841048E-1,-1.638644785E-1,3.223838806E0
1.825576593E1,-1.601076603E0,-6.172788739E-1,3.900982380E0
1.827243187E1,-2.294713497E0,-1.139186502E0,4.485809326E0
1.828909781E1,-2.576398611E0,-1.533423305E0,4.923111916E0
1.830576375E1,-2.512639523E0,-1.747149587E0,5.007946014E0
1.832242968E1,-2.254091024E0,-1.771049738E0,4.741074085E0
1.833909562E1,-2.156658173E0,-1.647731423E0,4.368064880E0
1.835576156E1,-2.523558855E0,-2.074573040E0,4.432053089E0
1.837242750E1,-3.300807953E0,-2.740797520E0,6.082151413E0
1.838909343E1,-4.306825638E0,-2.757367373E0,7.242718220E0
1.840575937E1,-5.043375969E0,-5.421425104E-1,4.943728447E0
1.842242531E1,-4.395019531E0,2.134132385E0,1.231121659E0
1.843909125E1,-1.728976369E0,1.621464252E0,-6.724094152E-1
1.845575718E1,7.833577394E-1,-3.757582009E-1,-6.270527244E-1
1.847242312E1,9.753983617E-1,-8.570432663E-1,-9.254601598E-2
1.848908906E1,-5.881100893E-1,-2.499964088E-1,2.260199748E-2
1.850575500E1,-2.311435938E0,1.427896470E-1,-2.749654949E-1
1.852242093E1,-2.998124361E0,3.008509055E-2,-5.980366468E-1
1.853908687E1,-2.504698277E0,-2.475529462E-1,-9.033163190E-1
1.855575281E1,-1.392619014E0,-5.957458615E-1,-1.119027972E0
1.857241875E1,-1.486692131E-1,-1.038241029E0,-1.287397504E0
1.858908468E1,1.100167513E0,-1.420489669E0,-1.610926747E0
1.860575062E1,2.659781694E0,-2.147724152E0,-2.343582630E0
1.862241656E1,4.318584919E0,-3.630369425E0,-3.437336206E0
1.863908250E1,5.278253555E0,-5.423944950E0,-4.364858150E0
1.865574843E1,4.234209061E0,-5.887972832E0,-4.405938625E0
1.867241437E1,5.511527658E-1,-3.215057611E0,-3.971079111E0
1.868908031E1,-3.575773239E0,1.026023746E0,-4.349739075E0
1.870574625E1,-4.903182507E0,3.172297239E0,-5.469759464E0
1.872241218E1,-2.430325508E0,2.784474373E0,-5.368967056E0
1.873907812E1,2.325714827E0,1.209664941E0,-4.084928989E0
1.875574406E1,5.806956768E0,2.977202237E-1,-3.933358431E0
1.877241000E1,5.572995663E0,4.931969643E-1,-4.658607483E0
1.878907593E1,2.094655275E0,1.246851325E0,-5.628890038E0
1.880574187E1,-1.484935880E0,2.782870770E0,-5.862164021E0
1.882240781E1,-2.855334759E0,3.920148373E0,-4.985267639E0
1.883907375E1,-1.822820544E0,4.011320114E0,-3.608683586E0
1.885573968E1,7.425061464E-1,3.099986076E0,-2.268904448E0
1.887240562E1,2.813566923E0,1.837023139E0,-1.185764909E0
1.888907156E1,3.084638119E0,1.570456982E0,-6.394990683E-1
1.890573750E1,1.835648656E0,2.207970858E0,-4.849502742E-1
1.892240343E1,7.414371520E-2,2.472246170E0,-1.472947747E-1
1.893906937E1,-1.229365349E0,2.025093079E0,6.403390169E-1
1.895573531E1,-1.455309033E0,1.044960618E0,1.817475438E0
1.897240125E1,-9.725731015E-1,-1.160643101E-1,3.265301228E0
1.898906718E1,-6.323214173E-1,-7.725912333E-1,4.565679550E0
1.900573312E1,-7.559451461E-1,-7.539598346E-1,5.304749966E0
1.902239906E1,-1.287321210E0,-4.849502742E-1,5.263592720E0
1.903906500E1,-2.587699652E0,-1.769980639E-1,4.635470867E0
1.905573093E1,-4.594772339E0,1.136208475E-1,4.874395370E0
1.907239687E1,-6.310156822E0,1.643226296E-1,7.117567539E0
1.908906281E1,-6.219672680E0,-1.079474449E0,8.518508911E0
1.910572875E1,-4.337827206E0,-1.076191068E0,6.121399403E0
1.912239468E1,-2.476598501E0,-3.064250350E-1,1.937968493E0
1.913906062E1,-7.266236544E-1,-6.400335431E-1,8.422297984E-2
1.915572656E1,-3.567450345E-1,-1.235092282E0,6.181951761E-1
1.917239250E1,-1.271591425E0,-1.074511170E0,1.368260741E0
1.918905843E1,-2.148334980E0,-6.146826744E-1,1.598098636E0
1.920572437E1,-2.165897369E0,-6.776781082E-1,1.606268883E0
1.922239031E1,-1.212642908E0,-1.401858330E0,1.306792498E0
1.923905625E1,-1.505018175E-1,-1.757305264E0,8.584941030E-1
1.925572218E1,5.641336441E-1,-1.474780321E0,3.856847584E-1
1.927238812E1,9.808961153E-1,-1.151632786E0,-9.414953738E-2
1.928905406E1,1.106428862E0,-1.200654745E0,-5.184714794E-1
1.930572000E1,1.021824002E0,-1.491197228E0,-9.255365133E-1
1.932238593E1,8.989638686E-1,-1.353523612E0,-1.478598237E0
1.933905187E1,8.665117025E-1,-7.208204269E-1,-2.118555307E0
1.935571781E1,1.228372693E0,-1.708894223E-1,-2.571893454E0
1.937238375E1,1.907348871E0,9.804379940E-2,-2.652985811E0
1.938904968E1,2.498742342E0,1.609628648E-1,-2.695746183E0
1.940571562E1,2.727740288E0,2.839757502E-1,-2.875569582E0
1.942238156E1,3.065243006E0,7.350230217E-1,-2.415817499E0
1.943904750E1,3.352196932E0,7.089849114E-1,-1.465541005E0
1.945571343E1,2.670089960E0,-3.717112243E-1,-1.661857605E0
1.947237937E1,6.740893126E-1,6.116283685E-2,-3.121519089E0
1.948904531E1,-1.713017583E0,2.050443888E0,-4.717403412E0
1.950571125E1,-2.472017050E0,3.767737627E0,-5.434940338E0
1.952237718E1,-1.397047758E0,4.444728374E0,-5.266112328E0
1.953904312E1,4.773144722E-1,4.123260975E0,-4.425104618E0
1.955570906E1,2.280434608E0,3.347691774E0,-3.329976559E0
1.957237500E1,3.506363869E0,2.456363678E0,-2.667417526E0
1.958904093E1,4.071719170E0,1.826867461E0,-2.443688154E0
1.960570687E1,4.031707764E0,1.645975113E0,-2.362366915E0
1.962237281E1,3.744448423E0,1.648342252E0,-2.404974699E0
1.963903875E1,3.422446251E0,1.704847217E0,-2.610912323E0
1.965570468E1,3.220402718E0,1.748982191E0,-2.849225998E0
1.967237062E1,3.297753572E0,1.619631648E0,-2.968420982E0
1.968903656E1,3.804694891E0,1.226463795E0,-2.864192247E0
1.970570250E1,4.482907772E0,6.369028687E-1,-2.574413300E0
1.972236843E1,4.834689140E0,-1.585957706E-1,-2.367253780E0
1.973903437E1,4.514443398E0,-1.043662429E0,-2.407647133E0
1.975570031E1,3.326311350E0,-1.496007800E0,-2.619006395E0
1.977236625E1,1.877416492E0,-1.232801437E0,-2.595029831E0
1.978903218E1,4.400517046E-1,-5.345066786E-1,-2.204305649E0
1.980569812E1,-1.105283499E0,1.724165827E-1,-1.483790517E0
1.982236406E1,-2.890917540E0,7.267000079E-1,-5.361865759E-1
1.983903000E1,-4.618061543E0,1.052978158E0,7.409026027E-1
1.985569593E1,-5.732126236E0,1.092149854E0,2.408105373E0
1.987236187E1,-5.663632870E0,7.857248187E-1,4.552164555E0
1.988902781E1,-4.480158806E0,2.680932879E-1,6.769908905E0
1.990569375E1,-2.929783821E0,-3.693441153E-1,7.721101761E0
1.992235968E1,-1.475772977E0,-9.044616818E-1,6.481962681E0
1.993902562E1,-7.412080765E-1,-1.023274899E0,5.002982616E0
1.995569156E1,-1.012661099E0,-2.445749789E-1,4.626307964E0
1.997235750E1,-1.584888697E0,5.951350331E-1,4.776809692E0
1.998902343E1,-1.805868983E0,6.137663722E-1,4.884627342E0
2.000568937E1,-1.467144489E0,-2.214384731E-3,4.533685684E0
2.002235531E1,-6.312524080E-1,-6.792816520E-1,3.740095854E0
2.003902125E1,3.279580176E-1,-8.048143387E-1,2.756450891E0
2.005568718E1,8.595631123E-1,-4.577668011E-1,1.925445795E0
2.007235312E1,9.284381270E-1,-1.466839015E-1,1.474474907E0
2.008901906E1,1.014951825E0,3.436114406E-3,1.284419537E0
2.010568500E1,1.658803344E0,2.322813272E-1,1.018846035E0
2.012235093E1,2.735834360E0,1.866955459E-1,4.993819594E-1
2.013901687E1,3.737041712E0,-2.876409590E-1,-8.132137358E-2
2.015568281E1,4.262003422E0,-7.815251350E-1,-5.451968312E-1
2.017234875E1,4.121275425E0,-7.686969638E-1,-8.404735923E-1
2.018901468E1,3.565541267E0,-2.919169962E-1,-1.064966440E0
2.020568062E1,2.922377110E0,1.122464016E-1,-1.161330342E0
2.022234656E1,2.460945129E0,1.763872057E-2,-1.241735339E0
2.023901250E1,2.303342104E0,-3.994292021E-1,-1.329852581E0
2.025567843E1,2.221715212E0,-1.081154346E0,-9.760091901E-1
2.027234437E1,1.379027247E0,-1.162093878E0,-1.146745920E0
2.028901031E1,-4.998401105E-1,3.619373962E-2,-2.348775148E0
2.030567625E1,-1.993404508E0,2.226449490E0,-4.090655804E0
2.032234218E1,-1.647044182E0,3.753611326E0,-5.092245102E0
2.033900812E1,3.591884971E-1,3.426722288E0,-5.079951286E0
2.035567406E1,2.543488264E0,2.421238899E0,-4.729238987E0
2.037234000E1,3.749488115E0,1.961181402E0,-4.554149628E0
2.038900593E1,3.901593447E0,2.218050003E0,-4.490161419E0
2.040567187E1,3.466046810E0,2.723540545E0,-4.347218990E0
2.042233781E1,2.902829409E0,3.049589634E0,-4.185874462E0
2.043900375E1,2.409479856E0,3.214599609E0,-4.051713467E0
2.045566968E1,1.844429851E0,3.345629930E0,-4.064923286E0
2.047233562E1,1.271896839E0,3.531485558E0,-4.082638264E0
2.048900156E1,8.897245526E-1,3.621282816E0,-3.758345604E0
2.050566750E1,5.516108871E-1,3.555996656E0,-3.235368967E0
2.052233343E1,2.672533393E-1,3.458105564E0,-2.635957956E0
2.053899937E1,1.626427472E-1,3.275533199E0,-2.219806194E0
2.055566531E1,1.950185746E-1,2.823035240E0,-2.044106245E0
2.057233125E1,2.819904685E-1,2.095953465E0,-1.912541270E0
2.058899718E1,4.092793912E-2,1.515020967E0,-1.632230639E0
2.060566312E1,-6.768381596E-1,1.492495418E0,-1.096578598E0
2.062232906E1,-1.660712242E0,2.142150164E0,-2.829830945E-1
2.063899500E1,-2.568457365E0,3.171075344E0,6.084976792E-1
2.065566093E1,-3.102963924E0,3.924118996E0,1.339321017E0
2.067232687E1,-3.154734850E0,3.706498384E0,1.975307584E0
2.068899281E1,-2.943604708E0,2.276234865E0,2.928333044E0
2.070565875E1,-2.453538418E0,6.711876392E-2,4.080653191E0
2.072232468E1,-2.041128397E0,-1.378340006E0,4.882031441E0
2.073899062E1,-1.724318504E0,-1.216384530E0,4.860879898E0
2.075565656E1,-1.416290045E0,1.266017258E-1,4.184041977E0
2.077232250E1,-1.226616502E0,1.723402262E0,3.282481909E0
2.078898843E1,-1.044044256E0,2.646495342E0,2.446284294E0
2.080565437E1,-6.402626634E-1,2.612974167E0,1.742033601E0
2.082232031E1,-1.706603467E-1,1.875660300E0,1.378492713E0
2.083898625E1,2.057850659E-1,1.210352182E0,1.266933560E0
2.085565218E1,5.905535221E-1,9.029344916E-1,1.264948249E0
2.087231812E1,1.067638874E0,7.404444814E-1,1.299996614E0
2.088898406E1,1.511737585E0,5.640572906E-1,1.317253590E0
2.090565000E1,1.816711903E0,3.836994469E-1,1.301218390E0
2.092231593E1,1.926896572E0,2.632827163E-1,1.264261007E0
2.093898187E1,1.858632445E0,2.935205400E-1,1.204548955E0
2.095564781E1,1.625969291E0,4.598284662E-1,1.024267554E0
2.097231375E1,1.341382742E0,8.669698238E-1,7.493020296E-1
2.098897968E1,1.048549414E0,1.469206095E0,5.001455545E-1
2.100564562E1,8.058833480E-1,2.101833105E0,4.400517046E-1
2.102231156E1,7.949641347E-1,2.562806845E0,5.545125008E-1
2.103897750E1,1.133383274E0,2.460639715E0,7.105884552E-1
2.105564343E1,1.567631721E0,2.077856541E0,8.333722949E-1
2.107230937E1,1.869017124E0,1.743560791E0,8.446732759E-1
2.108897531E1,1.934608698E0,1.610239506E0,7.177661061E-1
2.110564125E1,1.826332927E0,1.724700332E0,5.592467189E-1
2.112230718E1,1.639713764E0,1.945069790E0,4.054614902E-1
2.113897312E1,1.482492447E0,2.181779861E0,2.808450758E-1
2.115563906E1,1.188361049E0,2.638630390E0,3.797288239E-1
2.117230500E1,7.343358397E-1,3.293553829E0,5.473348498E-1
2.118897093E1,1.208748668E-1,3.769035578E0,6.759218574E-1
2.120563687E1,-6.128500700E-1,3.983602047E0,6.562215090E-1
2.122230281E1,-1.081536055E0,3.522857189E0,5.002219081E-1
2.123896875E1,-1.123304009E0,2.954447508E0,5.627591908E-2
2.125563468E1,-1.112690210E0,2.836779594E0,-3.691150546E-1
2.127230062E1,-1.239444613E0,3.091663122E0,-4.450149834E-1
2.128896656E1,-1.388113856E0,3.413665056E0,-1.028543562E-1
2.130563250E1,-1.435761333E0,3.622275352E0,4.192823172E-1
2.132229843E1,-1.461188555E0,3.410076380E0,8.065705895E-1
2.133896437E1,-1.565646410E0,2.917184830E0,9.304234385E-1
2.135563031E1,-1.630321741E0,2.183001757E0,9.405027032E-1
2.137229625E1,-1.597793221E0,1.610468626E0,1.058781385E0
2.138896218E1,-1.449353099E0,1.530369043E0,1.284114122E0
2.140562812E1,-1.121165991E0,1.852752924E0,1.482797861E0
2.142229406E1,-7.982475758E-1,2.318079233E0,1.558926940E0
2.143896000E1,-7.000510097E-1,2.434601545E0,1.433165073E0
2.145562593E1,-8.558215499E-1,2.024329424E0,1.346422315E0
2.147229187E1,-1.215010047E0,1.612988472E0,1.287932038E0
2.148895781E1,-1.641317248E0,1.038241029E0,1.255098104E0
2.150562375E1,-1.762039423E0,4.200458825E-1,1.204701662E0
2.152228968E1,-1.504025459E0,5.406916738E-1,1.334663153E0
2.153895562E1,-1.002123713E0,8.289434910E-1,1.569617033E0
2.155562156E1,-3.701077104E-1,8.351284862E-1,1.641775489E0
2.157228750E1,2.215148360E-1,8.912517428E-1,1.365817308E0
2.158895343E1,6.632464528E-1,7.970257998E-1,1.111315727E0
2.160561937E1,4.932733178E-1,7.383827865E-2,1.350698352E0
2.162228531E1,3.094793558E-1,1.381317973E-1,1.428201914E0
2.163895125E1,5.068650246E-1,6.518690586E-1,1.128419995E0
2.165561718E1,5.241983533E-1,4.910589159E-1,1.166293621E0
2.167228312E1,5.280926228E-1,1.631772518E-1,1.467602611E0
2.168894906E1,6.554579139E-1,-3.420842811E-2,1.694844365E0
2.170561500E1,7.250201106E-1,-2.153298408E-1,1.721646070E0
2.172228093E1,4.566977918E-1,-5.047270060E-1,1.599396706E0
2.173894687E1,1.826485693E-1,-6.940951347E-1,1.516777277E0
2.175561281E1,1.050687432E-1,-8.701004982E-1,1.425758362E0
2.177227875E1,1.385899484E-1,-9.001092315E-1,1.135750294E0
2.178894468E1,1.673005968E-1,-5.045742989E-1,8.636100888E-1
2.180561062E1,-2.325104028E-1,-3.501782417E-1,6.322450638E-1
2.182227656E1,-3.002400398E-1,2.261726856E-1,7.735838890E-1
2.183894250E1,-1.908952487E-3,5.126682520E-1,9.453896284E-1
2.185560843E1,2.111301422E-1,5.015963316E-1,1.065500855E0
2.187227437E1,2.777907550E-1,2.299905866E-1,1.091080904E0
2.188894031E1,1.497382224E-1,-1.631008983E-1,9.474512935E-1
2.190560625E1,1.046869531E-1,-4.672352076E-1,8.044325709E-1
2.192227218E1,2.465602905E-1,-6.756164432E-1,6.988292933E-1
2.193893812E1,2.742782831E-1,-7.844267488E-1,6.671407223E-1
2.195560406E1,1.524107605E-1,-8.051961660E-1,7.145590782E-1
2.197227000E1,1.266017258E-1,-6.892845631E-1,6.752346754E-1
2.198893593E1,2.179260105E-1,-3.790415823E-1,4.894554019E-1
2.200560187E1,2.842811942E-1,-1.146135032E-1,3.210094273E-1
2.202226781E1,2.708421648E-1,-7.811433077E-2,1.948658675E-1
2.203893375E1,2.167042792E-1,-1.773798615E-1,1.037706509E-1
2.205559968E1,1.314886510E-1,-2.720639110E-1,6.032289565E-2
2.207226562E1,-1.069013379E-3,-2.682459950E-1,4.123337194E-2
2.208893156E1,-1.858556122E-1,-2.111301422E-1,1.320995111E-2
2.210559750E1,-3.218493760E-1,-4.810560122E-2,-4.566214234E-2
2.212226343E1,-3.794997334E-1,1.954767257E-1,-7.261654735E-2
2.213892937E1,-2.901607752E-1,3.348302543E-1,-3.901898861E-2
2.215559531E1,-1.215620935E-1,2.806160152E-1,4.085158184E-2
2.217226125E1,3.237583488E-2,8.567378670E-2,1.322522312E-1
2.218892718E1,2.009745091E-1,-1.185077652E-1,1.527161896E-1
2.220559312E1,3.336848915E-1,-1.973093301E-1,1.102610901E-1
2.222225906E1,3.788125217E-1,-1.437059343E-1,5.039634556E-2
2.223892500E1,3.636172712E-1,-1.313359290E-2,8.475748822E-3
2.225559093E1,3.352884054E-1,1.123227626E-1,4.810560029E-3
2.227225687E1,2.703840137E-1,1.456912458E-1,2.557996288E-2
2.228892281E1,1.808923334E-1,1.316413581E-1,3.016144782E-2
2.230558875E1,8.536835015E-2,1.012508348E-1,1.267544460E-2
2.232225468E1,4.581485875E-3,6.834049523E-2,-2.626718581E-2
2.233892062E1,2.061668551E-3,7.796161622E-2,-4.046979174E-2
2.235558656E1,6.230820715E-2,9.407317638E-2,2.756527252E-2
2.237225250E1,1.576794684E-1,1.156061590E-1,1.205694377E-1
2.238891843E1,2.241873741E-1,1.052978188E-1,1.680641770E-1
2.240558437E1,2.380081862E-1,7.872519642E-2,1.714239269E-1
2.242225031E1,1.711184978E-1,1.217911690E-1,1.550069451E-1
2.243891625E1,9.980003536E-2,1.618028134E-1,1.363755614E-1
2.245558218E1,5.070177838E-2,2.273180634E-1,1.275180280E-1
2.247224812E1,-6.414080039E-3,3.047451675E-1,1.467602700E-1
2.248891406E1,-6.589704007E-2,3.498727977E-1,1.805105358E-1
2.250558000E1,-1.535561383E-1,3.789652288E-1,1.959348768E-1
2.252224593E1,-3.750709891E-1,4.444804788E-1,1.744018942E-1
2.253891187E1,-3.691914082E-1,4.627300799E-1,1.915824711E-1
2.255557781E1,-1.683696061E-1,3.992001414E-1,2.112064958E-1
2.257224375E1,7.024945319E-2,2.831358314E-1,2.259436101E-1
2.258890968E1,2.196058929E-1,2.388481349E-1,2.573267817E-1
