"Time (s)","Linear Acceleration x (m/s^2)","Linear Acceleration y (m/s^2)","Linear Acceleration z (m/s^2)"
6.211866400E-2,0.000000000E0,0.000000000E0,0.000000000E0
7.878460100E-2,-6.545495987E-2,-1.861555576E-1,-8.299188614E-1
9.545053900E-2,-4.714126587E-1,5.225372314E-1,-1.775825977E0
1.121164760E-1,-2.152395248E-2,5.181436539E-1,-1.739483833E0
1.287824140E-1,3.957138062E-1,2.674303055E-1,-1.211673737E0
1.454483510E-1,4.488635063E-1,1.241240501E-1,-4.947733879E-1
1.621142890E-1,1.792473793E-1,-8.500623703E-2,7.187519073E-1
1.787802260E-1,-1.227087975E-1,-2.354123592E-1,1.210657120E0
1.954461640E-1,-3.703293800E-1,-2.440154552E-1,7.030506134E-1
2.121121010E-1,-1.541857719E-1,-2.859818935E-1,-3.745508194E-2
2.287780390E-1,4.426527023E-2,6.353855133E-3,-5.391936302E-1
2.454439760E-1,3.166007996E-2,3.780794144E-2,-5.699133873E-1
2.621099140E-1,-2.246556282E-1,-1.810200214E-1,-2.506623268E-1
2.787758510E-1,-4.604687691E-1,-2.801973820E-1,5.592346191E-2
2.954417890E-1,-1.479444504E-1,-3.711028099E-1,-4.686355591E-3
3.121077260E-1,9.733152390E-2,-3.606083393E-1,-2.046885490E-1
3.287736640E-1,4.116344452E-2,-2.272427082E-1,-5.111007690E-1
3.454396010E-1,7.711315155E-2,-1.630046368E-1,-6.974024773E-1
3.621055390E-1,1.709327698E-1,-1.039054394E-1,-5.857520103E-1
3.787714760E-1,2.160344124E-1,-1.625897884E-1,-4.707651138E-1
3.954374140E-1,7.268428802E-2,-9.892225266E-2,-4.012694359E-1
4.121033510E-1,3.392219543E-3,4.252314568E-2,-3.827543259E-1
4.287692890E-1,5.861806870E-2,5.626535416E-2,-6.588306427E-1
4.454352260E-1,1.062936783E-1,2.292060852E-1,-7.418742180E-1
4.621011640E-1,1.630063057E-1,1.359188557E-1,-7.671875954E-1
4.787671010E-1,5.203723907E-2,1.779606342E-1,1.484069824E-1
4.954330390E-1,1.455602646E-1,-3.952169418E-2,-1.675758362E-1
5.120989760E-1,5.334615707E-2,-6.474804878E-2,-2.779197693E-2
5.287649140E-1,-5.810832977E-2,-3.179478645E-2,-2.812919617E-1
5.454308510E-1,-1.657466888E-1,1.153118610E-1,-5.646328926E-1
5.620967890E-1,-2.497549057E-1,3.045523167E-1,-5.363121033E-1
5.787627260E-1,-2.240738869E-1,3.195970058E-1,-2.972602844E-2
5.954286640E-1,-1.697640419E-1,-8.393740654E-2,6.744184494E-1
6.120946010E-1,2.811431885E-3,-6.282649040E-1,-4.603958130E-2
6.287605390E-1,-3.612413406E-1,-4.276337624E-1,8.225250244E-2
6.454264760E-1,-6.158664227E-1,7.053411007E-2,1.623353958E-1
6.620924140E-1,-3.824410439E-1,2.851704359E-1,6.388473511E-2
6.787583510E-1,-7.133841515E-2,2.503713965E-1,1.685533524E-1
6.954242890E-1,2.748250961E-2,5.860006809E-2,4.399871826E-1
7.120902260E-1,1.096727848E-1,-2.165829688E-1,4.594259262E-1
7.287561640E-1,-5.297374725E-2,-2.050246298E-1,4.011535645E-1
7.454221010E-1,-2.725443840E-1,1.011312306E-1,2.423553467E-1
7.620880390E-1,-4.386625290E-1,3.246188164E-1,1.275701523E-1
7.787539760E-1,-5.546007156E-1,4.886527061E-1,1.004276276E-1
7.954199140E-1,-3.899278641E-1,6.918933988E-1,3.307342529E-3
8.120858510E-1,8.017706871E-2,4.553356767E-1,-4.506759644E-1
8.287517890E-1,3.145875931E-1,-5.022364855E-2,-7.347383499E-1
8.454177260E-1,1.540255547E-1,-2.664474249E-1,-1.979665756E-1
8.620836640E-1,-1.433608532E-1,-7.418322563E-2,2.563438416E-1
8.787496010E-1,1.625806093E-1,3.515251875E-1,9.196281433E-2
8.954155390E-1,5.677729249E-1,2.158648968E-1,2.771759033E-1
9.120814760E-1,6.052277088E-1,-2.382943630E-1,2.683391571E-1
9.287474140E-1,2.995439172E-1,-2.017840147E-1,1.877365112E-1
9.454133510E-1,-1.609283686E-1,-6.278204918E-2,4.736671448E-1
9.620792890E-1,-7.134556770E-1,2.634747028E-1,1.159018517E0
9.787452260E-1,-7.448343635E-1,2.168736458E-1,2.163644791E0
9.954111640E-1,-3.473641872E-1,-1.545908451E-1,1.457349777E0
1.012077101E0,5.607829094E-1,-6.254498959E-1,6.742906570E-1
1.028743039E0,1.302207470E0,-5.721874237E-1,1.327323914E-1
1.045408976E0,1.459863067E0,-4.809987545E-1,4.075050354E-2
1.062074914E0,1.202581406E0,-7.239001989E-1,-7.840871811E-1
1.078740851E0,9.044904113E-1,-9.942104816E-1,-1.358716011E0
1.095406789E0,6.343923211E-1,-1.441915274E0,-1.005722046E0
1.112072726E0,1.163450480E-1,-1.504512072E0,-1.434640884E-1
1.128738664E0,-1.346931815E0,-5.990478396E-2,-3.734741211E-1
1.145404601E0,-2.317621708E0,5.989621878E-1,-1.378276825E0
1.162070539E0,-1.564294577E0,3.239732981E-1,-1.982450008E0
1.178736476E0,1.472317576E-1,1.067894846E-1,-1.422749519E0
1.195402414E0,6.199035048E-1,6.717782021E-1,-1.183725357E0
1.212068351E0,9.921873808E-1,-4.496214390E-1,-6.566629410E-1
1.228734289E0,6.154810786E-1,-5.654266477E-1,2.864036560E-1
1.245400226E0,-2.720081806E-2,-3.306628168E-1,9.261360168E-1
1.262066164E0,-6.418633461E-1,1.283706874E-1,8.368215561E-1
1.278732101E0,-6.612420082E-1,1.565781236E-1,6.962614059E-1
1.295398039E0,-5.116973519E-1,1.013767645E-1,3.273668289E-1
1.312063976E0,-1.925979853E-1,1.127082855E-1,6.928329468E-1
1.328729914E0,-7.172840834E-2,1.257905662E-1,3.380556107E-1
1.345395851E0,8.375048637E-3,9.834766388E-2,3.094711304E-1
1.362061789E0,1.766334772E-1,-1.030391306E-1,8.881626129E-1
1.378727726E0,-4.361259937E-2,2.546148598E-1,5.425891876E-1
1.395393664E0,-3.154943585E-1,4.151108861E-2,-3.036022186E-1
1.412059601E0,-2.759153843E-1,-1.780441403E-1,-1.828823090E-1
1.428725539E0,-5.405179262E-1,2.940028906E-2,3.655900955E-1
1.445391476E0,-5.402598977E-1,-6.641554832E-2,1.373176575E-1
1.462057414E0,-2.444335222E-1,-7.301038504E-2,-4.074745178E-1
1.478723351E0,9.466338158E-2,-1.899135113E-1,-5.968418121E-1
1.495389289E0,2.123604715E-1,2.172392607E-2,2.347087860E-2
1.512055226E0,1.573767662E-1,1.099961996E-2,4.342947006E-1
1.528721164E0,9.431779385E-3,-1.777896285E-1,1.930932999E-1
1.545387101E0,-2.043685913E-1,-1.315390468E-1,-9.106826782E-2
1.562053039E0,-3.420407176E-1,-1.741536260E-1,-1.059436798E-2
1.578718976E0,-3.330126405E-1,-1.582443714E-2,-1.881647110E-1
1.595384914E0,-2.283328772E-2,1.716613770E-4,-4.477748871E-1
1.612050851E0,1.733596921E-1,6.055724621E-2,-6.606779099E-1
1.628716789E0,2.819816768E-1,-6.846928596E-2,-2.576751709E-1
1.645382726E0,2.611721754E-1,-2.308820486E-1,2.871065140E-1
1.662048664E0,9.863716364E-2,-2.186845541E-1,3.432016373E-1
1.678714601E0,-7.164913416E-2,-1.005824804E-1,7.382116318E-1
1.695380539E0,-1.136251688E-1,-6.901574135E-2,3.314447403E-1
1.712046476E0,-1.905248761E-1,2.061029673E-1,-1.356315613E-2
1.728712414E0,4.685485363E-2,-2.501461506E-1,-5.740194321E-1
1.745378351E0,3.067071438E-1,-1.290733814E-1,-6.948671341E-1
1.762044289E0,4.180280268E-1,7.057785988E-3,-5.962591171E-1
1.778710226E0,4.627531469E-1,-2.535033226E-2,-5.440235138E-1
1.795376164E0,3.898724020E-1,7.977044582E-2,-3.251686096E-1
1.812042101E0,2.214663625E-1,-3.001213074E-3,3.193645477E-1
1.828708039E0,6.080907583E-2,-1.251393557E-1,7.395734787E-1
1.845373976E0,-1.077933908E-1,1.715040207E-2,3.676280975E-1
1.862039914E0,-1.874816418E-1,1.126265526E-2,2.143182755E-1
1.878705851E0,-1.745188236E-1,1.981368065E-1,3.960809708E-1
1.895371789E0,-7.815325260E-2,7.462263107E-2,5.646133423E-1
1.912037726E0,1.805085838E-1,-4.768663645E-1,-2.035655975E-1
1.928703664E0,3.769164383E-1,-1.548027992E-2,-9.370450974E-1
1.945369601E0,1.870651543E-1,2.309155464E-1,-4.528970718E-1
1.962035539E0,-3.092140555E-1,2.253849506E-1,3.798294067E-1
1.978701476E0,-5.145186186E-1,-1.235914230E-2,-1.084938049E-1
1.995367414E0,-3.933590055E-1,2.750132084E-1,-1.087974548E0
2.012033351E0,-2.708533108E-1,4.991629124E-1,-1.391338348E0
2.028699289E0,-1.002641916E-1,3.801834583E-1,-9.490489960E-1
2.045365226E0,-5.697584152E-2,3.876912594E-1,-4.854450226E-1
2.062031164E0,2.834492326E-1,-3.216004372E-2,-4.838438034E-1
2.078697101E0,3.987827003E-1,5.204129219E-2,-5.778179169E-1
2.095363039E0,3.255852461E-1,3.360724449E-2,-4.830265045E-2
2.112028976E0,2.199700177E-1,9.817242622E-2,2.385015488E-1
2.128694914E0,-1.582950354E-2,-1.275248528E-1,1.688079834E-1
2.145360851E0,-3.310184479E-1,-3.179025650E-2,1.610651016E-1
2.162026789E0,-5.144445896E-1,-1.423780918E-1,5.762386322E-1
2.178692726E0,-4.926186800E-1,6.798791885E-2,-2.505331039E-1
2.195358664E0,-5.819645524E-2,-1.502299309E-2,-5.792360306E-1
2.212024601E0,2.473981380E-1,-6.139445305E-2,-1.407079697E-1
2.228690539E0,6.186789274E-2,-9.296035767E-2,4.685974121E-1
2.245356476E0,-4.893062413E-1,-2.235133648E-1,8.038587570E-1
2.262022414E0,-6.105451584E-1,-1.830618382E-1,7.305278778E-1
2.278688351E0,-4.922028780E-1,-4.436852932E-1,1.621522903E-1
2.295354289E0,4.052942991E-2,-7.941465378E-1,-1.884365082E-1
2.312020226E0,5.021799207E-1,-4.969766140E-1,3.979969025E-2
2.328686164E0,4.297537804E-1,6.468515396E-1,-4.075107574E-1
2.345352101E0,3.441295028E-1,4.224116802E-1,-4.943504333E-1
2.362018039E0,-1.020787954E-1,2.827036381E-1,-1.881732941E-1
2.378683976E0,-1.064950451E-1,3.281784058E-1,2.751922607E-2
2.395349914E0,-1.110975146E-1,-1.340382099E-1,3.398666382E-1
2.412015851E0,3.149712682E-1,-3.183548450E-1,-2.863121033E-2
2.428681789E0,1.480308652E0,-1.070486784E0,4.634857178E-1
2.445347726E0,9.074641466E-1,-1.446825981E0,-7.132377625E-1
2.462013664E0,-5.879386067E-1,-5.154354572E-1,-9.991402626E-1
2.478679601E0,-1.602946043E0,-4.678153992E-2,-6.127052307E-1
2.495345539E0,-1.809752464E0,2.283430099E-2,-1.351642609E-1
2.512011476E0,-1.456117511E0,-1.096539497E-1,1.874752045E-1
2.528677414E0,-4.300286770E-1,3.259096146E-1,-1.234514236E0
2.545343351E0,-1.064287424E-1,9.683957100E-1,-2.166164398E0
2.562009289E0,-9.655106068E-2,7.284026146E-1,-3.041697979E0
2.578675226E0,-4.814231396E-2,7.085032463E-1,-2.094568729E0
2.595341164E0,6.182690859E-1,7.275919914E-1,-2.002034187E0
2.612007101E0,1.438987255E0,9.299240112E-1,1.002204895E0
2.628673039E0,8.601452112E-1,-2.967305183E-1,1.367883682E0
2.645338976E0,8.174037933E-2,1.251595020E0,1.164359093E0
2.662004914E0,-1.753017664E0,-5.571632385E-1,1.606019020E0
2.678670851E0,-1.065674663E0,2.825632095E-1,1.791353226E0
2.695336789E0,-1.734122038E-1,-4.101185799E-1,7.221155167E-1
2.712002726E0,-6.355730295E-1,4.921727180E-1,-1.283637524E0
2.728668664E0,-1.053828001E-1,3.028030396E-1,-1.355228424E-1
2.745334601E0,-5.678946972E-1,1.365327835E-1,6.090478897E-1
2.762000539E0,-9.511798620E-1,-4.468917847E-3,1.527581215E0
2.778666476E0,-7.371437550E-1,1.346559525E-1,1.184391975E0
2.795332414E0,-2.051330209E-1,1.428227425E-1,5.094575882E-1
2.811998351E0,-1.366040707E-1,1.913585663E-1,9.501457214E-2
2.828664289E0,-2.737051845E-1,2.501668930E-1,-2.083511353E-1
2.845330226E0,-3.213300705E-1,3.253154755E-1,-5.998582840E-1
2.861996164E0,-4.955962300E-1,5.351552963E-1,-4.109668732E-1
2.878662101E0,-6.587355733E-1,7.633495331E-1,7.989025116E-2
2.895328039E0,-1.909039021E-1,4.009628296E-2,-6.738662720E-2
2.911993976E0,3.190994263E-3,-4.371671677E-1,-2.555093765E-1
2.928659914E0,-4.357163906E-1,-2.313303947E-1,-6.053328514E-1
2.945325851E0,-8.845080733E-1,2.957115173E-1,-6.288394928E-1
2.961991789E0,-8.738576770E-1,2.410235405E-1,-8.097267151E-1
2.978657726E0,1.258850098E-3,1.648125648E-1,-4.653196335E-1
2.995323664E0,2.425183058E-1,1.931414604E-1,-5.854640007E-1
3.011989601E0,5.567705631E-2,1.569442749E-1,-2.295713425E-1
3.028655539E0,-2.433078289E-1,6.602668762E-2,-4.836082458E-3
3.045321476E0,-4.318729639E-1,7.715749741E-2,-9.504699707E-2
3.061987414E0,-3.372697830E-1,1.784224510E-1,-3.557672501E-1
3.078653351E0,-1.579527855E-1,3.489594460E-1,-4.560422897E-1
3.095319289E0,-5.294919014E-2,4.431200027E-2,-4.344491959E-1
3.111985226E0,2.088766098E-1,-6.268854141E-1,1.065368652E-1
3.128651164E0,3.897643089E-2,-3.202824593E-1,6.319522858E-1
3.145317101E0,-1.701217890E-1,-3.989934921E-2,2.017765045E-1
3.161983039E0,-3.435114622E-1,2.342801094E-1,-6.944847107E-2
3.178648976E0,-1.386308670E-2,1.930108070E-1,-1.159353256E-1
3.195314914E0,4.781192541E-1,2.291469574E-1,-9.233093262E-2
3.211980851E0,3.116412163E-1,1.302943230E-1,-7.460403442E-2
3.228646789E0,2.246912718E-1,-3.023672104E-2,2.039117813E-1
3.245312726E0,9.545433521E-2,3.922128677E-2,3.429059982E-1
3.261978664E0,1.318043470E-1,1.118202209E-1,4.382705688E-2
3.278644601E0,-2.167576551E-1,2.379488945E-1,-8.774852753E-2
3.295310539E0,1.603639126E-2,8.198070526E-2,-1.242856979E-1
3.311976476E0,-7.593488693E-2,1.375422478E-1,-1.714019775E-1
3.328642414E0,-2.476066351E-1,2.573442459E-2,-1.689472198E-1
3.345308351E0,-2.136889696E-1,-3.014321327E-1,-9.555149078E-2
3.361974289E0,-1.283799410E-1,-1.902933121E-1,-2.794837952E-2
3.378640226E0,-1.076251268E-1,-3.941011429E-2,-9.125232697E-2
3.395306164E0,6.467950344E-2,-5.014896393E-3,-2.087783813E-1
3.411972101E0,2.095808983E-1,9.701681137E-2,-3.387212753E-1
3.428638039E0,2.386195660E-1,3.850936890E-2,-1.464471817E-1
3.445303976E0,9.016871452E-2,-7.514953613E-3,7.757282257E-2
3.461969914E0,3.683686256E-3,-6.627416611E-2,4.049491882E-1
3.478635851E0,1.002168655E-2,-6.979131699E-2,4.498806000E-1
3.495301789E0,7.569789886E-2,-2.457141876E-3,1.210956573E-1
3.511967726E0,1.067123413E-1,-5.188274384E-2,-7.751560211E-2
3.528633664E0,7.866418362E-2,2.286720276E-2,-1.578187943E-1
3.545299601E0,1.663137674E-1,-2.240514755E-2,-2.121000290E-1
3.561965539E0,2.449898720E-1,-2.111911774E-2,-2.355766296E-1
3.578631476E0,1.146290302E-1,-7.562160492E-3,-2.878189087E-1
3.595297414E0,6.982561350E-1,-8.680968285E-1,-2.685880661E-1
3.611963351E0,-5.848670006E-1,5.568537712E-1,2.595968246E-1
3.628629289E0,-1.800892353E-1,-1.309466362E-1,2.717676163E-1
3.645295226E0,2.242828608E-1,-2.612881660E-1,2.347927094E-1
3.661961164E0,2.822976112E-1,1.392378807E-1,-4.881372452E-1
3.678627101E0,6.791632175E-1,6.234216690E-2,4.375457764E-3
3.695293039E0,4.591336250E-1,1.229677200E-1,-1.324634552E-1
3.711958976E0,1.055417061E-1,1.322379112E-1,2.605619431E-1
3.728624914E0,4.383616447E-1,-6.311988831E-2,2.306833267E-1
3.745290851E0,-4.199600220E-2,9.998178482E-2,1.812829971E-1
3.761956789E0,-4.238069057E-1,3.974499702E-1,1.468343735E-1
3.778622726E0,-2.430622578E-1,1.364583969E-1,3.075971603E-1
3.795288664E0,2.052378654E-2,4.932403564E-2,2.132101059E-1
3.811954601E0,-2.824401855E-2,7.092952728E-2,1.717319489E-1
3.828620539E0,-7.198071480E-2,7.510375977E-2,3.212833405E-2
3.845286476E0,4.420351982E-2,-1.819658279E-2,-3.875827789E-1
3.861952414E0,8.688926697E-2,-3.386783600E-2,-3.747711182E-1
3.878618351E0,-7.717442513E-2,1.083040237E-2,-3.807187080E-1
3.895284289E0,-1.144239902E-1,4.428386688E-2,-5.227293968E-1
3.911950226E0,-9.377717972E-3,-6.984710693E-3,-2.305173874E-1
3.928616164E0,-4.160809517E-2,-1.246614456E-1,-9.643363953E-2
3.945282101E0,-1.556031704E-1,-1.578297615E-1,-1.133995056E-1
3.961948039E0,-2.672092915E-1,-1.214785576E-1,-9.582328796E-2
3.978613976E0,-2.934098244E-2,-1.305589676E-1,-1.914529800E-1
3.995279914E0,9.823012352E-2,-1.051549911E-1,-2.637467384E-1
4.011945851E0,-1.882777214E-1,-4.012918472E-2,-3.429923058E-1
4.028611789E0,-5.122983456E-1,-3.812742233E-2,-2.427673340E-1
4.045277726E0,-5.456290245E-1,-6.389331818E-2,7.827758789E-3
4.061943664E0,-4.618828297E-1,-1.187291145E-1,2.179498672E-1
4.078609601E0,-5.201158524E-1,-1.202731133E-1,1.763792038E-1
4.095275539E0,-5.909836292E-1,-7.841968536E-2,-3.931903839E-2
4.111941476E0,-5.868773460E-1,5.970478058E-3,-2.127485275E-1
4.128607414E0,-5.639617443E-1,2.547693253E-2,-3.042588234E-1
4.145273351E0,-5.936460495E-1,1.151666641E-1,-3.703961372E-1
4.161939289E0,-4.242634773E-1,2.333378792E-1,-2.583007812E-1
4.178605226E0,-3.935863972E-1,2.431287766E-1,-2.255716324E-1
4.195271164E0,-4.984078407E-1,2.161769867E-1,-8.055400848E-2
4.211937101E0,-3.820295334E-1,1.739411354E-1,4.638195038E-2
4.228603039E0,-1.966860294E-1,1.691946983E-1,3.127994537E-1
4.245268976E0,-8.113598824E-2,1.836037636E-1,4.259710312E-1
4.261934914E0,-1.100819111E-1,1.965198517E-1,3.382682800E-1
4.278600851E0,-4.664587975E-2,2.179384232E-1,2.409696579E-1
4.295266789E0,1.047530174E-1,1.884284019E-1,2.745151520E-1
4.311932726E0,1.969754696E-1,1.143250465E-1,4.491472244E-1
4.328598664E0,1.590917110E-1,1.052932739E-1,5.319643021E-1
4.345264601E0,1.371459961E-1,4.324150085E-2,4.791164398E-1
4.361930539E0,2.294991016E-1,-9.026527405E-4,2.986860275E-1
4.378596476E0,3.732187748E-1,-3.373003006E-2,1.869201660E-1
4.395262414E0,2.484607697E-1,-3.453016281E-2,2.618789673E-2
4.411928351E0,7.195639610E-2,-5.710077286E-2,-6.372642517E-2
4.428594289E0,3.128123283E-2,-9.345817566E-2,-6.023788452E-2
4.445260226E0,1.412596703E-1,-1.310982704E-1,-3.143310547E-2
4.461926164E0,1.246454716E-1,-1.320514679E-1,-2.774715424E-2
4.478592101E0,-7.383656502E-2,-1.153860092E-1,-6.296253204E-2
4.495258039E0,-1.358354092E-1,-4.878807068E-2,-1.441135406E-1
4.511923976E0,-6.435441971E-2,2.229738235E-2,-1.494026184E-1
4.528589914E0,1.078891754E-1,4.254436493E-2,-6.833171844E-2
4.545255851E0,1.493360996E-1,6.338500977E-2,-8.829402924E-2
4.561921789E0,8.782696724E-2,4.047632217E-2,2.082538605E-2
4.578587726E0,-4.326415062E-2,5.550384521E-4,1.554336548E-1
4.595253664E0,-1.455819607E-1,-1.006841660E-2,1.639699936E-1
4.611919601E0,-1.673915386E-1,1.418113708E-3,6.946277618E-2
4.628585539E0,-1.224546432E-1,-6.484985352E-4,-7.770442963E-2
4.645251476E0,-2.198951244E-1,6.097412109E-2,-2.322745323E-1
4.661917414E0,-4.039473534E-1,1.377220154E-1,-2.907943726E-1
4.678583351E0,-5.544672012E-1,1.340932846E-1,-2.313103676E-1
4.695249289E0,-6.556398869E-1,7.745599747E-2,-9.785366058E-2
4.711915226E0,-5.715689659E-1,-1.874589920E-2,2.019309998E-2
4.728581164E0,-4.686958790E-1,-7.070541382E-3,-1.366901398E-2
4.745247101E0,-1.664280891E-2,-6.085252762E-2,-4.363727570E-2
4.761913039E0,-6.078040600E-1,-2.906417847E-2,-3.716931343E-1
4.778578976E0,-7.085182667E-1,3.420867920E-1,-4.021863937E-1
4.795244914E0,-6.366608143E-1,8.077144623E-3,-1.651735306E-1
4.811910851E0,-5.024974346E-1,7.569599152E-2,-2.325892448E-1
4.828576789E0,-2.995979786E-1,1.003451347E-1,-2.184782028E-1
4.845242726E0,-1.585514545E-1,4.023694992E-2,-8.734512329E-2
4.861908664E0,-2.709674835E-1,-3.549623489E-2,9.767055511E-3
4.878574601E0,-3.409049511E-1,-1.188969612E-1,7.805061340E-2
4.895240539E0,-3.354458809E-1,-6.934833527E-2,7.041597366E-2
4.911906476E0,-2.807252407E-1,6.796836853E-3,-2.129316330E-2
4.928572414E0,-1.806666851E-1,6.575584412E-3,-8.025455475E-2
4.945238351E0,-1.124258041E-1,1.219558716E-2,-1.801390648E-1
4.961904289E0,2.541756630E-2,-4.060745239E-3,-2.894973755E-2
4.978570226E0,2.954411507E-2,-9.947156906E-2,5.678749084E-2
4.995236164E0,5.565738678E-2,-1.422996521E-1,-1.471996307E-3
5.011902101E0,2.402927876E-1,-1.485567093E-1,-6.841897964E-2
5.028568039E0,3.186249733E-1,-1.334471703E-1,-1.442637444E-1
5.045233976E0,3.504717350E-1,-1.131086349E-1,-1.519761086E-1
5.061899914E0,3.914275169E-1,-1.159944534E-1,3.781795502E-2
5.078565851E0,3.375411034E-1,-9.471511841E-2,1.707391739E-1
5.095231789E0,2.851574421E-1,-9.374618530E-2,1.476840973E-1
5.111897726E0,2.912068367E-1,-3.720998764E-2,7.533359528E-2
5.128563664E0,6.428396702E-1,-9.241104126E-4,2.255277634E-1
5.145229601E0,9.539890289E-1,7.776546478E-2,5.741519928E-1
5.161895539E0,9.012823105E-1,-1.156568527E-2,7.860527039E-1
5.178561476E0,7.787806988E-1,-3.393793106E-2,7.143087387E-1
5.195227414E0,6.408834457E-1,-1.408529282E-2,4.898338318E-1
5.211893351E0,5.233681202E-1,-1.841006279E-1,1.977539062E-1
5.228559289E0,2.743706703E-1,-2.735495567E-1,-1.761994362E-1
5.245225226E0,5.395770073E-2,-3.631772995E-1,-5.205354691E-1
5.261891164E0,8.881044388E-2,-4.259262085E-1,-7.435221672E-1
5.278557101E0,5.739235878E-2,-4.390068054E-1,-8.941788673E-1
5.295223039E0,-7.168340683E-2,-5.032143593E-1,-9.484248161E-1
5.311888976E0,-2.134687901E-1,-5.935621262E-1,-8.398346901E-1
5.328554914E0,-1.243731976E-1,-6.502389908E-1,-7.100701332E-1
5.345220851E0,1.272788048E-1,-6.143765450E-1,-6.423373222E-1
5.361886789E0,2.371087074E-1,-5.895724297E-1,-3.594174385E-1
5.378552726E0,2.443199158E-1,-5.967669487E-1,4.351234436E-2
5.395218664E0,9.369397163E-2,-5.730104446E-1,1.679582596E-1
5.411884601E0,-6.775212288E-2,-5.031137466E-1,-8.459091187E-4
5.428550539E0,-6.351947784E-3,-4.285945892E-1,-4.583358765E-3
5.445216476E0,2.532119751E-1,-4.199914932E-1,8.699417114E-2
5.461882414E0,3.347790241E-1,-3.548974991E-1,1.757068634E-1
5.478548351E0,1.373422146E-1,-3.223290443E-1,2.631072998E-1
5.495214289E0,-6.471252441E-2,-2.157926559E-1,3.310899734E-1
5.511880226E0,-2.075042725E-1,-1.508522034E-1,2.541198730E-1
5.528546164E0,-2.780323029E-1,-6.497383118E-2,-1.724052429E-2
5.545212101E0,-2.177586555E-1,5.812406540E-2,-2.244281769E-1
5.561878039E0,-2.224030495E-1,1.666383743E-1,-2.300977707E-1
5.578543976E0,-3.120846748E-1,2.296409607E-1,-2.061948776E-1
5.595209914E0,-4.192402363E-1,2.959206104E-1,-8.781719208E-2
5.611875851E0,-3.894727230E-1,3.967814445E-1,1.148719788E-1
5.628541789E0,-2.910277843E-1,5.357344151E-1,3.274774551E-1
5.645207726E0,-1.864566803E-1,6.228108406E-1,6.076488495E-1
5.661873664E0,-7.982158661E-2,6.137974262E-1,8.613395691E-1
5.678539601E0,7.375764847E-2,5.550346375E-1,9.937515259E-1
5.695205539E0,2.240414619E-1,4.477751255E-1,9.121685028E-1
5.711871476E0,2.304978371E-1,4.108490944E-1,6.152877808E-1
5.728537414E0,4.168939590E-2,3.273394108E-1,3.191213608E-1
5.745203351E0,-1.060106754E-1,1.976618767E-1,1.519851685E-1
5.761869289E0,-1.276249886E-1,5.632877350E-3,-5.582046509E-2
5.778535226E0,-8.488416672E-2,-2.861292362E-1,-5.182094574E-1
5.795201164E0,-1.801612377E-1,-6.264443398E-1,-1.087581158E0
5.811867101E0,-3.342392445E-1,-1.080434322E0,-1.675794601E0
5.828533039E0,-3.155763149E-1,-1.717775702E0,-2.272049427E0
5.845198976E0,4.090046883E-2,-2.506711960E0,-3.059875488E0
5.861864914E0,3.253602982E-1,-2.982657433E0,-4.375102043E0
5.878530851E0,6.294343472E-1,-3.205422401E0,-5.979606628E0
5.895196789E0,1.081939459E0,-3.751834869E0,-6.687425137E0
5.911862726E0,1.424694061E0,-4.614853382E0,-6.038543701E0
5.928528664E0,2.052994728E0,-5.499662876E0,-4.948433876E0
5.945194601E0,2.739006519E0,-6.133013725E0,-4.366550446E0
5.961860539E0,2.937590599E0,-6.283885479E0,-3.950796604E0
5.978526476E0,2.387419224E0,-5.691010475E0,-3.539757252E0
5.995192414E0,2.651626110E0,-5.372303009E0,-4.132586956E0
6.011858351E0,4.697328091E0,-5.064625740E0,-3.532718658E0
6.028524289E0,7.092370987E0,-4.849123478E0,-2.085706234E0
6.045190226E0,8.753612518E0,-4.765846252E0,3.173327446E-1
6.061856164E0,9.097270012E0,-4.036317825E0,2.565036774E0
6.078522101E0,8.133668900E0,-2.560287952E0,4.096776962E0
6.095188039E0,7.125653744E0,-1.268518329E0,4.488153934E0
6.111853976E0,7.041880608E0,-3.506179452E-1,4.583789825E0
6.128519914E0,7.164036751E0,5.652749538E-1,5.142855644E0
6.145185851E0,6.732325554E0,1.601050854E0,6.250175953E0
6.161851789E0,6.009953499E0,2.589548111E0,7.715751171E0
6.178517726E0,4.673893929E0,3.549446583E0,9.020924568E0
6.195183664E0,2.989295006E0,4.842796326E0,9.249502182E0
6.211849601E0,2.080320358E0,6.290616989E0,8.078280449E0
6.228515539E0,1.953577995E0,7.203006744E0,7.906105518E0
6.245181476E0,1.130728722E0,7.773447990E0,8.453351974E0
6.261847414E0,-4.367322922E-1,8.159608841E0,8.889719009E0
6.278513351E0,-1.841283798E0,8.468798637E0,8.818439484E0
6.295179289E0,-2.700540066E0,8.905394554E0,8.330967903E0
6.311845226E0,-3.468513012E0,9.462068558E0,7.520092964E0
6.328511164E0,-4.125526428E0,9.936562538E0,6.426710606E0
6.345177101E0,-4.660036564E0,1.026177597E1,5.269582748E0
6.361843039E0,-5.293918610E0,1.036498928E1,4.671220779E0
6.378508976E0,-5.871333122E0,1.025602627E1,4.302357197E0
6.395174914E0,-6.224551201E0,9.982540131E0,3.819072962E0
6.411840851E0,-6.433660507E0,9.514263153E0,3.630503654E0
6.428506789E0,-6.315726280E0,9.182580948E0,5.224982738E0
6.445172726E0,-5.471115112E0,8.355732918E0,7.250566483E0
6.461838664E0,-3.950238705E0,7.479533195E0,8.841634750E0
6.478504601E0,-1.715248585E0,6.748719215E0,9.823299408E0
6.495170539E0,1.314196587E0,6.076086998E0,1.081304359E1
6.511836476E0,4.560414314E0,5.719646931E0,1.215369415E1
6.528502414E0,7.544731140E0,5.219954014E0,1.323207664E1
6.545168351E0,1.021721649E1,4.021312237E0,1.394061661E1
6.561834289E0,1.249180222E1,2.112549305E0,1.429288673E1
6.578500226E0,1.359455776E1,1.327999830E-1,1.325585079E1
6.595166164E0,1.333513641E1,-1.912906170E0,1.139754295E1
6.611832101E0,1.202932358E1,-4.492074966E0,9.370035172E0
6.628498039E0,9.935372353E0,-6.967201233E0,7.546453476E0
6.645163976E0,7.985543728E0,-9.333543777E0,5.620828152E0
6.661829914E0,6.191008091E0,-1.125339317E1,2.917414665E0
6.678495851E0,4.120926857E0,-1.270056820E1,-3.078460693E-3
6.695161789E0,2.169977665E0,-1.391649055E1,-2.046544313E0
6.711827726E0,6.977715492E-1,-1.504230118E1,-3.774295807E0
6.728493664E0,-1.090007782E0,-1.590098000E1,-5.053180218E0
6.745159601E0,-3.405750513E0,-1.596799660E1,-6.106767654E0
6.761825539E0,-4.610679150E0,-1.574087906E1,-7.224011421E0
6.778491476E0,-4.934260368E0,-1.556749058E1,-7.663846970E0
6.795157414E0,-4.942505836E0,-1.519400024E1,-7.964091301E0
6.811823351E0,-4.735116959E0,-1.448718071E1,-8.611558914E0
6.828489289E0,-4.481621742E0,-1.338441658E1,-9.301982880E0
6.845155226E0,-4.292190552E0,-1.227887154E1,-1.002161980E1
6.861821164E0,-3.993124008E0,-1.122652340E1,-1.039194298E1
6.878487101E0,-2.588745594E0,-1.047519684E1,-1.004556084E1
6.895153039E0,2.716875076E-1,-9.225727081E0,-9.028205872E0
6.911818976E0,5.537477493E0,-6.173131943E0,-5.983928204E0
6.928484914E0,1.204551506E1,-9.496665001E-1,-2.010611057E0
6.945150851E0,2.024051094E1,3.756571531E0,3.614444256E0
6.961816789E0,2.458352280E1,6.474019051E0,1.201130295E1
6.978482726E0,2.133280945E1,6.321969986E0,1.908218384E1
6.995148664E0,1.313508129E1,8.600033760E0,1.896205330E1
7.011814601E0,6.717851639E0,1.041029644E1,1.299299622E1
7.028480539E0,3.479887009E0,1.081068230E1,7.016863823E0
7.045146476E0,9.274864197E-2,1.204710579E1,2.304970503E0
7.061812414E0,-2.914390087E0,1.258716869E1,2.656645775E-1
7.078478351E0,-5.559645176E0,1.331648159E1,-4.904772043E-1
7.095144289E0,-6.833272934E0,1.309636116E1,3.851314783E-1
7.111810226E0,-8.243787766E0,1.316924381E1,8.792887926E-1
7.128476164E0,-9.626800537E0,1.321246624E1,5.141080618E-1
7.145142101E0,-9.843564987E0,1.321101856E1,-3.070973158E-1
7.161808039E0,-9.404170990E0,1.256595898E1,-5.375109911E-1
7.178473976E0,-9.406105995E0,1.127707195E1,5.291473866E-2
7.195139914E0,-9.390830040E0,9.756124496E0,8.944284916E-1
7.211805851E0,-8.600645065E0,8.485455513E0,2.068730593E0
7.228471789E0,-7.114720345E0,7.889277458E0,3.904323578E0
7.245137726E0,-3.965005398E0,8.412565231E0,5.800444603E0
7.261803664E0,1.323369980E0,1.000730324E1,8.622888565E0
7.278469601E0,8.918443680E0,9.894642830E0,1.237877655E1
7.295135539E0,1.607207108E1,9.509534836E0,1.612233734E1
7.311801476E0,2.037245178E1,7.422313690E0,1.645765686E1
7.328467414E0,2.115502739E1,4.332742691E0,1.447925758E1
7.345133351E0,2.197882652E1,-1.421861649E-1,1.234475136E1
7.361799289E0,2.003147507E1,-6.177908421E0,8.179433823E0
7.378465226E0,1.400925922E1,-1.045666313E1,5.763412476E0
7.395131164E0,8.305427551E0,-1.514024162E1,3.321601868E0
7.411797101E0,4.500476837E0,-1.912684250E1,4.626188278E-1
7.428463039E0,1.077210426E0,-2.268980598E1,-4.040745735E0
7.445128976E0,-3.321177244E0,-2.337959480E1,-6.762104034E0
7.461794914E0,-7.626729488E0,-2.329580498E1,-7.826940060E0
7.478460851E0,-1.001778603E1,-2.228745842E1,-8.297468185E0
7.495126789E0,-1.126084900E1,-2.100259018E1,-8.484224319E0
7.511792726E0,-1.103752613E1,-1.957488251E1,-7.988047600E0
7.528458664E0,-9.889289856E0,-1.782077599E1,-8.140471458E0
7.545124601E0,-8.496183395E0,-1.580712891E1,-8.926788330E0
7.561790539E0,-6.478723049E0,-1.444806480E1,-9.624284744E0
7.578456476E0,-3.333456993E0,-1.407019806E1,-9.336390495E0
7.595122414E0,1.560853004E0,-1.522416687E1,-7.659607410E0
7.611788351E0,7.061052322E0,-1.352225971E1,-5.316712379E0
7.628454289E0,1.642990685E1,-5.038589478E0,-2.018767834E0
7.645120226E0,3.558100128E1,2.989671707E0,1.556668997E0
7.661786164E0,5.016939926E1,5.857972622E0,1.053041840E1
7.678452101E0,3.982756042E1,9.977031708E0,2.311135864E1
7.695118039E0,2.060201836E1,1.334173584E1,2.334279633E1
7.711783976E0,8.828557968E0,1.501465607E1,1.169298267E1
7.728449914E0,1.774325371E0,1.653606224E1,1.456641555E0
7.745115851E0,-4.140937328E0,1.822389030E1,-5.084738731E-1
7.761781789E0,-6.262033463E0,1.757746124E1,4.625411034E0
7.778447726E0,-6.675378799E0,1.679847145E1,1.046590900E1
7.795113664E0,-8.937297821E0,1.709597969E1,1.202511024E1
7.811779601E0,-1.294072533E1,1.854204178E1,9.737356186E0
7.828445539E0,-1.513833046E1,1.912488556E1,7.079003334E0
7.845111476E0,-1.436008549E1,1.754031181E1,6.672097206E0
7.861777414E0,-1.022495270E1,1.311176109E1,9.749292374E0
7.878443351E0,-4.834228992E0,8.394676208E0,1.149923229E1
7.895109289E0,-5.790472031E-1,5.044688225E0,1.001181221E1
7.911775226E0,4.745650291E0,4.001352310E0,6.164240360E0
7.928441164E0,1.125233459E1,4.245732784E0,2.435704231E0
7.945107101E0,1.567264271E1,5.474009991E0,2.296264887E0
7.961773039E0,2.021998787E1,6.381787777E0,2.779411077E0
7.978438976E0,2.483352661E1,4.940826416E0,2.129556656E0
7.995104914E0,2.412641144E1,1.697421074E0,1.447393894E0
8.011770851E0,1.906405640E1,-2.348886967E0,2.769093275E0
8.028436789E0,1.344982147E1,-6.524254799E0,2.820476532E0
8.045102726E0,8.785188675E0,-1.045975304E1,1.251879454E0
8.061768664E0,4.121216297E0,-1.393633080E1,-2.387298822E0
8.078434601E0,2.931926012E0,-1.659616852E1,-4.763360500E0
8.095100539E0,-7.873339653E-1,-1.741925430E1,-8.015788078E0
8.111766476E0,5.274400711E-1,-1.943252945E1,-8.056436539E0
8.128432414E0,-1.382495403E0,-2.023326874E1,-4.477960587E0
8.145098351E0,-1.639650106E0,-1.987002563E1,-3.803243637E0
8.161764289E0,-2.133115292E0,-1.732672501E1,-8.612711906E0
8.178430226E0,-3.344250441E0,-1.437126064E1,-1.268284893E1
8.195096164E0,-2.857069969E0,-1.273003197E1,-1.218706036E1
8.211762101E0,-7.975764275E-1,-1.242489338E1,-5.936790943E0
8.228428039E0,3.829588413E0,-1.157801914E1,-3.635478258E0
8.245093976E0,6.470222950E0,-9.688387871E0,-1.679497123E0
8.261759914E0,5.054680347E0,-7.234235287E0,-1.100763559E0
8.278425851E0,8.560771942E0,-1.806994438E0,1.069186687E0
8.295091789E0,2.260015869E1,3.265114784E0,4.992089272E0
8.311757726E0,3.169231796E1,7.896076202E0,1.197995090E1
8.328423664E0,2.722863388E1,1.059942341E1,1.837497520E1
8.345089601E0,1.624004555E1,1.029173279E1,1.727978706E1
8.361755539E0,3.659076691E0,1.006732559E1,7.457275391E0
8.378421476E0,-4.549785614E0,1.020110512E1,-5.392725468E-1
8.395087414E0,-7.395012856E0,8.964855194E0,-1.978357792E0
8.411753351E0,-6.942932606E0,6.807422161E0,1.123614550E0
8.428419289E0,-5.426906586E0,6.152937889E0,3.707583189E0
8.445085226E0,-6.352880478E0,6.850135326E0,3.316574574E0
8.461751164E0,-1.161068916E1,8.351946831E0,1.604632616E0
8.478417101E0,-1.512668419E1,9.422439575E0,1.364636183E0
8.495083039E0,-1.514518547E1,9.571307182E0,2.907590389E0
8.511748976E0,-1.274153137E1,8.074067116E0,5.236371994E0
8.528414914E0,-1.177220535E1,6.334165573E0,6.847846985E0
8.545080851E0,-1.084767723E1,5.808967113E0,6.517712593E0
8.561746789E0,-6.609100342E0,6.957624912E0,4.320746422E0
8.578412726E0,-1.471283913E0,8.620019913E0,2.592874765E0
8.595078664E0,2.967610359E-1,1.096836853E1,5.794616699E0
8.611744601E0,2.742592335E0,1.360686398E1,1.116547394E1
8.628410539E0,1.278694534E1,1.438311386E1,1.748411942E1
8.645076476E0,2.528658867E1,1.193389511E1,1.639690399E1
8.661742414E0,2.907251740E1,7.897042274E0,1.080437660E1
8.678408351E0,2.507685089E1,1.708138466E0,5.087433338E0
8.695074289E0,1.809896088E1,-5.434944153E0,2.716372967E0
8.711740226E0,1.169347191E1,-1.258624649E1,2.560584307E0
8.728406164E0,7.043903351E0,-1.856270218E1,2.190530777E0
8.745072101E0,5.430798531E0,-2.301470184E1,3.165726662E-1
8.761738039E0,2.872195959E0,-2.503332901E1,-3.633918762E0
8.778403976E0,-1.277657270E0,-2.455170059E1,-9.166549683E0
8.795069914E0,-4.905421734E0,-2.280598450E1,-1.358927917E1
8.811735851E0,-6.930192471E0,-2.126653290E1,-1.491407967E1
8.828401789E0,-8.033170700E0,-2.053486443E1,-1.312956810E1
8.845067726E0,-7.940620899E0,-1.986235809E1,-9.791730881E0
8.861733664E0,-7.025903702E0,-1.846546936E1,-6.319714069E0
8.878399601E0,-5.103089333E0,-1.579255676E1,-4.427262306E0
8.895065539E0,-2.250163317E0,-1.276028442E1,-4.775868893E0
8.911731476E0,2.691282272E0,-8.503323555E0,-5.383115292E0
8.928397414E0,1.043637657E1,-3.174249411E0,-3.582886696E0
8.945063351E0,1.965388489E1,3.042082787E0,2.549910069E0
8.961729289E0,2.860905838E1,8.135301590E0,1.324024487E1
8.978395226E0,2.999421501E1,1.108317947E1,2.356740952E1
8.995061164E0,2.320944595E1,1.384209824E1,2.704710960E1
9.011727101E0,1.577401638E1,1.718594742E1,1.926403046E1
9.028393039E0,9.013972282E0,2.002110291E1,7.433803558E0
9.045058976E0,-1.033048630E-1,2.201771927E1,8.483462334E-1
9.061724914E0,-7.128431797E0,2.150411797E1,3.441645622E0
9.078390851E0,-9.977602005E0,1.931943893E1,1.017549133E1
9.095056789E0,-1.053084469E1,1.682044792E1,1.352529430E1
9.111722726E0,-1.037362671E1,1.376358986E1,1.263681793E1
9.128388664E0,-7.798448086E0,9.200159073E0,1.011504936E1
9.145054601E0,-3.391008615E0,3.439843655E0,8.344837189E0
9.161720539E0,1.418677807E0,-2.991071701E0,7.496051788E0
9.178386476E0,5.781290531E0,-8.962514877E0,7.208035469E0
9.195052414E0,8.238410950E0,-1.359359360E1,7.088040352E0
9.211718351E0,7.118638992E0,-1.638457108E1,4.834430695E0
9.228384289E0,2.533419132E0,-1.392478180E1,1.112307668E0
9.245050226E0,3.936834574E0,-8.388122559E0,7.559052110E-2
9.261716164E0,1.698584366E1,-1.309762669E1,3.770168066E0
9.278382101E0,2.440529060E1,-2.075961685E1,9.713760376E0
9.295048039E0,1.916868782E1,-2.398453522E1,1.379204082E1
9.311713976E0,9.522516251E0,-2.274447632E1,1.309640694E1
9.328379914E0,3.416967630E0,-2.072390747E1,6.564561844E0
9.345045851E0,-2.861475945E-1,-1.761236572E1,-1.814724565E0
9.361711789E0,-3.721339464E0,-1.392787170E1,-8.734979630E0
9.378377726E0,-5.946718693E0,-1.041881466E1,-1.251084518E1
9.395043664E0,-6.623926640E0,-8.037303925E0,-1.484312248E1
9.411709601E0,-8.696269989E0,-5.475172997E0,-1.380600262E1
9.428375539E0,-1.017482376E1,-2.822501183E0,-7.930999279E0
9.445041476E0,-5.748645782E0,5.215077400E-1,1.910941601E-1
9.461707414E0,1.114166260E1,2.931733131E0,9.830496788E0
9.478373351E0,2.665884972E1,6.163158894E0,1.974686050E1
9.495039289E0,2.313108063E1,1.045321274E1,2.531820679E1
9.511705226E0,1.239072800E1,1.214441872E1,2.386124611E1
9.528371164E0,7.632365227E0,1.130633831E1,1.416152000E1
9.545037101E0,3.273285866E0,1.007754707E1,4.590178490E0
9.561703039E0,-5.065870285E0,9.214178085E0,8.599306345E-1
9.578368976E0,-1.102709579E1,9.248428345E0,1.683468103E0
9.595034914E0,-9.817239761E0,7.968098640E0,5.802881241E0
9.611700851E0,-4.517477036E0,4.657411575E0,1.145646477E1
9.628366789E0,1.607669830E0,4.569435120E-2,1.508326149E1
9.645032726E0,4.623476505E0,-3.931479931E0,1.415989304E1
9.661698664E0,4.505791664E0,-6.345954418E0,1.005529976E1
9.678364601E0,3.343297005E0,-7.303397655E0,4.521048546E0
9.695030539E0,1.583641529E0,-4.556772232E0,-1.139968753E0
9.711696476E0,4.315383434E0,-7.820930481E-1,-1.987971306E0
9.728362414E0,1.120138359E1,-3.441824913E0,3.095210314E0
9.745028351E0,1.138736153E1,-7.460055828E0,1.055159950E1
9.761694289E0,8.303885460E0,-9.836252213E0,1.589634418E1
9.778360226E0,6.192588329E0,-1.125179195E1,1.653672409E1
9.795026164E0,4.889786720E0,-1.173259068E1,1.224508095E1
9.811692101E0,2.829120636E0,-1.135520840E1,6.766185760E0
9.828358039E0,-1.509580612E-1,-1.062255478E1,2.981934309E0
9.845023976E0,-1.959269047E0,-9.820172310E0,2.087707520E0
9.861689914E0,-2.368251324E0,-8.857455254E0,3.063583136E0
9.878355851E0,-2.257235527E0,-7.688925743E0,3.445678234E0
9.895021789E0,-1.787178993E0,-5.816905975E0,2.840635538E0
9.911687726E0,1.653919220E-1,-3.677457809E0,7.475938797E-1
9.928353664E0,4.158020020E0,-1.826277971E0,-1.324365377E0
9.945019601E0,6.734460831E0,9.079980850E-2,-3.072140694E0
9.961685539E0,5.495768547E0,1.751721859E0,-3.620545149E0
9.978351476E0,3.141374588E0,2.636023998E0,-2.547771931E0
9.995017414E0,1.919028282E0,2.616122484E0,-1.629543781E0
1.001168335E1,1.579387665E0,3.437911987E0,-1.248009920E0
1.002834929E1,2.648765564E0,5.003917694E0,-8.746323586E-1
1.004501523E1,4.790247917E0,7.476171494E0,9.029644728E-1
1.006168116E1,6.304599762E0,9.722225189E0,3.922866583E0
1.007834710E1,7.291088104E0,1.019068909E1,6.624745846E0
1.009501304E1,7.016392708E0,9.642979622E0,8.868041039E0
1.011167898E1,5.441824913E0,8.713535309E0,8.923240662E0
1.012834491E1,3.462852478E0,7.693906784E0,6.938735962E0
1.014501085E1,1.304722786E0,6.888598919E0,5.024623394E0
1.016167679E1,-1.014436722E0,6.514108181E0,3.755985975E0
1.017834273E1,-2.154531956E0,6.677051544E0,2.310676575E0
1.019500866E1,-1.546144485E0,7.528231621E0,1.345151186E0
1.021167460E1,-2.112722874E0,8.318401337E0,8.283088803E-1
1.022834054E1,-3.587293148E0,8.759232521E0,1.859599948E-1
1.024500648E1,-5.561621189E0,9.389590263E0,-1.423301220E0
1.026167241E1,-7.834161758E0,1.119143200E1,-4.092252254E0
1.027833835E1,-9.537007332E0,1.448681259E1,-6.721869469E0
1.029500429E1,-9.010484695E0,1.673700333E1,-6.722688675E0
1.031167023E1,-5.918618202E0,1.564670849E1,-1.167386770E0
1.032833616E1,-2.584259510E0,1.079128075E1,1.015217018E1
1.034500210E1,-3.333241940E0,5.467879295E0,2.155254555E1
1.036166804E1,-3.781386137E0,4.758292675E0,2.744988632E1
1.037833398E1,4.319127083E0,3.896330357E0,2.934728432E1
1.039499991E1,1.539839554E1,6.046032906E-1,2.218841171E1
1.041166585E1,2.212807083E1,-1.465420723E-1,9.490822792E0
1.042833062E1,2.402534485E1,-1.902172565E0,-8.041794300E-1
1.044499656E1,1.976298141E1,-1.009954357E1,-1.637078881E0
1.046166250E1,8.290077209E0,-2.121049309E1,5.276263714E0
1.047832843E1,-3.118275404E0,-2.802326202E1,1.109760094E1
1.049499437E1,-8.345145226E0,-3.196395874E1,6.379015923E0
1.051166031E1,-8.688848495E0,-3.193115807E1,-6.765467644E0
1.052832625E1,-8.071562767E0,-2.916167641E1,-1.680614662E1
1.054499218E1,-4.793888092E0,-2.655040550E1,-1.673505592E1
1.056165812E1,-1.636942863E0,-2.442160797E1,-1.133659458E1
1.057832406E1,-2.916125298E0,-2.122963333E1,-4.720056534E0
1.059499000E1,-3.614113331E0,-1.797197533E1,-2.104295492E0
1.061165593E1,5.348577499E-1,-1.554750061E1,-3.630934000E0
1.062832187E1,8.344442368E0,-1.290700531E1,-6.889847755E0
1.064498781E1,1.354599190E1,-9.811224937E0,-1.014830303E1
1.066165375E1,1.163261414E1,-6.536419868E0,-1.178413773E1
1.067831968E1,1.048203659E1,-7.182022333E-1,-1.063519001E1
1.069498562E1,2.332696533E1,2.167087555E0,-5.685151100E0
1.071165156E1,3.811096954E1,4.931177139E0,3.329395533E0
1.072831750E1,3.659135437E1,9.518491745E0,1.242014694E1
1.074498343E1,2.463093567E1,1.217183971E1,1.429995441E1
1.076164937E1,1.518281937E1,1.387849331E1,1.155782986E1
1.077831531E1,1.047242737E1,1.562684917E1,7.445505619E0
1.079498125E1,2.925354004E0,1.816975784E1,3.622726917E0
1.081164718E1,-4.729390144E0,2.043654823E1,5.561379910E0
1.082831312E1,-9.036117554E0,2.315377998E1,9.222851753E0
1.084497906E1,-9.803951263E0,2.569910812E1,1.168177032E1
1.086164500E1,-8.053798676E0,2.631746101E1,1.091299725E1
1.087831093E1,-6.911619186E0,2.516150665E1,8.202697754E0
1.089497687E1,-8.350539207E0,2.234601784E1,6.451148987E0
1.091164281E1,-8.413311005E0,1.730411148E1,9.433491707E0
1.092830875E1,-6.432653427E0,1.172113419E1,1.491895485E1
1.094497468E1,-1.862941265E0,7.039124489E0,1.693440628E1
1.096164062E1,3.712125778E0,4.659443855E0,1.448284340E1
1.097830656E1,9.380758286E0,3.418983936E0,1.119221115E1
1.099497250E1,1.324227333E1,2.386328697E0,1.058712673E1
1.101163843E1,1.516957855E1,2.502264977E0,1.381185150E1
1.102830437E1,1.979721069E1,2.729747772E0,1.773811340E1
1.104497031E1,2.689867783E1,-1.038095951E0,1.744459915E1
1.106163625E1,2.735366821E1,-3.813060284E0,1.193236923E1
1.107830218E1,2.606870651E1,-6.436651230E0,6.282094002E0
1.109496812E1,2.562159348E1,-1.184903431E1,4.137035608E-1
1.111163406E1,1.911358643E1,-1.860419846E1,-4.687157869E-1
1.112830000E1,1.020023155E1,-2.611296844E1,2.665891171E0
1.114496593E1,1.617594719E0,-3.073363876E1,3.723299503E0
1.116163187E1,-5.376872063E0,-3.126901627E1,3.276734352E-1
1.117829781E1,-8.581267357E0,-2.964415359E1,-5.004160881E0
1.119496375E1,-8.451051712E0,-2.725251961E1,-8.674691200E0
1.121162968E1,-7.357924938E0,-2.485990143E1,-9.887374878E0
1.122829562E1,-5.478265285E0,-2.240716743E1,-9.624226570E0
1.124496156E1,-2.936083555E0,-1.955746078E1,-9.985613823E0
1.126162750E1,-6.767644882E-1,-1.675025177E1,-1.148420620E1
1.127829343E1,8.888568878E-1,-1.427571297E1,-1.195312405E1
1.129495937E1,2.366703510E0,-1.233299065E1,-1.056605148E1
1.131162531E1,4.628895760E0,-1.098941040E1,-8.265851021E0
1.132829125E1,8.675555229E0,-9.218669891E0,-4.349291325E0
1.134495718E1,1.655958557E1,-3.764939070E0,2.024336815E0
1.136162312E1,3.097753143E1,4.917167664E0,9.279561996E0
1.137828906E1,4.608522034E1,1.149500084E1,1.284048462E1
1.139495500E1,4.551217270E1,1.363673115E1,1.340095043E1
1.141162093E1,2.687945938E1,1.301279640E1,1.400449944E1
1.142828687E1,8.621283531E0,1.250401211E1,1.106552029E1
1.144495281E1,-3.535976410E-1,1.109131050E1,5.960712910E0
1.146161875E1,-4.553188801E0,1.110557652E1,3.195237875E0
1.147828468E1,-7.147350311E0,1.164349174E1,1.987463951E0
1.149495062E1,-8.924067497E0,1.111334801E1,3.499224424E0
1.151161656E1,-8.475999832E0,1.055891800E1,6.500606060E0
1.152828250E1,-4.238367081E0,1.129021358E1,9.192341805E0
1.154494843E1,-2.237288475E0,1.478092957E1,8.995732307E0
1.156161437E1,-7.324357033E0,1.885424995E1,5.023106098E0
1.157828031E1,-1.205598068E1,2.176163101E1,3.617124557E0
1.159494625E1,-1.153435326E1,2.222960663E1,5.050253868E0
1.161161218E1,-7.222074986E0,2.021630096E1,7.976913452E0
1.162827812E1,-1.664481163E0,1.702802086E1,1.009724712E1
1.164494406E1,4.059606552E0,1.378853130E1,1.045978260E1
1.166161000E1,1.098680496E1,1.154886532E1,9.470053673E0
1.167827593E1,2.021322632E1,9.719545364E0,9.446682930E0
1.169494187E1,2.901910591E1,6.298329353E0,8.152496338E0
1.171160781E1,3.262276077E1,1.815616131E0,4.709792614E0
1.172827375E1,3.329467010E1,-2.596673012E0,2.257570267E0
1.174493968E1,3.015545464E1,-9.946048737E0,1.762132883E0
1.176160562E1,2.157874298E1,-1.719517136E1,4.107035160E0
1.177827156E1,1.252677345E1,-2.294009018E1,5.000875950E0
1.179493750E1,5.598237514E0,-2.715457535E1,2.730230093E0
1.181160343E1,-2.413749695E-3,-2.822960091E1,-2.562394142E0
1.182826937E1,-4.490614414E0,-2.756690788E1,-8.576511383E0
1.184493531E1,-7.188992500E0,-2.764009094E1,-1.198585129E1
1.186160125E1,-1.004066277E1,-2.767742538E1,-1.175914764E1
1.187826718E1,-1.369561386E1,-2.741765594E1,-1.064630127E1
1.189493312E1,-1.608147621E1,-2.582852364E1,-1.037130547E1
1.191159906E1,-1.389801979E1,-2.404047394E1,-1.010452938E1
1.192826500E1,-8.586226463E0,-2.192478561E1,-9.599437714E0
1.194493093E1,-1.104247570E0,-1.994589615E1,-8.172520638E0
1.196159687E1,6.325389385E0,-1.686314774E1,-6.725309849E0
1.197826281E1,1.297494030E1,-1.261700821E1,-4.897049904E0
1.199492875E1,1.927823448E1,-5.246186256E0,-1.755110979E0
1.201159468E1,3.083773041E1,2.378160477E0,3.841199875E0
1.202826062E1,4.127329254E1,1.022669888E1,1.006203365E1
1.204492656E1,4.090876007E1,1.443492603E1,1.595051193E1
1.206159250E1,2.697119522E1,1.467615318E1,1.825631332E1
1.207825843E1,1.189653587E1,1.362734795E1,1.340037346E1
1.209492437E1,1.661187172E0,1.181000233E1,5.574226856E0
1.211159031E1,-5.175885677E0,1.109622955E1,8.837795854E-1
1.212825625E1,-8.652873039E0,1.134827995E1,4.345107079E-2
1.214492218E1,-1.010232067E1,1.188414955E1,1.194917917E0
1.216158812E1,-1.106402779E1,1.284464073E1,3.159945488E0
1.217825406E1,-1.071254539E1,1.379466438E1,3.722959042E0
1.219492000E1,-1.145329380E1,1.530103779E1,3.676457405E0
1.221158593E1,-1.342466354E1,1.602988815E1,4.084167480E0
1.222825187E1,-1.491214752E1,1.518599033E1,5.089227676E0
1.224491781E1,-1.324444771E1,1.264091587E1,7.004572868E0
1.226158375E1,-9.444021225E0,9.892513275E0,7.766508102E0
1.227824968E1,-5.216293335E0,7.858576298E0,7.899402618E0
1.229491562E1,-7.826290131E-1,6.695935726E0,7.326647758E0
1.231158156E1,4.666573524E0,5.968797207E0,7.447442055E0
1.232824750E1,8.327362061E0,6.253475666E0,8.057044983E0
1.234491343E1,1.102854919E1,7.187541485E0,8.913802147E0
1.236157937E1,1.820826340E1,8.863378525E0,9.688495636E0
1.237824531E1,3.276522064E1,5.272631645E0,1.066759682E1
1.239491125E1,3.779312897E1,-1.535946846E0,1.040694427E1
1.241157718E1,2.752873611E1,-7.308837891E0,8.284031868E0
1.242824312E1,1.665758514E1,-1.405494118E1,7.424659729E0
1.244490906E1,8.791489601E0,-1.916517258E1,7.413039684E0
1.246157500E1,5.220062733E0,-2.423627472E1,5.858072281E0
1.247824093E1,3.015216827E0,-2.846561432E1,2.676264763E0
1.249490687E1,-1.340488195E0,-2.952985764E1,-2.086467505E0
1.251157281E1,-7.305044174E0,-2.954212570E1,-7.366280556E0
1.252823875E1,-1.393290997E1,-2.907775497E1,-1.168057632E1
1.254490468E1,-1.631684113E1,-2.982952309E1,-1.033507347E1
1.256157062E1,-1.558239841E1,-3.063871384E1,-4.923679352E0
1.257823656E1,-1.247093010E1,-2.888056946E1,-1.934568524E0
1.259490250E1,-4.732515335E0,-2.411429787E1,-3.104116917E0
1.261156843E1,9.959880829E0,-1.594495583E1,-6.183225632E0
1.262823437E1,2.737251282E1,-4.710740089E0,-4.831047535E0
1.264490031E1,3.722112656E1,6.477962017E0,3.071336269E0
1.266156625E1,3.600231934E1,1.667665482E1,1.825617981E1
1.267823218E1,3.015679550E1,2.125901604E1,3.024384308E1
1.269489812E1,2.228777885E1,2.173450661E1,2.806232452E1
1.271156406E1,9.952857018E0,2.142555237E1,1.062693596E1
1.272823000E1,-4.071607590E0,2.179583359E1,-5.471200466E0
1.274489593E1,-1.322305298E1,2.099484253E1,-7.288337708E0
1.276156187E1,-1.537497330E1,1.718493271E1,-5.821483135E-1
1.277822781E1,-1.393750000E1,1.238561821E1,6.805770874E0
1.279489375E1,-1.135783195E1,7.224574089E0,1.074258327E1
1.281155968E1,-1.129286194E1,3.914970636E0,1.015902424E1
1.282822562E1,-9.900369644E0,2.500438690E0,7.944832325E0
1.284489156E1,-3.712296963E0,4.090254784E0,6.095657349E0
1.286155750E1,1.333773041E1,6.429471493E0,5.175507545E0
1.287822343E1,3.135342598E1,7.591351986E0,5.474987984E0
1.289488937E1,3.664958954E1,3.694240808E0,7.515065193E0
1.291155531E1,2.847343254E1,-5.067916870E0,1.609908676E1
1.292822125E1,1.527750015E1,-1.181339836E1,2.396024132E1
1.294488718E1,6.094446182E0,-1.480863094E1,2.126483727E1
1.296155312E1,3.098926544E0,-1.574060535E1,1.174588013E1
1.297821906E1,1.638827801E0,-1.495091629E1,2.737843990E0
1.299488500E1,-7.211837769E-1,-1.355639267E1,-2.165176392E0
1.301155093E1,-3.143335819E0,-1.295851707E1,-2.585347652E0
1.302821687E1,-5.891937256E0,-1.297764015E1,-1.068104506E0
1.304488281E1,-8.032023430E0,-1.275907135E1,1.691975594E-1
1.306154875E1,-9.575116158E0,-1.205448914E1,7.085105181E-1
1.307821468E1,-1.085819721E1,-1.098088646E1,1.297894955E0
1.309488062E1,-1.157181168E1,-9.544280052E0,2.389721394E0
1.311154656E1,-1.118903542E1,-8.150260925E0,3.867099285E0
1.312821250E1,-1.012421417E1,-6.447949409E0,6.692827225E0
1.314487843E1,-7.838982105E0,-4.601962090E0,9.922702789E0
1.316154437E1,-4.260484695E0,-2.344721079E0,1.255340576E1
1.317821031E1,-2.166661739E0,1.340103626E0,1.413562679E1
1.319487625E1,-1.131581783E0,4.865905762E0,1.467121124E1
1.321154218E1,3.022356033E-1,7.173774719E0,1.426348877E1
1.322820812E1,1.959483147E0,7.883437157E0,1.417528820E1
1.324487406E1,3.638700485E0,7.933040619E0,1.477001286E1
1.326154000E1,4.658183098E0,7.956048965E0,1.484702873E1
1.327820593E1,5.432275772E0,8.444085121E0,1.400180721E1
1.329487187E1,8.299025536E0,8.966057777E0,1.208259296E1
1.331153781E1,1.382244015E1,8.188755035E0,9.188860893E0
1.332820375E1,1.920166397E1,3.197885990E0,3.196486473E0
1.334486968E1,1.771059418E1,-2.789805412E0,-4.633540630E0
1.336153562E1,1.555512142E1,-8.441869736E0,-7.178904533E0
1.337820156E1,1.793064499E1,-1.422836494E1,-2.904336452E0
1.339486750E1,1.900585938E1,-1.936508751E1,2.637783051E0
1.341153343E1,1.317507839E1,-2.105277252E1,6.197421551E0
1.342819937E1,5.471486092E0,-2.032115555E1,4.094780922E0
1.344486531E1,-2.581089497E0,-1.767804718E1,-3.157784462E0
1.346153125E1,-8.202847481E0,-1.434378433E1,-9.885687828E0
1.347819718E1,-1.003514481E1,-1.161153793E1,-1.368689156E1
1.349486312E1,-8.615983009E0,-9.824760437E0,-1.386733818E1
1.351152906E1,-4.437772274E0,-8.693504333E0,-9.645886421E0
1.352819500E1,3.795957565E-1,-7.839083672E0,-5.043582916E0
1.354486093E1,5.187926292E0,-5.600461006E0,-5.979144573E-1
1.356152687E1,1.250281143E1,-1.586548328E0,3.075400352E0
1.357819281E1,2.219208908E1,3.043802023E0,5.501438141E0
1.359485875E1,2.608474731E1,7.629461288E0,1.327401924E1
1.361152468E1,2.142497444E1,1.111962318E1,2.165179253E1
1.362819062E1,1.665811539E1,1.692549324E1,1.991265678E1
1.364485656E1,1.862487030E1,2.218084335E1,1.258338451E1
1.366152250E1,1.731749153E1,2.496902847E1,7.267656803E0
1.367818843E1,1.143861961E1,2.622337723E1,3.665521860E0
1.369485437E1,5.868560791E0,2.656087494E1,-1.800876856E-1
1.371152031E1,1.622851849E0,2.600512314E1,-1.974854827E0
1.372818625E1,-1.455437183E0,2.449449730E1,-1.650095582E0
1.374485218E1,-3.768004417E0,2.245538330E1,-5.156421065E-1
1.376151812E1,-5.631273270E0,2.058477402E1,-6.596992612E-1
1.377818406E1,-6.199850082E0,1.861658669E1,-1.440526485E0
1.379485000E1,-6.618794441E0,1.662695885E1,-1.386118054E0
1.381151593E1,-6.863315582E0,1.463239479E1,5.501017570E-1
1.382818187E1,-5.638875008E0,1.336939526E1,4.823656082E0
1.384484781E1,-2.621964931E0,1.278406334E1,1.021318436E1
1.386151375E1,2.886320114E0,1.224935436E1,1.628262329E1
1.387817968E1,1.001224232E1,1.249161148E1,1.988387871E1
1.389484562E1,1.740743065E1,1.312175846E1,2.142788696E1
1.391151156E1,2.639937973E1,1.326407528E1,2.346802139E1
1.392817750E1,3.523617935E1,1.099097919E1,2.440843391E1
1.394484343E1,3.955604935E1,5.519153118E0,2.234226418E1
1.396150937E1,3.714179230E1,-6.061272621E-1,1.795610809E1
1.397817531E1,3.187034225E1,-6.463247299E0,1.373535061E1
1.399484125E1,2.606769562E1,-1.282179642E1,1.329861450E1
1.401150718E1,1.982224464E1,-2.023033524E1,1.539133739E1
1.402817312E1,1.334411049E1,-2.719887161E1,1.628538704E1
1.404483906E1,9.820110321E0,-3.245205307E1,1.101673508E1
1.406150500E1,7.777941227E0,-3.485686874E1,2.701145172E0
1.407817093E1,2.719549179E0,-3.335188675E1,-2.150080919E0
1.409483687E1,-2.090912104E0,-3.157349205E1,-4.294925213E0
1.411150281E1,-5.610663414E0,-2.958361435E1,-6.392775536E0
1.412816875E1,-8.313902855E0,-2.754017639E1,-7.697318554E0
1.414483468E1,-9.322836876E0,-2.536009789E1,-9.196891785E0
1.416150062E1,-7.885141850E0,-2.303053665E1,-1.137776852E1
1.417816656E1,-4.303970337E0,-2.107215500E1,-1.261125755E1
1.419483250E1,-3.769297600E-1,-1.935886192E1,-1.277116585E1
1.421149843E1,4.457468987E0,-1.857652283E1,-1.221921158E1
1.422816437E1,1.026604652E1,-1.677491760E1,-1.127557278E1
1.424483031E1,1.597796440E1,-1.094209480E1,-1.010590553E1
1.426149625E1,2.650718689E1,-1.912267208E0,-3.713936806E0
1.427816218E1,4.213720322E1,6.124911308E0,1.059856033E1
1.429482812E1,4.763240433E1,1.191645050E1,1.943648338E1
1.431149406E1,3.294810867E1,1.573968601E1,1.861682129E1
1.432816000E1,1.494193172E1,1.724467850E1,1.262948513E1
1.434482593E1,6.891320229E0,1.650376892E1,5.430848598E0
1.436149187E1,4.560394287E0,1.427942944E1,3.607356548E0
1.437815781E1,2.666133881E0,1.277169418E1,5.674839497E0
1.439482375E1,-4.185770988E0,1.339063072E1,8.105734825E0
1.441148968E1,-1.102031422E1,1.508504581E1,7.806037903E0
1.442815562E1,-1.492659187E1,1.809130669E1,6.069367886E0
1.444482156E1,-1.749354362E1,2.159779930E1,4.947244644E0
1.446148750E1,-1.839370728E1,2.374837875E1,6.524597168E0
1.447815343E1,-1.595278168E1,2.341897774E1,1.046455669E1
1.449481937E1,-1.500473022E1,2.080710793E1,1.563863754E1
1.451148531E1,-1.433729935E1,1.717870140E1,2.113071823E1
1.452815125E1,-9.639052391E0,1.458009434E1,2.351865196E1
1.454481718E1,4.537286758E-1,1.286855888E1,2.123863602E1
1.456148312E1,1.247108936E1,1.032191849E1,1.858040810E1
1.457814906E1,2.157670403E1,8.905126572E0,1.809109879E1
1.459481500E1,2.915271378E1,9.587995529E0,1.720261765E1
1.461148093E1,4.118758392E1,9.609359741E0,1.300046539E1
1.462814687E1,5.029307938E1,4.829019070E0,2.922382832E0
1.464481281E1,4.505189133E1,-3.943274736E0,-2.393888474E0
1.466147875E1,2.937178040E1,-1.279211235E1,3.940553665E0
1.467814468E1,1.702231979E1,-1.948517609E1,8.933231354E0
1.469481062E1,1.297769356E1,-2.485495377E1,6.585678101E0
1.471147656E1,9.988433838E0,-2.907523346E1,1.819200516E-1
1.472814250E1,4.634735584E0,-3.130825806E1,-6.669485569E0
1.474480843E1,-1.497627020E0,-3.028794861E1,-1.029125023E1
1.476147437E1,-5.413187027E0,-3.008780670E1,-1.112307262E1
1.477814031E1,-8.178759575E0,-3.016256332E1,-1.044726467E1
1.479480625E1,-9.368734360E0,-2.936613655E1,-9.662662506E0
1.481147218E1,-9.412853241E0,-2.829793930E1,-9.487693787E0
1.482813812E1,-1.003569984E1,-2.588852501E1,-8.742114067E0
1.484480406E1,-9.152111053E0,-2.293461037E1,-7.173961639E0
1.486147000E1,-5.094700813E0,-2.013802910E1,-5.786311150E0
1.487813593E1,1.080935955E0,-1.783493233E1,-5.068490982E0
1.489480187E1,6.626840591E0,-1.451706886E1,-3.476192713E0
1.491146781E1,1.147388554E1,-8.330741882E0,-1.464653254E0
1.492813375E1,2.150685120E1,2.302238941E0,7.428604960E-1
1.494479968E1,4.116877747E1,1.295944023E1,9.461399913E-1
1.496146562E1,5.445823669E1,1.825925255E1,2.960879803E0
1.497813156E1,4.107323456E1,1.945995903E1,1.063713646E1
1.499479750E1,1.793527985E1,1.627693939E1,1.788984680E1
1.501146343E1,2.175087929E0,1.310100937E1,1.504625511E1
1.502812937E1,-3.980747223E0,1.150646210E1,7.897155762E0
1.504479531E1,-6.758175850E0,1.073034763E1,2.897195339E0
1.506146125E1,-9.324936867E0,9.638238907E0,1.196854711E0
1.507812718E1,-1.036197376E1,8.528209686E0,1.040475726E0
1.509479312E1,-9.841879845E0,8.523146629E0,1.271231771E0
1.511145906E1,-1.087344551E1,1.052007103E1,1.835469723E0
1.512812500E1,-1.089759636E1,1.215286160E1,2.686307669E0
1.514479093E1,-1.037487602E1,1.234408760E1,3.411888361E0
1.516145687E1,-1.138057327E1,1.176131535E1,3.825894117E0
1.517812281E1,-1.292225170E1,1.077862644E1,5.882102013E0
1.519478875E1,-1.157520485E1,1.024596024E1,8.705924988E0
1.521145468E1,-5.869141102E0,1.208532333E1,9.902187347E0
1.522812062E1,-4.201769829E-1,1.515859604E1,9.014389992E0
1.524478656E1,4.025528431E0,1.757332420E1,9.046954155E0
1.526145250E1,1.083952045E1,1.832716560E1,1.133173943E1
1.527811843E1,1.926498413E1,1.673221970E1,1.226568794E1
1.529478437E1,2.909704971E1,1.436960602E1,8.349589348E0
1.531145031E1,3.442839813E1,9.543798447E0,-8.155484200E-1
1.532811625E1,3.233460999E1,3.351119041E0,-5.413685322E0
1.534478218E1,2.648072624E1,-6.483889580E0,-1.899743557E0
1.536144812E1,1.748189735E1,-1.585536575E1,4.436331749E0
1.537811406E1,1.061956787E1,-2.283113480E1,6.428973675E0
1.539478000E1,6.355341911E0,-2.716288376E1,2.759178638E0
1.541144593E1,2.946621418E0,-2.983676529E1,-3.069208384E0
1.542811187E1,-7.106544971E-1,-3.122126007E1,-7.082862854E0
1.544477781E1,-3.448783636E0,-3.269763947E1,-8.985581398E0
1.546144375E1,-6.772946358E0,-3.347740555E1,-9.219187737E0
1.547810968E1,-1.058773422E1,-3.206977463E1,-8.345936775E0
1.549477562E1,-1.037959194E1,-2.976203156E1,-7.638294220E0
1.551144156E1,-2.937347889E0,-2.743886948E1,-5.628849506E0
1.552810750E1,8.975234985E0,-2.417039871E1,-3.500878572E0
1.554477343E1,1.655660248E1,-1.744979477E1,-2.966615677E0
1.556143937E1,1.888389587E1,-6.742108822E0,-3.244772434E0
1.557810531E1,2.551267242E1,5.794710636E0,-3.129955530E0
1.559477125E1,4.391201782E1,1.407346344E1,1.776566148E0
1.561143718E1,5.095160675E1,1.975389481E1,1.191761303E1
1.562810312E1,3.322708893E1,2.117792892E1,2.267956352E1
1.564476906E1,1.141141510E1,1.963074493E1,1.840436172E1
1.566143500E1,1.434698105E0,1.565456009E1,7.619048119E0
1.567810093E1,-3.387811184E0,1.371495152E1,2.218736887E0
1.569476687E1,-4.729856014E0,1.340252495E1,2.846854210E0
1.571143281E1,-7.301613808E0,1.420488358E1,6.053388119E0
1.572809875E1,-1.143601894E1,1.557633781E1,7.730749607E0
1.574476468E1,-1.494192886E1,1.705249405E1,7.234287739E0
1.576143062E1,-1.610234833E1,1.670316124E1,5.242097855E0
1.577809656E1,-1.652622414E1,1.478023148E1,3.899024010E0
1.579476250E1,-1.624190903E1,1.188540649E1,5.309373856E0
1.581142843E1,-1.432667542E1,9.551330566E0,8.046275139E0
1.582809437E1,-8.830988884E0,8.144781113E0,1.007312202E1
1.584476031E1,-8.346629143E-1,7.419986248E0,9.573845863E0
1.586142625E1,6.497125626E0,6.679035664E0,8.229162216E0
1.587809218E1,9.882881165E0,6.335971355E0,8.160718918E0
1.589475812E1,1.148525620E1,4.983617783E0,9.641894341E0
1.591142406E1,1.469984627E1,8.250591278E0,1.222120667E1
1.592809000E1,3.237880707E1,8.440601349E0,1.081754589E1
1.594475593E1,4.498229980E1,5.316535950E0,4.718662262E0
1.596142187E1,3.976004410E1,-6.528444290E-1,2.335211277E0
1.597808781E1,2.572136307E1,-1.020340252E1,7.850976944E0
1.599475375E1,1.097224712E1,-1.796577454E1,1.309066772E1
1.601141968E1,3.318134546E0,-2.208949471E1,1.217004585E1
1.602808562E1,3.525397539E0,-2.558912277E1,5.768392086E0
1.604475156E1,2.938492775E0,-2.758958054E1,-4.560778141E-1
1.606141750E1,-1.554003358E0,-2.814544678E1,-5.969172001E0
1.607808343E1,-8.136188507E0,-2.770062637E1,-8.891294479E0
1.609474937E1,-1.376729012E1,-2.762479019E1,-1.078961945E1
1.611141531E1,-1.560167980E1,-2.729492950E1,-9.275336266E0
1.612808125E1,-1.292430115E1,-2.789209747E1,-4.582124710E0
1.614474718E1,-6.247146130E0,-2.877157974E1,1.915140867E0
1.616141312E1,4.785286903E0,-2.781548309E1,8.114735603E0
1.617807906E1,1.833966446E1,-2.205034637E1,9.744524002E0
1.619474500E1,2.724982452E1,-1.158958435E1,8.778716087E0
1.621141093E1,2.986069679E1,1.461628437E0,7.884875298E0
1.622807687E1,3.029808044E1,1.000673676E1,8.389648438E0
1.624474281E1,2.543902016E1,1.282556534E1,7.648018837E0
1.626140875E1,1.500724792E1,1.301350594E1,5.748965263E0
1.627807468E1,6.842291832E0,1.313933945E1,3.639839888E0
1.629474062E1,4.652654648E0,1.483025932E1,1.064991236E0
1.631140656E1,6.321848869E0,1.755616379E1,5.943771601E-1
1.632807250E1,9.809101105E0,1.817168045E1,3.565960646E0
1.634473843E1,1.189050102E1,1.664529037E1,7.876499653E0
1.636140437E1,8.332532883E0,1.394875717E1,1.222333241E1
1.637807031E1,3.003701210E0,1.025683403E1,1.384800529E1
1.639473625E1,-1.124045372E0,6.201801300E0,1.140395927E1
1.641140218E1,-4.053863525E0,3.237725496E0,7.858362198E0
1.642806812E1,-5.129232883E0,1.334407806E0,5.558695793E0
1.644473406E1,-5.279567719E0,-4.585142136E-1,3.858901501E0
1.646140000E1,-5.845686913E0,-1.265009880E0,2.648272276E0
1.647806593E1,-6.526987076E0,-5.813021660E-1,2.174497366E0
1.649473187E1,-7.705857754E0,2.168655396E-2,3.166113138E0
1.651139781E1,-8.202996254E0,8.651394844E-1,6.822129250E0
1.652806375E1,-7.257165432E0,2.270278454E0,1.312479877E1
1.654472968E1,-2.343760014E0,3.614563465E0,2.114147949E1
1.656139562E1,6.792794228E0,4.960474014E0,2.273414421E1
1.657806156E1,1.412937832E1,6.450910568E0,1.912566948E1
1.659472750E1,1.467998409E1,8.329689980E0,1.415318680E1
1.661139343E1,1.343960857E1,7.019422054E0,1.474585915E1
1.662805937E1,1.214395142E1,2.163837433E0,1.976348114E1
1.664472531E1,1.036626053E1,-2.047718048E0,2.440135956E1
1.666139125E1,1.104503822E1,-5.301262856E0,2.339926529E1
1.667805718E1,1.203221893E1,-7.096159935E0,1.814906311E1
1.669472312E1,1.187026691E1,-8.999860764E0,1.361181355E1
1.671138906E1,1.009495926E1,-1.061820889E1,1.164195728E1
1.672805500E1,8.776247025E0,-1.258709145E1,1.035523605E1
1.674472093E1,8.783542633E0,-1.450818634E1,9.190931320E0
1.676138687E1,1.017591286E1,-1.709986115E1,7.437967300E0
1.677805281E1,9.506546021E0,-2.070458412E1,6.801532745E0
1.679471875E1,5.986662388E0,-2.315979958E1,7.789973259E0
1.681138468E1,1.717208385E0,-2.384858322E1,6.453484535E0
1.682805062E1,-1.376830101E0,-2.310561752E1,1.552000761E0
1.684471656E1,-3.252701283E0,-2.131835556E1,-6.569825649E0
1.686138250E1,-4.432803154E0,-1.845547104E1,-1.518115807E1
1.687804843E1,-1.740777016E0,-1.597032547E1,-2.175028038E1
1.689471437E1,3.072591782E0,-1.355909538E1,-2.400056648E1
1.691138031E1,4.968442917E0,-1.141236115E1,-2.115301704E1
1.692804625E1,4.590459824E0,-9.999103546E0,-1.385653591E1
1.694471218E1,7.312753677E0,-8.669219971E0,-6.532323837E0
1.696137812E1,1.374599934E1,-6.906321049E0,-3.531339645E0
1.697804406E1,1.965113258E1,-3.384057522E0,8.354794979E-1
1.699471000E1,2.452295494E1,4.644247055E0,6.301027775E0
1.701137593E1,3.168258858E1,1.411200237E1,9.645586014E0
1.702804187E1,4.046141052E1,1.857401466E1,1.436978245E1
1.704470781E1,3.486955643E1,1.941355324E1,2.382765579E1
1.706137375E1,1.736661911E1,1.909367561E1,2.958201981E1
1.707803968E1,4.919922829E0,1.890587425E1,2.306229401E1
1.709470562E1,7.499055862E-1,1.874861145E1,9.581270218E0
1.711137156E1,-2.709758759E0,2.010499001E1,-1.024908543E0
1.712803750E1,-8.186803818E0,2.169869804E1,-3.931555748E0
1.714470343E1,-1.163642406E1,2.106799126E1,7.039546967E-3
1.716136937E1,-1.213988304E1,1.907733536E1,6.739840508E0
1.717803531E1,-1.185274029E1,1.690477753E1,1.218786430E1
1.719470125E1,-1.146853828E1,1.495381451E1,1.309085274E1
1.721136718E1,-1.098105335E1,1.389328194E1,9.253309250E0
1.722803312E1,-9.398193359E0,1.407553768E1,6.310153008E0
1.724469906E1,-5.490153790E0,1.385514069E1,8.016844749E0
1.726136500E1,4.297399521E-1,1.171150017E1,1.405126381E1
1.727803093E1,6.686809540E0,9.588374138E0,1.987942314E1
1.729469687E1,1.260280609E1,8.583707809E0,2.091723442E1
1.731136281E1,1.837119675E1,9.279964447E0,1.786561775E1
1.732802875E1,2.557348442E1,1.093317413E1,1.378785896E1
1.734469468E1,3.463501358E1,1.135657120E1,1.200371456E1
1.736136062E1,4.107097244E1,6.680741787E0,1.032530403E1
1.737802656E1,4.037758255E1,-1.109565258E0,1.190243340E1
1.739469250E1,3.355240631E1,-1.035899544E1,1.449234581E1
1.741135843E1,2.571538925E1,-1.764054489E1,1.530849552E1
1.742802437E1,2.102409935E1,-2.479566956E1,1.193014050E1
1.744469031E1,1.626433372E1,-3.164665222E1,6.164282799E0
1.746135625E1,7.999004841E0,-3.502958679E1,1.196027279E0
1.747802218E1,-1.081326246E0,-3.524678040E1,-1.012970209E0
1.749468812E1,-5.238512039E0,-3.466418076E1,-2.449059010E0
1.751135406E1,-7.953252316E0,-3.386193848E1,-6.207794666E0
1.752802000E1,-1.135500145E1,-3.145223618E1,-1.056777573E1
1.754468593E1,-1.317561245E1,-2.883063889E1,-1.338358116E1
1.756135187E1,-1.219258499E1,-2.640505981E1,-1.390366840E1
1.757801781E1,-9.978574753E0,-2.342542839E1,-1.276031876E1
1.759468375E1,-6.749782085E0,-2.091567612E1,-1.099873638E1
1.761134968E1,-1.640806675E0,-1.923403549E1,-8.549267769E0
1.762801562E1,6.164617062E0,-1.831250572E1,-7.994265556E0
1.764468156E1,1.436676884E1,-1.453275108E1,-9.499109268E0
1.766134750E1,2.235941315E1,-3.913314581E0,-8.412653923E0
1.767801343E1,3.730640411E1,8.039141655E0,-2.969488621E0
1.769467937E1,5.958092499E1,1.359958839E1,6.923351765E0
1.771134531E1,5.719741821E1,1.571426773E1,1.730004692E1
1.772801125E1,2.829686737E1,1.485891533E1,2.552228737E1
1.774467718E1,4.108281136E0,1.380867195E1,2.177035713E1
1.776134312E1,-3.196573257E0,1.289167500E1,9.400922775E0
1.777800906E1,-3.204792500E0,1.266509628E1,-9.351256490E-2
1.779467500E1,-6.004044533E0,1.179948044E1,-2.907958984E0
1.781134093E1,-1.023085690E1,1.060421371E1,-5.119591951E-1
1.782800687E1,-1.323063469E1,1.005587006E1,2.485117674E0
1.784467281E1,-1.486972618E1,1.077516937E1,5.076498508E0
1.786133875E1,-1.494153595E1,1.220062828E1,5.712110996E0
1.787800468E1,-1.403218937E1,1.321843815E1,4.644848824E0
1.789467062E1,-1.246348572E1,1.383865452E1,4.480529308E0
1.791133656E1,-1.176811218E1,1.290101337E1,7.137207508E0
1.792800250E1,-1.163923454E1,9.956007004E0,1.184108162E1
1.794466843E1,-1.056861305E1,6.792327881E0,1.599944019E1
1.796133437E1,-7.590661049E0,5.240960121E0,1.488749886E1
1.797800031E1,-2.309296608E0,6.260216236E0,1.034086800E1
1.799466625E1,6.451174736E0,8.128882408E0,7.448218346E0
1.801133218E1,1.318857384E1,1.229800320E1,8.281311035E0
1.802799812E1,2.283193779E1,1.497692490E1,1.173662090E1
1.804466406E1,3.266680145E1,1.193993187E1,1.228650284E1
1.806133000E1,3.512283707E1,5.922780991E0,1.292696381E1
1.807799593E1,3.110471535E1,-2.760375500E0,1.240650368E1
1.809466187E1,2.358539391E1,-1.031149960E1,9.707648277E0
1.811132781E1,1.597800255E1,-1.581372166E1,5.774753571E0
1.812799375E1,1.060053444E1,-2.007930374E1,2.181545258E0
1.814465968E1,5.974167824E0,-2.446481323E1,-9.592018127E-1
1.816132562E1,1.116262436E0,-2.740734863E1,-3.826593876E0
1.817799156E1,-3.235595465E0,-2.795391083E1,-6.505641937E0
1.819465750E1,-6.354239464E0,-2.798252106E1,-8.800582886E0
1.821132343E1,-9.057682037E0,-2.671356010E1,-1.098082161E1
1.822798937E1,-1.053916740E1,-2.539412880E1,-1.213183689E1
1.824465531E1,-1.017680550E1,-2.426467514E1,-1.165487957E1
1.826132125E1,-8.186979294E0,-2.340642166E1,-9.635796547E0
1.827798718E1,-5.256700039E0,-2.207627487E1,-6.710142612E0
1.829465312E1,-1.591912746E0,-2.080061722E1,-4.163072586E0
1.831131906E1,1.361814022E0,-1.884462929E1,-2.169198513E0
1.832798500E1,4.220245361E0,-1.645526505E1,-1.839973450E0
1.834465093E1,9.263195038E0,-1.365709114E1,-8.081784248E-1
1.836131687E1,1.593149948E1,-7.736520290E0,2.656887531E0
1.837798281E1,2.974655724E1,3.607920170E0,9.038051605E0
1.839464875E1,5.335752869E1,1.154898357E1,1.423361111E1
1.841131468E1,5.736837769E1,1.600510597E1,2.049130440E1
1.842798062E1,3.409463120E1,1.540830231E1,2.665145683E1
1.844464656E1,1.059900761E1,1.429564667E1,2.261672211E1
1.846131250E1,8.211421967E-2,1.322311878E1,1.008014011E1
1.847797843E1,-2.429385662E0,1.283346844E1,8.372399807E-1
1.849464437E1,-4.443108559E0,1.150675678E1,-2.027008772E0
1.851131031E1,-7.583543777E0,9.362427711E0,2.584757209E-1
1.852797625E1,-9.488065720E0,7.953545570E0,3.595843077E0
1.854464218E1,-1.047898197E1,7.949684620E0,4.732745171E0
1.856130812E1,-1.119507408E1,8.799961090E0,3.762702227E0
1.857797406E1,-1.144050121E1,1.048118019E1,1.572092175E0
1.859464000E1,-1.098393536E1,1.179557991E1,-3.714241982E-1
1.861130593E1,-1.112040615E1,1.213502884E1,-1.377686620E0
1.862797187E1,-1.454970169E1,1.223687840E1,-2.187658548E0
1.864463781E1,-1.976503372E1,1.449660587E1,-4.129011154E0
1.866130375E1,-1.708513641E1,1.784371948E1,-8.550624847E0
1.867796968E1,-4.776410103E0,1.735121536E1,-1.028833199E1
1.869463562E1,6.512206554E0,1.345043945E1,-9.962713718E-1
1.871130156E1,1.018559742E1,1.325092316E1,1.267491627E1
1.872796750E1,1.614326286E1,1.714694977E1,2.244728088E1
1.874463343E1,3.174057770E1,1.540886784E1,1.596475887E1
1.876129937E1,4.111096191E1,1.294553375E1,1.376754165E0
1.877796531E1,4.203515244E1,7.443070412E0,-1.194804478E1
1.879463125E1,3.318063354E1,-9.605026245E-2,-1.346986103E1
1.881129718E1,2.159441566E1,-9.222994804E0,-4.255171776E0
1.882796312E1,1.294581032E1,-1.684108543E1,4.712683678E0
1.884462906E1,8.228331566E0,-2.250623703E1,1.043963814E1
1.886129500E1,5.652818203E0,-2.595250320E1,1.044567680E1
1.887796093E1,4.237700462E0,-2.796664810E1,4.694555283E0
1.889462687E1,2.202083111E0,-2.925035477E1,-1.587653160E0
1.891129281E1,-2.557478666E0,-2.933629227E1,-4.342462063E0
1.892795875E1,-7.818781376E0,-2.883330536E1,-3.909157038E0
1.894462468E1,-1.149044895E1,-2.876153183E1,-1.387531519E0
1.896129062E1,-1.345555782E1,-2.809917831E1,7.012950182E-1
1.897795656E1,-1.234375572E1,-2.689334488E1,3.109817505E-1
1.899462250E1,-8.519306183E0,-2.530327797E1,-1.581503987E0
1.901128843E1,-2.862045050E0,-2.335255241E1,-3.189482212E0
1.902795437E1,3.992956161E0,-2.199971008E1,-6.553483009E0
1.904462031E1,9.482814789E0,-2.128787041E1,-9.178583145E0
1.906128625E1,1.495576382E1,-1.468585587E1,-6.284163952E0
1.907795218E1,3.235580826E1,-2.518471479E0,3.044343710E0
1.909461812E1,5.854548645E1,7.310007095E0,1.281078720E1
1.911128406E1,6.470275116E1,1.370271492E1,1.403622818E1
1.912795000E1,4.063756561E1,1.672300339E1,1.411353302E1
1.914461593E1,1.457438564E1,1.613610649E1,8.144771576E0
1.916128187E1,2.900437355E0,1.351952362E1,1.414906383E0
1.917794781E1,-7.054319382E-1,1.069564629E1,-9.906622022E-2
1.919461375E1,-4.439538956E0,9.190686226E0,1.896398544E0
1.921127968E1,-6.209055901E0,9.023386955E0,4.850545406E0
1.922794562E1,-6.857891083E0,1.018026733E1,5.040863991E0
1.924461156E1,-8.112474442E0,1.204193687E1,2.986746311E0
1.926127750E1,-1.033233738E1,1.385640240E1,5.821640491E-1
1.927794343E1,-1.321242332E1,1.504512787E1,-1.181569815E0
1.929460937E1,-1.588659668E1,1.594463348E1,-1.450649977E0
1.931127531E1,-1.679502106E1,1.596097374E1,1.238179207E-1
1.932794125E1,-1.659001923E1,1.448486519E1,2.434722185E0
1.934460718E1,-1.620296860E1,1.185248661E1,5.991137505E0
1.936127312E1,-1.540231133E1,9.231004715E0,9.458906174E0
1.937793906E1,-1.204150867E1,7.159256935E0,1.126409340E1
1.939460500E1,-7.076743126E0,7.035674095E0,1.159888649E1
1.941127093E1,-1.835903645E0,1.008904839E1,1.232623863E1
1.942793687E1,9.549525261E0,1.455735779E1,1.333208275E1
1.944460281E1,2.894432640E1,1.763981247E1,1.297990513E1
1.946126875E1,4.601485825E1,2.014527702E1,9.051667213E0
1.947793468E1,5.410397720E1,1.534147072E1,7.218957901E0
1.949460062E1,4.830657959E1,5.609807014E0,1.167026997E1
1.951126656E1,3.519087219E1,-3.804837227E0,1.567324257E1
1.952793250E1,2.285558319E1,-1.104696941E1,1.477694035E1
1.954459843E1,1.379173279E1,-1.390360069E1,1.149973488E1
1.956126437E1,1.081900406E1,-1.556425476E1,7.694920540E0
1.957793031E1,8.830177307E0,-1.615695190E1,3.855396986E0
1.959459625E1,6.207650185E0,-1.574505997E1,5.273504257E-1
1.961126218E1,4.476922989E0,-1.513535118E1,-6.623035669E-1
1.962792812E1,3.513429642E0,-1.500953293E1,-8.296220303E-1
1.964459406E1,2.176850796E0,-1.510713005E1,-3.181864023E-1
1.966126000E1,5.107736588E-1,-1.532228088E1,6.451224089E-1
1.967792593E1,-7.137062550E-1,-1.569155502E1,2.129352570E0
1.969459187E1,-9.541532993E-1,-1.629946899E1,2.774850845E0
1.971125781E1,-4.121379852E-1,-1.628310585E1,2.342258930E0
1.972792375E1,8.954036236E-1,-1.562422276E1,1.724208593E0
1.974458968E1,1.848833561E0,-1.446482849E1,2.792048454E-1
1.976125562E1,2.540693760E0,-1.403681946E1,9.638929367E-2
1.977792156E1,3.008566856E0,-1.496627522E1,5.027236938E-1
1.979458750E1,2.744375467E0,-1.630471420E1,8.934874535E-1
1.981125343E1,1.505816698E0,-1.783840752E1,1.032981873E0
1.982791937E1,-1.379887819E0,-1.836256218E1,1.683401823E0
1.984458531E1,-4.156085014E0,-1.848371887E1,3.561954975E0
1.986125125E1,-5.041960716E0,-1.862765121E1,6.709414482E0
1.987791718E1,-1.295214176E0,-1.733181000E1,9.735248566E0
1.989458312E1,1.044609070E1,-1.301143265E1,1.089570332E1
1.991124906E1,2.623560524E1,-8.799764633E0,1.000473213E1
1.992791500E1,3.014302063E1,-1.128655434E0,7.555745602E0
1.994458093E1,2.345648956E1,5.744305611E0,3.505449772E0
1.996124687E1,1.641979408E1,8.971553802E0,8.692926764E-1
1.997791281E1,1.232384682E1,9.786111832E0,8.156096935E-1
1.999457875E1,1.155716705E1,1.019405746E1,2.077342749E0
2.001124468E1,1.146129227E1,1.118513393E1,4.136628151E0
2.002791062E1,9.976861954E0,1.175866127E1,4.845659733E0
2.004457656E1,6.214906693E0,1.191042805E1,3.230263710E0
2.006124250E1,8.510303497E-1,1.161572266E1,1.450111747E0
2.007790843E1,-3.577301502E0,1.103408527E1,1.506469011E0
2.009457437E1,-5.396327972E0,1.018573380E1,2.997221470E0
2.011124031E1,-5.840816498E0,9.012773514E0,3.636102200E0
2.012790625E1,-6.684384823E0,7.889645576E0,2.881369114E0
2.014457218E1,-7.683903217E0,7.142909050E0,1.679236054E0
2.016123812E1,-8.178244591E0,6.851700306E0,2.963827848E-1
2.017790406E1,-7.013298035E0,6.817660809E0,-2.703185081E-1
2.019457000E1,-5.378571510E0,7.533656120E0,4.439859390E-1
2.021123593E1,-2.665483475E0,9.756876945E0,2.576076031E0
2.022790187E1,8.328056335E-1,1.366065788E1,4.605156422E0
2.024456781E1,5.574987411E0,1.784819984E1,6.894629002E0
2.026123375E1,1.611658096E1,1.815933800E1,5.999988079E0
2.027789968E1,2.689941025E1,1.593919945E1,2.933660984E0
2.029456562E1,3.138547516E1,1.071890545E1,4.000134945E0
2.031123156E1,2.581709671E1,4.064056873E0,9.562210083E0
2.032789750E1,1.674401093E1,-8.842329979E-1,1.497258759E1
2.034456343E1,1.127245140E1,-4.092191696E0,1.465249825E1
2.036122937E1,9.095766068E0,-6.194896698E0,9.858278275E0
2.037789531E1,7.747905731E0,-7.378636837E0,4.677072525E0
2.039456125E1,6.288934231E0,-8.180029869E0,1.548883200E0
2.041122718E1,5.331692219E0,-8.837542534E0,4.152395725E-1
2.042789312E1,5.148300171E0,-9.871568680E0,2.846167088E-1
2.044455906E1,5.810292721E0,-1.159275913E1,-5.611538887E-2
2.046122500E1,5.944403172E0,-1.389776611E1,-8.340189457E-1
2.047789093E1,4.124782085E0,-1.409465408E1,-4.019973278E-1
2.049455687E1,2.161244631E0,-1.344790459E1,-1.985530853E-1
2.051122281E1,1.096772909E0,-1.283019543E1,-6.084704399E-2
2.052788875E1,1.430098772E0,-1.288716793E1,6.733862162E-1
2.054455468E1,1.655296087E0,-1.315656090E1,1.224708319E0
2.056122062E1,1.101816177E0,-1.318400669E1,1.933932900E0
2.057788656E1,-4.650077820E-1,-1.283445454E1,1.377216697E0
2.059455250E1,-2.321710825E0,-1.230716896E1,-4.514658451E-2
2.061121843E1,-4.191188812E0,-1.147755623E1,-1.029784083E0
2.062788437E1,-5.131405830E0,-1.079165840E1,-1.218020678E0
2.064455031E1,-5.128690720E0,-1.013201714E1,-1.005889893E0
2.066121625E1,-4.787041664E0,-9.186976433E0,2.079150975E-1
2.067788218E1,-5.354500771E0,-7.420902252E0,1.235545158E0
2.069454812E1,-4.724784851E0,-4.926943779E0,3.364520788E0
2.071121406E1,-7.398798466E-1,-2.531738281E0,3.973345280E0
2.072788000E1,6.216504574E0,-9.695992470E-1,4.386795044E0
2.074454593E1,1.183866882E1,2.191933155E0,6.174860477E0
2.076121187E1,1.376866150E1,5.847054482E0,7.098896027E0
2.077787781E1,1.246266079E1,8.552186966E0,7.061719894E0
2.079454375E1,9.291878700E0,1.017497730E1,6.581659317E0
2.081120968E1,5.043134689E0,1.067735577E1,5.270366669E0
2.082787562E1,1.549297333E0,9.455533981E0,2.951834679E0
2.084454156E1,-6.988344193E-1,7.584333897E0,9.969837666E-1
2.086120750E1,-2.181827545E0,5.916793823E0,-3.647136688E-2
2.087787343E1,-3.266655684E0,4.864428043E0,-8.276298046E-1
2.089453937E1,-4.072089195E0,4.122899055E0,-1.645499349E0
2.091120531E1,-4.798246861E0,3.494641781E0,-2.338042736E0
2.092787125E1,-5.394424915E0,2.885494709E0,-2.678250790E0
2.094453718E1,-5.321824551E0,2.518035412E0,-2.612802505E0
2.096120312E1,-4.679584503E0,2.340675831E0,-1.866110325E0
2.097786906E1,-3.935876131E0,2.437571526E0,-8.314309120E-1
2.099453500E1,-3.173959494E0,3.468906879E0,6.232404709E-1
2.101120093E1,-2.287919044E0,4.277626038E0,2.569684505E0
2.102786687E1,-1.153329849E0,4.973089695E0,5.308503151E0
2.104453281E1,2.976822853E-1,4.921793461E0,6.805719852E0
2.106119875E1,1.738163948E0,4.427299023E0,6.956585884E0
2.107786468E1,2.708477020E0,3.646685600E0,6.348373890E0
2.109453062E1,2.854907036E0,2.549695969E0,5.385808945E0
2.111119656E1,2.400634766E0,1.325588703E0,4.533611298E0
2.112786250E1,1.984819412E0,2.034306526E-1,4.137275696E0
2.114452843E1,1.012382030E0,-2.765035629E-1,3.001138210E0
2.116119437E1,4.270529747E-1,-1.304618359E0,1.305342197E0
2.117786031E1,2.168693542E-1,-2.015964508E0,-2.263693810E-1
2.119452625E1,-9.775590897E-1,-2.324435949E0,-1.859830856E0
2.121119218E1,-1.045651436E-1,-2.242646933E0,-1.438511133E0
2.122785812E1,1.089780807E0,-2.865005970E0,-1.804442406E-1
2.124452406E1,1.663239956E0,-3.242908001E0,6.434202194E-2
2.126119000E1,1.171304703E0,-3.751294136E0,-8.725633621E-1
2.127785593E1,-2.636551857E-1,-3.907871246E0,-1.233677864E0
2.129452187E1,-1.189682245E0,-3.471845150E0,-1.620929718E0
2.131118781E1,-1.337297201E0,-3.062096119E0,-1.654231071E0
2.132785375E1,-8.734564781E-1,-2.788101435E0,-2.153039455E0
2.134451968E1,-1.571924686E-1,-2.387550354E0,-1.738908768E0
2.136118562E1,-4.276590347E-1,-2.186026096E0,-9.428801537E-1
2.137785156E1,-8.508807421E-1,-2.402981758E0,-6.692633629E-1
2.139451750E1,-6.526896954E-1,-2.545905113E0,-5.766687393E-1
2.141118343E1,1.962828636E-2,-2.423470736E0,-7.153129578E-1
2.142784937E1,3.405542374E-1,-2.085283756E0,-6.576671600E-1
2.144451531E1,-6.694877148E-2,-8.912947178E-1,8.121395111E-2
2.146118125E1,-9.024274945E-1,-1.622622013E-1,-1.237382889E-1
2.147784718E1,-9.783613682E-1,1.388788223E-3,2.675685883E-1
2.149451312E1,-3.307485580E-1,-6.655653715E-1,2.415813446E0
2.151117906E1,-4.751130342E-1,-6.918822527E-1,1.864380836E0
2.152784500E1,-2.837666273E-1,-5.273896456E-1,1.598304749E0
2.154451093E1,-1.549340487E-1,-1.626857400E0,2.531769753E0
2.156117687E1,4.238767624E-1,-2.765188456E0,1.925078392E0
2.157784281E1,1.038619041E0,-2.568448782E0,2.086900711E0
2.159450875E1,-1.834731698E-1,-8.167428970E-1,2.230434418E0
2.161117468E1,-4.733422995E-1,-5.458153486E-1,7.760848999E-1
2.162784062E1,1.418742657E0,-1.266527534E0,1.253352165E0
2.164450656E1,3.367913365E-1,-1.015523195E0,1.049601555E0
2.166117250E1,-7.485103607E-1,-9.009300470E-1,2.890625000E-1
2.167783843E1,-1.157942533E0,-1.225017786E0,-1.426143646E-1
2.169450437E1,-1.340365291E0,-1.050266147E0,1.855745316E-1
2.171117031E1,-1.382772207E0,-7.031387091E-1,4.526844025E-1
2.172783625E1,-8.887974024E-1,-6.968882084E-1,3.623132706E-1
2.174450218E1,-2.838778496E-2,-1.002787948E0,8.418703079E-1
2.176116812E1,7.856749296E-1,-1.169759631E0,1.386602402E0
2.177783406E1,1.064147234E0,-7.519619465E-1,1.241810799E0
2.179450000E1,1.224862933E0,-9.228099585E-1,4.218864441E-1
2.181116593E1,1.388592720E-1,5.278871059E-1,-9.854621887E-1
2.182783187E1,2.715219259E-1,7.671546936E-2,-2.282171249E-1
2.184449781E1,-4.095315933E-3,3.977055550E-1,-1.622276306E-1
2.186116375E1,-2.967971563E-1,7.022900581E-1,3.147125244E-2
2.187782968E1,-5.371043682E-1,7.267355919E-1,-2.560205460E-1
2.189449562E1,-9.513050318E-1,7.632076740E-1,-5.763473511E-1
2.191116156E1,-1.195392132E0,6.235444546E-1,-6.427106857E-1
2.192782750E1,-1.556540489E0,7.575862408E-1,-1.007883072E0
2.194449343E1,-1.814666033E0,6.615114212E-1,-1.145938873E0
2.196115937E1,-1.539532900E0,3.906364441E-1,-5.007648468E-1
2.197782531E1,-7.658177614E-1,3.888204098E-1,2.309389114E-1
2.199449125E1,-3.929193020E-1,4.787840843E-1,6.432809830E-1
2.201115718E1,-5.310535431E-1,3.871316910E-1,7.282438278E-1
2.202782312E1,-7.489303350E-1,4.087984562E-1,5.623273849E-1
2.204448906E1,-1.002460122E0,5.488946438E-1,5.397253036E-1
2.206115500E1,-1.128270745E0,6.141262054E-1,5.072965622E-1
2.207782093E1,-7.376894951E-1,3.829197884E-1,5.710659027E-1
2.209448687E1,-3.642892838E-2,-1.768145561E-1,1.052541733E0
2.211115281E1,2.578678131E-1,-4.603122473E-1,1.506382942E0
2.212781875E1,9.413933754E-2,-6.463509798E-1,2.178968430E0
2.214448468E1,-1.149260998E-1,-7.102291584E-1,2.481835365E0
2.216115062E1,-5.492234230E-2,-5.200026035E-1,2.169406891E0
2.217781656E1,2.846658230E-1,-5.487219095E-1,1.837758064E0
2.219448250E1,7.623536587E-1,-6.328052282E-1,1.366839409E0
2.221114843E1,1.108330250E0,-7.503972054E-1,8.709831238E-1
2.222781437E1,1.070137024E0,-8.615773916E-1,3.883619308E-1
2.224448031E1,7.309277058E-1,-1.040024281E0,-8.580493927E-2
2.226114625E1,3.257858753E-1,-1.185749650E0,-5.904960632E-1
2.227781218E1,1.621191502E-1,-1.144577026E0,-1.055880547E0
2.229447812E1,2.306478024E-1,-9.968097210E-1,-1.206747055E0
2.231114406E1,3.175985813E-1,-9.232957363E-1,-9.826097488E-1
2.232781000E1,3.507230282E-1,-8.484523296E-1,-5.184202194E-1
2.234447593E1,6.867814064E-2,-8.362972736E-1,-9.477233887E-2
2.236114187E1,-1.183784008E-1,-8.136155605E-1,-1.491737366E-2
2.237780781E1,-1.742186546E-1,-7.243788242E-1,-7.667541504E-2
2.239447375E1,-1.764545441E-1,-6.220886707E-1,-8.450317383E-2
2.241113968E1,-7.474994659E-2,-5.822834969E-1,-4.212341309E-1
2.242780562E1,-4.378175735E-2,-5.615125895E-1,-4.844102859E-1
2.244447156E1,-7.174229622E-2,-5.257395506E-1,-5.262546539E-1
2.246113750E1,-9.436368942E-2,-4.082987309E-1,-7.588224411E-1
2.247780343E1,3.936243057E-2,-2.571170330E-1,-9.567852020E-1
2.249446937E1,2.473413944E-1,-1.407928467E-1,-1.225406170E0
2.251113531E1,5.180213451E-1,-7.642316818E-2,-1.890989304E0
2.252780125E1,4.784975052E-1,9.220790863E-2,-1.215857506E0
2.254446718E1,3.409013748E-1,5.463171005E-2,-5.349216461E-1
2.256113312E1,3.783507347E-1,-5.765151978E-2,-1.287059784E-1
2.257779906E1,4.723546505E-1,-7.702231407E-2,-2.470769882E-1
2.259446500E1,4.163086414E-1,9.483909607E-2,-3.258571625E-1
