"Time (s)","Gyroscope x (rad/s)","Gyroscope y (rad/s)","Gyroscope z (rad/s)"
3.465313000E-2,5.711585656E-2,-5.879573524E-3,-2.054032870E-2
5.131906700E-2,5.535962060E-2,6.872228533E-2,-3.344484791E-2
6.798500500E-2,-3.512472380E-3,5.314523727E-2,-4.871646687E-2
8.465094200E-2,-1.046869531E-1,-3.207040206E-2,-8.284853399E-2
1.013168800E-1,-1.912006736E-1,-8.849903196E-2,-9.460768104E-2
1.179828170E-1,-1.669951528E-1,-6.330086291E-2,-8.872810751E-2
1.346487550E-1,-5.047270283E-2,3.459021822E-2,-4.130972922E-2
1.513146920E-1,1.916588284E-2,8.063415438E-2,5.268708803E-3
1.679806300E-1,4.214967042E-2,6.101011857E-2,4.001164436E-2
1.846465670E-1,8.597921580E-2,4.046979360E-3,6.330086291E-2
2.013125050E-1,1.014035568E-1,-2.680169232E-2,5.902481079E-2
2.179784420E-1,4.405862093E-2,-5.031998456E-2,6.337722298E-3
2.346443800E-1,-3.611737862E-2,-1.931859925E-2,-5.482511222E-2
2.513103170E-1,-4.864010960E-2,5.039634556E-2,-7.841976732E-2
2.679762550E-1,-1.763872057E-2,9.476039559E-2,-5.597048625E-2
2.846421920E-1,3.313941509E-2,5.665770918E-2,-1.191186346E-2
3.013081300E-1,9.147699922E-2,2.084576152E-2,3.436114267E-2
3.179740670E-1,7.918334752E-2,6.261364091E-3,5.413788930E-2
3.346400050E-1,5.581776798E-2,1.130099874E-2,2.084576152E-2
3.513059420E-1,5.138900131E-2,3.787361458E-2,-1.802051067E-2
3.679718800E-1,1.427896414E-2,2.588539571E-2,-3.665188700E-2
3.846378170E-1,0.000000000E0,1.183550525E-2,-3.161225095E-2
4.013037550E-1,-3.359756200E-3,-4.581485991E-4,-1.099556591E-2
4.179696920E-1,-3.718639165E-2,-4.382954910E-2,-1.091920771E-2
4.346356300E-1,-1.282816008E-2,-1.014799103E-1,-3.993528336E-2
4.513015670E-1,-1.145371422E-2,-1.119409725E-1,-8.239039034E-2
4.679675050E-1,-3.940077871E-2,-8.643736690E-2,-9.224057943E-2
4.846334420E-1,-3.703367710E-2,-6.780599058E-2,-9.773836285E-2
5.012993800E-1,-5.024362728E-2,-9.422589093E-2,-1.171333194E-1
5.179653170E-1,-4.169152305E-2,-1.082757786E-1,-1.204167232E-1
5.346312550E-1,-1.061377581E-2,-9.521854669E-2,-9.109520912E-2
5.512971920E-1,1.229365356E-2,-1.001818255E-1,-6.360629201E-2
5.679631300E-1,-4.199695308E-3,-1.135444939E-1,-6.177370250E-2
5.846290670E-1,-4.688387364E-2,-1.167515293E-1,-7.864884287E-2
6.012950050E-1,-8.200860023E-2,-1.081994250E-1,-1.069776937E-1
6.179609420E-1,-9.666935354E-2,-9.735657275E-2,-1.156825200E-1
6.346268800E-1,-1.207221523E-1,-1.092684343E-1,-1.034652218E-1
6.512928170E-1,-1.392008066E-1,-1.369864196E-1,-1.000291109E-1
6.679587550E-1,-1.689041108E-1,-1.957821548E-1,-1.155297980E-1
6.846246920E-1,-1.899025887E-1,-2.360228747E-1,-1.248454899E-1
7.012906300E-1,-1.396589577E-1,-2.491564751E-1,-1.228601784E-1
7.179565670E-1,-5.421425030E-2,-2.332739830E-1,-1.113301069E-1
7.346225050E-1,-1.183550525E-2,-1.729510874E-1,-1.079703495E-1
7.512884420E-1,-3.191768378E-2,-8.727730811E-2,-1.122464016E-1
7.679543800E-1,-1.088866442E-1,-3.199404106E-2,-1.213330179E-1
7.846203170E-1,-1.609628648E-1,-9.086613543E-3,-1.298851222E-1
8.012862550E-1,-1.698204130E-1,-4.062250629E-2,-1.356119812E-1
8.179521920E-1,-1.721111536E-1,-9.155336022E-2,-1.277471036E-1
8.346181300E-1,-1.748600453E-1,-1.110246703E-1,-9.246965498E-2
8.512840670E-1,-1.416442692E-1,-1.065959036E-1,-4.726566374E-2
8.679500050E-1,-1.154534444E-1,-7.681624591E-2,-8.628465235E-3
8.846159420E-1,-1.230128929E-1,-8.758273721E-2,-8.399390499E-4
9.012818800E-1,-1.480583549E-1,-9.476039559E-2,1.214093715E-2
9.179478170E-1,-1.870773435E-1,-1.153770834E-1,4.375318810E-2
9.346137550E-1,-2.270889878E-1,-1.813504845E-1,8.727730811E-2
9.512796920E-1,-2.364046723E-1,-2.742782831E-1,9.865466505E-2
9.679456300E-1,-2.487746775E-1,-3.517054021E-1,5.948295817E-2
9.846115670E-1,-2.820668221E-1,-3.843866587E-1,-2.008217946E-2
1.001277505E0,-3.667479455E-1,-3.621664643E-1,-1.171333194E-1
1.017943442E0,-5.617665052E-1,-3.634645343E-1,-2.128863782E-1
1.034609380E0,-8.025999665E-1,-5.302306414E-1,-1.828776449E-1
1.051275317E0,-1.046716809E0,-7.008146048E-1,-1.286633909E-1
1.067941255E0,-1.217988014E0,-7.473167181E-1,-6.039925665E-2
1.084607192E0,-1.272584081E0,-7.757219076E-1,-8.307760954E-2
1.101273130E0,-1.322216868E0,-9.130137563E-1,-2.329685539E-1
1.117939067E0,-1.331608891E0,-8.408553600E-1,-2.852738500E-1
1.134605005E0,-1.313206553E0,-7.049379349E-1,-2.337321341E-1
1.151270942E0,-1.323896646E0,-6.361393332E-1,-1.782961637E-1
1.167936880E0,-1.418886185E0,-5.534434915E-1,-1.722638607E-1
1.184602817E0,-1.573664069E0,-4.715875983E-1,-2.011272311E-1
1.201268755E0,-1.753716469E0,-4.886154532E-1,-1.618028134E-1
1.217934692E0,-1.895971537E0,-6.921098232E-1,-8.605557680E-2
1.234600630E0,-1.991190076E0,-7.272345424E-1,-1.094211563E-1
1.251266567E0,-2.048076868E0,-6.499601007E-1,-2.255618125E-1
1.267932505E0,-2.185597897E0,-6.469821334E-1,-2.971093655E-1
1.284598442E0,-2.453462124E0,-9.641736746E-1,-2.365573794E-1
1.301264380E0,-2.805854559E0,-1.386663079E0,-1.097265854E-1
1.317930317E0,-2.933449030E0,-1.650098443E0,-7.788526267E-2
1.334596255E0,-2.437197685E0,-1.449505806E0,-1.100320220E-1
1.351262192E0,-1.487073898E0,-7.830522656E-1,-7.635809947E-3
1.367928130E0,-5.752055645E-1,-2.671769857E-1,2.744309902E-1
1.384594067E0,1.512653977E-1,-5.632173419E-1,6.183478832E-1
1.401260005E0,6.424770355E-1,-1.039997339E0,9.238566160E-1
1.417925942E0,1.125823736E0,-1.170645952E0,1.197294950E0
1.434591880E0,1.481041670E0,-5.997164845E-1,1.332601547E0
1.451257817E0,1.371849537E0,8.682679534E-1,1.331379771E0
1.467923755E0,9.873101711E-1,2.124511242E0,1.415602803E0
1.484589692E0,5.980366468E-1,2.755305529E0,1.622915030E0
1.501255630E0,4.625009894E-1,2.695975304E0,2.023336887E0
1.517921567E0,3.039052188E-1,1.194164276E0,1.112308383E0
1.534587505E0,2.237292230E-1,-1.160643063E-2,-3.011563420E-1
1.551253442E0,2.131918073E-1,-7.318159938E-1,-2.362519503E-1
1.567919380E0,3.110828996E-1,-1.208672285E0,-1.358410567E-1
1.584585317E0,4.127155244E-1,-1.281976104E0,5.177079141E-2
1.601251255E0,5.581013560E-1,-1.218293428E0,5.497782957E-3
1.617917192E0,6.210967898E-1,-4.465421438E-1,-6.864593178E-2
1.634583130E0,4.790706933E-1,1.819613427E-1,-1.002581790E-1
1.651249067E0,3.168097436E-1,4.185950756E-1,-8.323032409E-2
1.667915005E0,3.000109792E-1,4.424951673E-1,-8.437569439E-2
1.684580942E0,4.836521745E-1,4.842630625E-1,-8.758273721E-2
1.701246880E0,7.914516926E-1,4.440986812E-1,-8.689551800E-2
1.717912817E0,1.055421591E0,1.314886510E-1,-1.091920808E-1
1.734578755E0,1.056643367E0,-2.620609999E-1,-1.441640854E-1
1.751244692E0,7.254782915E-1,-5.072468519E-1,-1.471420527E-1
1.767910630E0,3.530798554E-1,-4.185950756E-1,-1.269071549E-1
1.784576567E0,2.116646469E-1,-1.829539984E-1,-1.265253723E-1
1.801242505E0,1.978438348E-1,4.596757516E-2,-1.015562713E-1
1.817908442E0,1.789070219E-1,1.563813835E-1,-2.191477455E-2
1.834574380E0,2.024253160E-1,1.326340139E-1,9.430225194E-2
1.851240317E0,2.270889878E-1,2.993237413E-2,1.728747338E-1
1.867906255E0,2.594648004E-1,-1.132390574E-1,1.624136716E-1
1.884572192E0,2.689332068E-1,-2.071595192E-1,9.094249457E-2
1.901238130E0,2.942077518E-1,-1.922696829E-1,3.817904799E-4
1.917904067E0,2.667951882E-1,-1.046105921E-1,-1.313359290E-2
1.934570005E0,1.957058012E-1,-2.253327519E-1,6.475166976E-2
1.951235942E0,2.288452238E-1,-3.941605091E-1,1.649334878E-1
1.967901880E0,2.636645138E-1,-4.473820925E-1,1.782961637E-1
1.984567817E0,2.746600807E-1,-4.445568323E-1,1.547778696E-1
2.001233755E0,2.609919906E-1,-4.644863009E-1,1.093447953E-1
2.017899692E0,2.542724609E-1,-3.854556680E-1,6.444623321E-2
2.034565630E0,2.625191510E-1,-2.310595959E-1,3.833176568E-2
2.051231567E0,2.941313982E-1,-4.192059487E-2,3.428478539E-2
2.067897505E0,2.273944169E-1,7.857248187E-2,5.238165334E-2
2.084563442E0,1.576794684E-1,1.506545246E-1,9.437860548E-2
2.101229380E0,1.396589577E-1,1.426369250E-1,7.696896046E-2
2.117895317E0,1.745546162E-1,5.871937796E-2,1.458439697E-2
2.134561255E0,1.893680841E-1,-3.672824427E-2,-2.802342176E-2
2.151227192E0,1.874591261E-1,-9.888373315E-2,-4.436405376E-2
2.167893130E0,2.105956376E-1,-1.443931609E-1,-2.809977904E-2
2.184559067E0,2.074649483E-1,-8.712458611E-2,-1.382081583E-2
2.201225005E0,1.275180280E-1,-3.863719851E-2,-6.032289471E-3
2.217890942E0,2.474002354E-2,-1.135444939E-1,1.145371422E-2
2.234556880E0,2.214384731E-3,-1.820377111E-1,-1.069013379E-3
2.251222817E0,4.871646687E-2,-2.211330533E-1,-3.413207084E-2
2.267888755E0,7.903063297E-2,-1.827249229E-1,-5.703949928E-2
2.284554692E0,8.544471115E-2,-1.724929363E-1,-2.588539571E-2
2.301220630E0,1.088102907E-1,-1.299614757E-1,-4.199695308E-3
2.317886567E0,1.320231557E-1,-1.434768587E-1,1.343902480E-2
2.334552505E0,1.018617004E-1,-1.576031148E-1,2.901607659E-3
2.351218442E0,7.452550530E-2,-1.916588247E-1,-3.176496923E-2
2.367884380E0,1.231656075E-1,-2.211330533E-1,-7.467821985E-2
2.384550317E0,2.362519503E-1,-2.260199636E-1,-1.120936871E-1
2.401216255E0,3.334558010E-1,-2.195295244E-1,-1.237001196E-1
2.417882192E0,4.615083337E-1,-2.428951114E-1,-1.295033395E-1
2.434548130E0,6.086503863E-1,-3.415497839E-1,-1.325576603E-1
2.451214067E0,6.958513260E-1,-5.748237371E-1,-1.477529258E-1
2.467880005E0,6.669116020E-1,-5.342012644E-1,-2.131154537E-1
2.484545942E0,5.485565662E-1,-4.105774760E-1,-2.781725526E-1
2.501211880E0,4.639517963E-1,-3.213912249E-1,-3.005454838E-1
2.517877817E0,4.240165055E-1,-2.745837271E-1,-3.426187932E-1
2.534543755E0,3.889681399E-1,-2.720639110E-1,-4.146244824E-1
2.551209692E0,3.574322462E-1,-2.722166181E-1,-4.999928176E-1
2.567875630E0,3.268890083E-1,-2.691622972E-1,-6.008618474E-1
2.584541567E0,2.770271897E-1,-3.021489978E-1,-6.907353401E-1
2.601207505E0,1.891390085E-1,-2.482401729E-1,-6.129264235E-1
2.617873442E0,4.382954910E-2,-2.668715417E-1,-3.718639314E-1
2.634539380E0,-5.528326333E-2,-2.634354234E-1,-1.327867359E-1
2.651205317E0,-1.157588735E-1,-1.779907197E-1,-1.099556591E-2
2.667871255E0,-1.414151937E-1,-8.834631741E-2,-1.794415340E-2
2.684537192E0,-1.648571342E-1,-1.091920771E-2,-7.139482349E-2
2.701203130E0,-1.609628648E-1,3.627009690E-2,-1.220202371E-1
2.717869067E0,-1.228601784E-1,2.848157100E-2,-1.427132785E-1
2.734535005E0,-5.322159454E-2,-5.994110554E-2,-1.228601784E-1
2.751200942E0,2.924515121E-2,-1.775325835E-1,-6.948586553E-2
2.767866880E0,5.016727000E-2,-2.293797284E-1,-2.871064469E-2
2.784532817E0,2.344193682E-2,-2.183841616E-1,-2.809977904E-2
2.801198755E0,-5.650499370E-3,-2.412915826E-1,-5.558869615E-2
2.817864692E0,2.061668597E-2,-3.514763117E-1,-9.674570709E-2
2.834530630E0,1.084285006E-1,-3.835467100E-1,-1.012508348E-1
2.851196567E0,1.934914142E-1,-3.933969140E-1,-6.078104675E-2
2.867862505E0,2.035706937E-1,-3.465130329E-1,9.162971983E-4
2.884528442E0,1.837939471E-1,-2.742019296E-1,1.939495653E-2
2.901194380E0,1.044578776E-1,-2.084576041E-1,2.603811212E-2
2.917860317E0,3.588830587E-3,-2.190713882E-1,2.076940238E-2
2.934526255E0,-3.741546720E-2,-2.480110973E-1,1.519526169E-2
2.951192192E0,-1.007926930E-2,-2.903134823E-1,2.420551702E-2
2.967858130E0,6.895136088E-2,-3.473529816E-1,5.031998456E-2
2.984524067E0,1.782197952E-1,-4.092794061E-1,4.993819445E-2
3.001190005E0,2.619082630E-1,-4.074468017E-1,-6.032289471E-3
3.017855942E0,2.575558722E-1,-3.559050858E-1,-4.375318810E-2
3.034521880E0,2.393826395E-1,-3.778198659E-1,-6.108647957E-2
3.051187817E0,2.616028488E-1,-6.270527244E-1,-1.698204130E-1
3.067853755E0,4.249328077E-1,-8.915571570E-1,-2.534325123E-1
3.084519692E0,5.238928795E-1,-8.010727763E-1,-2.720639110E-1
3.101185630E0,4.379136860E-1,-6.459131241E-1,-3.349829614E-1
3.117851567E0,4.392881393E-1,-4.828122556E-1,-2.403752953E-1
3.134517505E0,4.405862093E-1,-4.446332157E-1,-1.488219351E-1
3.151183442E0,3.924042583E-1,-5.122864842E-1,-1.211039424E-1
3.167849380E0,3.714821339E-1,-6.679806113E-1,-1.483637840E-1
3.184515317E0,3.579667509E-1,-9.046907425E-1,-2.099847645E-1
3.201181255E0,3.510181606E-1,-1.241888046E0,-2.570977211E-1
3.217847192E0,4.729620516E-1,-1.170569658E0,-1.976147592E-1
3.234513130E0,3.816377819E-1,-1.198287606E0,-2.940550447E-1
3.251179067E0,3.163515925E-1,-1.015180945E0,-2.229656428E-1
3.267845005E0,2.454149276E-1,-6.843212843E-1,-9.773836285E-2
3.284510942E0,7.780890167E-2,-4.057669342E-1,-5.963567272E-2
3.301176880E0,-8.361211419E-2,-1.742491722E-1,-3.962985426E-2
3.317842817E0,-1.863137633E-1,-6.872228696E-4,-1.527161920E-3
3.334508755E0,-2.390772104E-1,-1.786779426E-2,7.704532146E-2
3.351174692E0,-1.174387559E-1,1.708130687E-1,1.124754772E-1
3.367840630E0,-1.876882017E-1,1.322522312E-1,-3.924806044E-2
3.384506567E0,-1.306487024E-1,1.876118481E-1,-6.627883017E-2
3.401172505E0,-9.712749720E-2,1.837175786E-1,-6.933315098E-2
3.417838442E0,-9.094249457E-2,8.353576064E-2,-5.413788930E-2
3.434504380E0,-6.582067907E-2,3.283398226E-3,1.634063199E-2
3.451170317E0,-4.955640435E-2,-6.872228812E-3,6.795870513E-2
3.467836255E0,-4.894553870E-2,-2.199113183E-2,1.053741761E-2
3.484502192E0,-5.719221383E-2,-1.611155830E-2,-8.277218044E-2
3.501168130E0,-6.062832847E-2,-3.023780696E-2,-1.240055487E-1
3.517834067E0,-4.902189970E-2,-2.801578641E-1,-9.193515033E-2
3.534500005E0,7.422006875E-2,-3.015381396E-1,-5.390881747E-2
3.551165942E0,4.444041103E-2,-2.809978127E-1,-1.730274558E-1
3.567831880E0,7.360920310E-2,-3.700313270E-1,-1.095738709E-1
3.584497817E0,7.009673119E-2,-3.995055556E-1,-1.015562713E-1
3.601163755E0,8.933897130E-3,-2.551124096E-1,-6.505709887E-2
3.617829692E0,-2.115119249E-2,-8.147408813E-2,-3.321577236E-2
3.634495630E0,-3.283398226E-2,6.238456443E-2,-1.214093715E-2
3.651161567E0,-4.459312931E-2,1.479056329E-1,-1.198822167E-2
3.667827505E0,-6.918043643E-2,-8.834631741E-2,-4.428769462E-3
3.684493442E0,1.672242396E-2,-5.276344717E-2,-1.641699113E-2
3.701159380E0,-1.527161989E-2,1.184314117E-1,-1.078176349E-1
3.717825317E0,-9.621120058E-3,2.612974048E-1,-3.627009690E-2
3.734491255E0,-4.100430012E-2,4.969384968E-1,-3.894263133E-2
3.751157192E0,-1.068249792E-1,8.203150630E-1,-1.458439697E-2
3.767823130E0,-1.668424457E-1,1.033888698E0,-1.015562657E-2
3.784489067E0,-2.244164497E-1,1.106276155E0,-2.970330045E-2
3.801155005E0,-2.509890795E-1,1.072296739E0,-7.849612087E-2
3.817820942E0,-2.276998460E-1,9.644791484E-1,-1.283579618E-1
3.834486880E0,-1.524107605E-1,7.005091906E-1,-1.276707351E-1
3.851152817E0,-4.993819445E-2,2.096793354E-1,-8.048143238E-2
3.867818755E0,8.376483619E-2,-1.194240674E-1,-4.917461425E-2
3.884484692E0,1.617264450E-1,-3.288743198E-1,-2.321286127E-2
3.901150630E0,1.858556122E-1,-3.517817557E-1,-1.977674663E-2
3.917816567E0,1.365282834E-1,-2.275471240E-1,-9.773836471E-3
3.934482505E0,3.794997558E-2,-6.971494108E-2,1.504254527E-2
3.951148442E0,-3.642281145E-2,5.001455545E-2,2.199113183E-2
3.967814380E0,-5.505418777E-2,7.788526267E-2,3.191768378E-2
3.984480317E0,-4.772381112E-2,-1.458439697E-2,5.986474827E-2
4.001146255E0,-1.427896414E-2,-3.042106628E-1,7.185296714E-2
4.017812192E0,9.239329956E-3,-6.013200283E-1,4.382954910E-2
4.034478130E0,-4.314232618E-2,-5.437459946E-1,3.061959706E-2
4.051144067E0,-1.426369250E-1,-1.631008983E-1,5.513054505E-2
4.067810005E0,-1.981492639E-1,8.964440972E-2,9.628756344E-2
4.084475942E0,-2.229656428E-1,2.366337478E-1,1.595120728E-1
4.101141880E0,-1.892153621E-1,1.905134469E-1,2.108247131E-1
4.117807817E0,-9.231694043E-2,6.093376130E-2,1.605047137E-1
4.134473755E0,5.039634649E-3,-4.810560122E-2,8.452841640E-2
4.151139692E0,6.536252797E-2,-1.647044122E-1,6.368265301E-2
4.167805630E0,1.031597927E-1,-1.755472720E-1,7.895427197E-2
4.184471567E0,1.294269711E-1,-1.613446623E-1,9.491311759E-2
4.201137505E0,1.201876476E-1,-1.905134469E-1,1.073594838E-1
4.217803442E0,1.019380614E-1,-1.882990748E-1,8.506292105E-2
4.234469380E0,5.978839099E-2,-1.118646115E-1,4.230238497E-2
4.251135317E0,-1.901316643E-2,-6.849320978E-2,1.947131567E-2
4.267801255E0,-9.498947114E-2,-1.311832070E-1,3.596466407E-2
4.284467192E0,-1.436295807E-1,-2.395353466E-1,8.659008145E-2
4.301133130E0,-1.737910360E-1,-3.703367710E-1,1.551596522E-1
4.317799067E0,-1.478292793E-1,-5.191587210E-1,1.536324918E-1
4.334465005E0,-1.122464016E-1,-5.566505194E-1,1.019380614E-1
4.351130942E0,-1.052978188E-1,-5.424479246E-1,6.818778068E-2
4.367796880E0,-1.162170246E-1,-5.343539715E-1,4.046979174E-2
4.384462817E0,-1.427132785E-1,-5.577958822E-1,7.047852129E-2
4.401128755E0,-1.599702090E-1,-6.213258505E-1,1.558468789E-1
4.417794692E0,-1.671478748E-1,-7.292962074E-1,2.651153207E-1
4.434460630E0,-1.418733448E-1,-8.504765034E-1,2.870301008E-1
4.451126567E0,-9.613484144E-2,-8.067996502E-1,1.827249229E-1
4.467792505E0,-1.672242284E-1,-6.155989766E-1,1.380554438E-1
4.484458442E0,-2.964221239E-1,-4.885390997E-1,2.012799382E-1
4.501124380E0,-3.698022664E-1,-5.436696410E-1,3.210094273E-1
4.517790317E0,-3.915643096E-1,-7.906880975E-1,4.426479042E-1
4.534456255E0,-3.691914082E-1,-1.071533203E0,4.611265361E-1
4.551122192E0,-3.435350657E-1,-1.189735532E0,3.970620930E-1
4.567788130E0,-4.395172000E-1,-1.126358271E0,3.657552898E-1
4.584454067E0,-5.705476999E-1,-9.513455629E-1,4.022544622E-1
4.601120005E0,-7.040216327E-1,-8.522327542E-1,4.357756674E-1
4.617785942E0,-7.934370041E-1,-9.042325616E-1,4.942659736E-1
4.634451880E0,-8.708640933E-1,-1.081765175E0,5.392408967E-1
4.651117817E0,-9.318742156E-1,-1.240513682E0,5.354229808E-1
4.667783755E0,-9.088140726E-1,-1.331456184E0,4.567741454E-1
4.684449692E0,-8.759800792E-1,-1.394069791E0,3.575849831E-1
4.701115630E0,-9.565379024E-1,-1.473711252E0,3.219257295E-1
4.717781567E0,-1.126129270E0,-1.532125235E0,3.517817557E-1
4.734447505E0,-1.296102405E0,-1.489364743E0,3.987419903E-1
4.751113442E0,-1.418886185E0,-1.329928994E0,4.279871285E-1
4.767779380E0,-1.455003500E0,-1.194698811E0,4.206567705E-1
4.784445317E0,-1.376431108E0,-1.194698811E0,4.014145136E-1
4.801111255E0,-1.294346094E0,-1.236848474E0,3.594175577E-1
4.817777192E0,-1.297629476E0,-1.185612202E0,3.368919194E-1
4.834443130E0,-1.376049280E0,-1.026787281E0,3.650680780E-1
4.851109067E0,-1.403079987E0,-8.431460857E-1,4.032471180E-1
4.867775005E0,-1.315497279E0,-7.412080765E-1,4.424188137E-1
4.884440942E0,-1.092913389E0,-7.342594862E-1,4.427242577E-1
4.901106880E0,-8.160389662E-1,-7.765618563E-1,4.166861475E-1
4.917772817E0,-6.364447474E-1,-8.240565658E-1,4.285979867E-1
4.934438755E0,-5.813142061E-1,-7.189878225E-1,4.822013974E-1
4.951104692E0,-5.142717957E-1,-4.306596816E-1,4.837285578E-1
4.967770630E0,-3.753000498E-1,-1.640935540E-1,4.508182108E-1
4.984436567E0,-1.350011230E-1,-5.283980444E-2,4.138608873E-1
5.001102505E0,1.646280587E-1,-5.169443041E-2,3.801106215E-1
5.017768442E0,4.044688344E-1,-1.580612548E-2,3.162752390E-1
5.034434380E0,5.384773016E-1,1.301141977E-1,2.416733801E-1
5.051100317E0,5.961276889E-1,3.140608668E-1,1.705839932E-1
5.067766255E0,6.833286285E-1,4.832704067E-1,7.834340632E-2
5.084432192E0,8.295543790E-1,5.978075266E-1,2.977965865E-3
5.101098130E0,9.363793731E-1,6.136900187E-1,-5.329795182E-2
5.117764067E0,9.433279634E-1,5.123628378E-1,-1.211803034E-1
5.134430005E0,8.969022036E-1,2.273180634E-1,-1.824958473E-1
5.151095942E0,8.235220909E-1,3.041343093E-1,-3.068831861E-1
5.167761880E0,7.416661978E-1,3.811032772E-1,-3.709476292E-1
5.184427817E0,7.225003242E-1,4.879282415E-1,-4.080576599E-1
5.201093755E0,7.559451461E-1,5.721512437E-1,-3.620901108E-1
5.217759692E0,8.952987194E-1,5.677224398E-1,-2.881754637E-1
5.234425630E0,1.117042661E0,4.230238497E-1,-2.509890795E-1
5.251091567E0,1.371238708E0,1.296560466E-1,-2.282343507E-1
5.267757505E0,1.598785877E0,-3.921751976E-1,-1.600465775E-1
5.284423442E0,1.749058604E0,-1.154610753E0,-9.850194678E-3
5.301089380E0,1.677434683E0,-2.020129919E0,2.005927265E-1
5.317755317E0,1.383761406E0,-2.938106775E0,4.579195082E-1
5.334421255E0,1.172173142E0,-4.093710423E0,7.533490062E-1
5.351087192E0,1.329547167E0,-5.007029533E0,8.861356974E-1
5.367753130E0,1.358257890E0,-4.598513603E0,7.929788232E-1
5.384419067E0,7.730493546E-1,-3.276984215E0,6.223948598E-1
5.401085005E0,-1.599702090E-1,-2.287154198E0,7.376192212E-1
5.417750942E0,-8.710931540E-1,-2.041586399E0,1.157665133E0
5.434416880E0,-1.184466839E0,-2.047084332E0,1.529834509E0
5.451082817E0,-1.326416492E0,-2.166966438E0,1.611537695E0
5.467748755E0,-1.273118615E0,-2.419329882E0,1.626121998E0
5.484414692E0,-1.030987024E0,-2.590601206E0,1.765017390E0
5.501080630E0,-7.281508446E-1,-2.583805323E0,1.897269607E0
5.517746567E0,-5.507709384E-1,-2.229961872E0,1.854203701E0
5.534412505E0,-5.327504277E-1,-1.604741812E0,1.593211651E0
5.551078442E0,-5.962040424E-1,-9.928843379E-1,1.273194909E0
5.567744380E0,-6.489674449E-1,-6.394227147E-1,1.025260210E0
5.584410317E0,-6.789761782E-1,-5.590176582E-1,8.839213252E-1
5.601076255E0,-6.616429090E-1,-6.065887213E-1,8.171079755E-1
5.617742192E0,-6.076577306E-1,-5.815432668E-1,7.498365045E-1
5.634408130E0,-5.541307330E-1,-3.581194878E-1,6.046797633E-1
5.651074067E0,-5.797870159E-1,-1.840230078E-2,2.671006322E-1
5.667740005E0,-7.371610999E-1,4.308887422E-1,-2.869537175E-1
5.684405942E0,-8.178715706E-1,9.171370864E-1,-9.260709882E-1
5.701071880E0,-6.071996093E-1,1.233565092E0,-1.558468819E0
5.717737817E0,-1.128572673E-1,1.334205031E0,-2.298531532E0
5.734403755E0,4.201222658E-1,1.244102478E0,-3.206276417E0
5.751069692E0,8.343649507E-1,1.036561131E0,-4.061410904E0
5.767735630E0,1.125365615E0,9.239329696E-1,-4.540863514E0
5.784401567E0,1.274569392E0,1.098029494E0,-4.584158421E0
5.801067505E0,1.377041936E0,1.725005746E0,-4.497339249E0
5.817733442E0,1.781281710E0,2.530125618E0,-4.294455528E0
5.834399380E0,2.488357782E0,2.704832792E0,-3.813476086E0
5.851065317E0,2.904967546E0,1.542204499E0,-2.795469999E0
5.867731255E0,2.569144487E0,-4.823541045E-1,-1.736154079E0
5.884397192E0,1.427743673E0,-1.760206819E0,-1.503643632E0
5.901063130E0,-1.061377525E-1,-6.304888129E-1,-1.662086725E0
5.917729067E0,-1.356425285E0,2.104887247E0,-1.537852049E0
5.934395005E0,-1.583743334E0,4.337216377E0,-7.781654000E-1
5.951060942E0,-6.452259421E-1,4.925937176E0,3.495673835E-1
5.967726880E0,7.608320713E-1,4.039649010E0,1.313588381E0
5.984392817E0,1.883906960E0,2.391382933E0,1.746233344E0
6.001058755E0,2.467511892E0,5.844448805E-1,1.580765367E0
6.017724692E0,2.388175964E0,-6.258309484E-1,1.191262722E0
6.034390630E0,1.739055634E0,-6.829468012E-1,9.667698741E-1
6.051056567E0,9.592867494E-1,2.321286127E-2,9.075160027E-1
6.067722505E0,3.486510813E-1,7.443387508E-1,9.121738076E-1
6.084388442E0,8.307760954E-2,9.375247359E-1,9.253074527E-1
6.101054380E0,2.405280061E-2,4.688387215E-1,8.256601095E-1
6.117720317E0,-9.040798992E-2,-5.131264329E-1,5.019017458E-1
6.134386255E0,-2.734383345E-1,-1.548771262E0,2.189186662E-1
6.151052192E0,-3.989710510E-1,-2.105421782E0,8.674279600E-2
6.167718130E0,-7.388409376E-1,-2.167959213E0,9.796743840E-2
6.184384067E0,-1.631543517E0,-1.816253662E0,6.803506613E-1
6.201050005E0,-2.814101219E0,-1.717522740E0,1.988670230E0
6.217715942E0,-3.706422091E0,-2.332510710E0,3.057225466E0
6.234381880E0,-4.103407860E0,-2.226449490E0,2.832808971E0
6.251047817E0,-4.285903454E0,-2.970330119E-1,1.441030025E0
6.267713755E0,-3.855473042E0,1.750356674E0,9.308052063E-2
6.284379692E0,-2.361450434E0,1.915442824E0,-4.671588540E-1
6.301045630E0,-7.511346340E-1,6.575959325E-1,-5.054906011E-1
6.317711567E0,2.213621289E-1,-7.535017133E-1,-4.354702234E-1
6.334377505E0,4.641045034E-1,-1.432554245E0,-2.667951882E-1
6.351043442E0,1.004872546E-1,-1.281823397E0,8.628465235E-3
6.367709380E0,-5.844448805E-1,-6.134609580E-1,2.404516488E-1
6.384375317E0,-1.219744205E0,2.205221802E-1,2.617555559E-1
6.401041255E0,-1.609857798E0,8.782708645E-1,8.429934084E-2
6.417707192E0,-1.579620004E0,1.142011762E0,-2.358701676E-1
6.434373130E0,-1.113453746E0,1.012126565E0,-5.998691916E-1
6.451039067E0,-4.037052691E-1,8.449786901E-1,-9.915099144E-1
6.467705005E0,2.906189263E-1,9.462295175E-1,-1.376812816E0
6.484370942E0,8.771254420E-1,1.266704440E0,-1.775631189E0
6.501036880E0,1.335274100E0,1.544647932E0,-2.154901981E0
6.517702817E0,1.504178166E0,1.860388637E0,-2.464534044E0
6.534368755E0,1.472031355E0,2.371606112E0,-2.742248297E0
6.551034692E0,1.505247116E0,2.593121052E0,-2.711323261E0
6.567700630E0,1.812206745E0,2.308228970E0,-2.348851442E0
6.584366567E0,2.132299900E0,1.775478482E0,-1.822133303E0
6.601032505E0,2.185292482E0,1.585194111E0,-1.657276154E0
6.617698442E0,1.998673201E0,1.386663079E0,-1.519984245E0
6.634364380E0,1.746615171E0,7.996983528E-1,-1.071304083E0
6.651030317E0,1.425834775E0,1.873827726E-1,-6.462185979E-1
6.667696255E0,1.023427606E0,8.994983882E-2,-3.155116439E-1
6.684362192E0,6.653844714E-1,6.645445228E-1,1.443168055E-2
6.701028130E0,5.916988850E-1,1.431561589E0,4.885390997E-1
6.717694067E0,9.285908341E-1,1.544266105E0,1.129183531E0
6.734360005E0,1.483790517E0,9.479094148E-1,1.605276227E0
6.751025942E0,1.921551466E0,1.908952370E-2,1.609017849E0
6.767691880E0,2.097327948E0,-8.895718455E-1,1.333517790E0
6.784357817E0,1.997909665E0,-1.482874274E0,1.073594809E0
6.801023755E0,1.554269075E0,-1.596724153E0,9.091958404E-1
6.817689692E0,7.878628373E-1,-1.094822407E0,8.553634286E-1
6.834355630E0,-3.214675933E-2,-1.772271395E-1,8.237511516E-1
6.851021567E0,-5.878809690E-1,4.025598764E-1,6.724094152E-1
6.867687505E0,-7.715222239E-1,-5.734493211E-2,4.691441655E-1
6.884353442E0,-6.054433584E-1,-1.179045439E0,2.573267817E-1
6.901019380E0,-5.931497216E-1,-2.194989920E0,1.195004210E-1
6.917685317E0,-1.101083755E0,-2.708803415E0,5.706240535E-1
6.934351255E0,-1.902691126E0,-2.408105373E0,1.650862098E0
6.951017192E0,-2.641837358E0,-1.542586327E0,2.579834700E0
6.967683130E0,-3.077689409E0,-9.104939699E-1,2.495917082E0
6.984349067E0,-2.975980520E0,-1.009912252E0,1.561675787E0
7.001015005E0,-2.162766695E0,-1.571526051E0,7.967967391E-1
7.017680942E0,-1.099174857E0,-2.010126829E0,4.448622763E-1
7.034346880E0,-3.574322462E-1,-2.219424486E0,4.024835229E-1
7.051012817E0,-1.779907197E-1,-2.131459951E0,5.923861265E-1
7.067678755E0,-4.157698452E-1,-1.802662015E0,9.289726019E-1
7.084344692E0,-7.243329287E-1,-1.404149055E0,1.381547093E0
7.101010630E0,-9.722676277E-1,-9.960913658E-1,1.787619472E0
7.117676567E0,-1.160108566E0,-5.773435831E-1,1.695378780E0
7.134342505E0,-1.410486817E0,-9.063705802E-2,1.097800374E0
7.151008442E0,-1.503490925E0,3.614028692E-1,4.375318885E-1
7.167674380E0,-9.693660736E-1,4.530325830E-1,-6.200277433E-2
7.184340317E0,1.663842946E-1,3.349829614E-1,-4.561632872E-1
7.201006255E0,1.451643825E0,1.186604798E-1,-9.207259417E-1
7.217672192E0,2.490113974E0,-3.316232264E-1,-1.546404243E0
7.234338130E0,2.977202177E0,-6.076577306E-1,-2.078620195E0
7.251004067E0,2.766988277E0,1.389717311E-1,-2.394895315E0
7.267670005E0,1.979736447E0,1.769904375E0,-2.660163403E0
7.284335942E0,1.282052398E0,3.336237907E0,-2.789208651E0
7.301001880E0,1.317329884E0,3.705353022E0,-2.262185097E0
7.317667817E0,1.975842118E0,2.549825907E0,-1.415068269E0
7.334333755E0,2.845408201E0,9.293544292E-1,-1.326645613E0
7.350999692E0,3.152902126E0,4.674642682E-1,-2.097709656E0
7.367665630E0,2.573420525E0,1.364137411E0,-2.741942883E0
7.384331567E0,1.814268351E0,2.467664719E0,-2.781725407E0
7.400997505E0,1.598251343E0,2.730870962E0,-2.433074474E0
7.417663442E0,1.945909739E0,2.183994293E0,-1.985921383E0
7.434329380E0,2.447506189E0,1.230434418E0,-1.479132652E0
7.450995317E0,2.628551245E0,3.637699783E-1,-9.169080257E-1
7.467661255E0,2.285550594E0,-1.762344837E-1,-2.946659029E-1
7.484327192E0,1.520060658E0,-2.386190593E-1,3.173442483E-1
7.500993130E0,6.911171675E-1,9.926552325E-2,8.874338269E-1
7.517659067E0,1.276707351E-1,3.943895698E-1,1.342146277E0
7.534325005E0,-1.183550507E-1,3.497200906E-1,1.607414365E0
7.550990942E0,-2.439641207E-1,-2.001345754E-1,1.648036838E0
7.567656880E0,-4.169915617E-1,-1.133383274E0,1.598938584E0
7.584322817E0,-7.031053901E-1,-1.746309638E0,1.626503825E0
7.600988755E0,-1.254716277E0,-1.458210588E0,1.646204233E0
7.617654692E0,-2.094960690E0,-6.992111206E-1,1.888793945E0
7.634320630E0,-3.054247618E0,-5.213730931E-1,3.052949429E0
7.650986567E0,-3.548895359E0,-1.890015602E0,4.533456802E0
7.667652505E0,-3.249495268E0,-3.528965950E0,4.525591850E0
7.684318442E0,-2.960250616E0,-2.923446178E0,3.055392981E0
7.700984380E0,-2.827005863E0,-7.867938280E-1,1.654374480E0
7.717650317E0,-2.151389360E0,-2.451094985E-2,1.063668251E0
7.734316255E0,-1.351614714E0,-9.229403138E-1,8.867465854E-1
7.750982192E0,-9.518800378E-1,-1.926285744E0,8.705586791E-1
7.767648130E0,-1.111621141E0,-2.137110472E0,1.129718065E0
7.784314067E0,-1.542739034E0,-1.888641238E0,1.432706952E0
7.800980005E0,-1.981798053E0,-1.513417482E0,1.571296930E0
7.817645942E0,-2.220951557E0,-1.148578525E0,1.535332322E0
7.834311880E0,-2.120922565E0,-8.171079755E-1,1.187979221E0
7.850977817E0,-1.664759278E0,-5.433642268E-1,4.297433794E-1
7.867643755E0,-1.139186502E0,-3.457494676E-1,-4.715875983E-1
7.884309692E0,-7.942769527E-1,-5.314523727E-2,-1.171944022E0
7.900975630E0,-6.310232878E-1,3.220784664E-1,-1.582521558E0
7.917641567E0,-5.501601100E-1,7.585413456E-1,-1.953621864E0
7.934307505E0,-5.288561583E-1,1.398651242E0,-2.475758553E0
7.950973442E0,-4.543306828E-1,2.129627228E0,-2.888245106E0
7.967639380E0,-2.510654330E-1,2.652222157E0,-3.008814573E0
7.984305317E0,3.228420317E-1,2.588845015E0,-2.794171810E0
8.000971255E0,1.180801630E0,2.070831537E0,-2.204687357E0
8.017637192E0,2.236757755E0,1.222569466E0,-1.409341455E0
8.034303130E0,2.654818296E0,5.025126338E-1,-1.670944214E0
8.050969067E0,1.843742609E0,7.555633783E-1,-2.806847334E0
8.067635005E0,6.175842881E-1,2.047924280E0,-3.350517035E0
8.084300942E0,2.446513474E-1,2.905196428E0,-3.242241144E0
8.100966880E0,1.152854562E0,2.485761404E0,-2.775769472E0
8.117632817E0,2.815552235E0,1.258992314E0,-2.082667112E0
8.134298755E0,4.030562401E0,-7.719803602E-2,-1.352530956E0
8.150964692E0,3.957411051E0,-9.283617735E-1,-5.422952175E-1
8.167630630E0,2.789972067E0,-8.078686595E-1,4.992292523E-1
8.184296567E0,1.260595798E0,-1.797469556E-1,1.516853571E0
8.200962505E0,3.207040019E-3,4.167625010E-1,2.018373489E0
8.217628442E0,-7.851903439E-1,5.274053812E-1,2.098549604E0
8.234294380E0,-1.079321742E0,-1.699731201E-1,2.246226072E0
8.250960317E0,-9.762382507E-1,-1.094898701E0,2.639852047E0
8.267626255E0,-9.023236632E-1,-1.513417482E0,2.895422697E0
8.284292192E0,-1.313511968E0,-1.380859852E0,2.901531458E0
8.300958130E0,-2.038761139E0,-1.449658513E0,3.518352032E0
8.317624067E0,-2.499963999E0,-2.417268276E0,5.205331326E0
8.334290005E0,-2.548527956E0,-2.863046885E0,5.612473011E0
8.350955942E0,-2.679176569E0,-1.583590627E0,3.883267403E0
8.367621880E0,-2.627405882E0,-2.741255760E-1,2.114508390E0
8.384287817E0,-1.824271321E0,-5.455785990E-1,1.608101487E0
8.400953755E0,-1.012279272E0,-1.351614714E0,1.949269533E0
8.417619692E0,-9.466876984E-1,-1.492113590E0,2.432769060E0
8.434285630E0,-1.278921723E0,-1.040608168E0,2.756680012E0
8.450951567E0,-1.641393661E0,-4.864774346E-1,2.393673658E0
8.467617505E0,-1.754403591E0,3.092502989E-2,1.227303743E0
8.484283442E0,-1.485317707E0,4.363865256E-1,-1.748600416E-2
8.500949380E0,-9.341649413E-1,5.436696410E-1,-7.664825916E-1
8.517615317E0,-3.892735839E-1,5.969675779E-1,-1.207908750E0
8.534281255E0,9.338594973E-2,9.559270144E-1,-1.759825110E0
8.550947192E0,8.120683432E-1,1.428583622E0,-2.630078316E0
8.567613130E0,1.747913241E0,1.578092813E0,-3.650298834E0
8.584279067E0,2.578001976E0,1.479667187E0,-4.315301418E0
8.600945005E0,3.104567528E0,1.287626624E0,-4.498178959E0
8.617610942E0,3.302869558E0,1.316337228E0,-4.406931400E0
8.634276880E0,3.431151152E0,1.048625708E0,-3.696419239E0
8.650942817E0,3.360825300E0,2.767980993E-1,-2.998888016E0
8.667608755E0,3.098917007E0,7.437278330E-2,-3.535914421E0
8.684274692E0,3.000033379E0,3.558287323E-1,-4.308811188E0
8.700940630E0,2.741866589E0,4.412734509E-1,-4.421897411E0
8.717606567E0,2.034637928E0,1.863901168E-1,-3.673511744E0
8.734272505E0,1.064355493E0,2.709185183E-1,-2.703458548E0
8.750938442E0,1.715002805E-1,3.174969554E-1,-2.059836149E0
8.767604380E0,-1.288390160E0,-7.315105945E-2,-9.940297008E-1
8.784270317E0,-2.737285137E0,-1.094211563E-1,5.947532058E-1
8.800936255E0,-2.892062902E0,-3.309359848E-1,2.419024467E0
8.817602192E0,-1.655901670E0,-8.925498128E-1,4.133645535E0
8.834268130E0,-1.073976636E0,-8.670461774E-1,5.378817081E0
8.850934067E0,-3.017290115E0,-2.197586000E-1,7.013185978E0
8.867600005E0,-6.155837059E0,5.305360556E-1,7.992554665E0
8.884265942E0,-5.901946545E0,1.052825451E0,7.324345112E0
8.900931880E0,-1.163697392E-1,4.997637570E-1,4.596070290E0
8.917597817E0,5.141190529E0,6.265181899E-1,-2.651153207E-1
8.934263755E0,5.531456947E0,2.782412767E0,-4.280558586E0
8.950929692E0,3.586768866E0,4.247266293E0,-5.758774757E0
8.967595630E0,3.155421972E0,4.096459389E0,-6.052219391E0
8.984261567E0,4.705873013E0,3.379762173E0,-5.856666088E0
9.000927505E0,6.934002399E0,2.151160240E0,-5.750757217E0
9.017593442E0,8.088613510E0,1.009454012E0,-4.870882988E0
9.034259380E0,6.002815247E0,8.466585875E-1,-2.341673851E0
9.050925317E0,1.598938584E0,1.959272385E0,-3.636936247E-1
9.067591255E0,-1.216689944E0,2.629467487E0,4.399753511E-1
9.084257192E0,-1.970038861E-1,7.115047574E-1,1.225929260E0
9.100923130E0,1.598251343E0,-1.039157391E0,2.338161230E0
9.117589067E0,1.872758746E0,-1.069624186E0,3.200244188E0
9.134255005E0,6.857720613E-1,-6.536252797E-2,3.749258995E0
9.150920942E0,-6.674461365E-1,6.680569649E-1,3.987190723E0
9.167586880E0,-1.716759086E0,1.098029494E0,4.165945053E0
9.184252817E0,-2.619082689E0,8.717040420E-1,4.597979069E0
9.200918755E0,-2.305327415E0,2.656498253E-1,4.879740715E0
9.217584692E0,8.862884641E-1,3.386481702E-1,4.219701290E0
9.234250630E0,5.244274139E0,1.394527912E0,1.451109290E0
9.250916567E0,6.508993149E0,2.902294874E0,-1.645516992E0
9.267582505E0,4.553386211E0,4.963505268E0,-3.197037220E0
9.284248442E0,4.116465092E0,6.115978241E0,-3.720548391E0
9.300914380E0,6.792281628E0,5.487627506E0,-4.047742844E0
9.317580317E0,9.430377960E0,4.358214855E0,-4.676398754E0
9.334246255E0,9.380668640E0,3.993452072E0,-5.670581341E0
9.350912192E0,7.752484798E0,4.154262066E0,-6.427977562E0
9.367578130E0,5.750299454E0,3.665723085E0,-5.236256599E0
9.384244067E0,3.427333117E0,2.189721107E0,-3.040121317E0
9.400910005E0,1.363068342E0,4.999928176E-1,-1.453781843E0
9.417575942E0,5.664243698E-1,-1.517235339E-1,-4.406625926E-1
9.434241880E0,6.898190379E-1,2.835939825E-1,1.121700481E-1
9.450907817E0,4.377609789E-1,1.195080638E0,9.406554103E-1
9.467573755E0,-1.698967665E-1,1.650938392E0,2.553338528E0
9.484239692E0,9.949459881E-2,1.138041139E0,4.482907772E0
9.500905630E0,1.006017923E0,1.557705253E-1,6.457375050E0
9.517571567E0,1.626198411E0,-3.449095190E-1,8.079068184E0
9.534237505E0,1.442480803E0,-5.268708803E-3,9.020640373E0
9.550903442E0,5.922334194E-1,7.796925306E-1,8.724447250E0
9.567569380E0,-5.717694163E-1,8.038216829E-1,7.345648766E0
9.584235317E0,-7.079922557E-1,3.367391974E-2,5.933482170E0
9.600901255E0,2.550360374E-2,-1.112232089E0,5.166617870E0
9.617567192E0,5.412262082E-1,-1.926514745E0,4.781467915E0
9.634233130E0,5.250383019E-1,-1.971795201E0,4.175718784E0
9.650899067E0,3.763690591E-1,-1.402545571E0,3.596466303E0
9.667565005E0,3.552942276E-1,-7.740420103E-1,3.200625896E0
9.684230942E0,7.612138987E-1,-6.255255342E-1,2.838077784E0
9.700896880E0,1.778303742E0,-1.204854369E0,2.619770050E0
9.717562817E0,2.823722363E0,-1.708894253E0,2.489197731E0
9.734228755E0,3.096397161E0,-1.475925684E0,2.245844364E0
9.750894692E0,2.719341040E0,-9.624938369E-1,1.903072834E0
9.767560630E0,2.454989195E0,-8.060360551E-1,1.291978955E0
9.784226567E0,2.599458694E0,-1.012050271E0,2.935205400E-1
9.800892505E0,2.682154417E0,-1.382005215E0,-8.364266157E-1
9.817558442E0,2.808832645E0,-2.550284147E0,-1.942855477E0
9.834224380E0,3.662974358E0,-4.426096916E0,-2.605185509E0
9.850890317E0,3.999866247E0,-4.383565426E0,-3.017213821E0
9.867556255E0,2.112065077E0,-2.069380760E0,-3.656560183E0
9.884222192E0,-6.794343591E-1,4.247801006E-1,-4.479776859E0
9.900888130E0,-1.874667645E0,2.118555307E0,-5.239158154E0
9.917554067E0,-8.420770764E-1,2.747517109E0,-5.753888130E0
9.934220005E0,1.529987216E0,2.302502155E0,-6.074057579E0
9.950885942E0,3.486205339E0,2.501262188E0,-6.860851288E0
9.967551880E0,4.720381260E0,2.729496479E0,-7.960637093E0
9.984217817E0,4.965643406E0,2.168188095E0,-8.730937958E0
1.000088376E1,3.988870621E0,1.927201986E0,-8.359073639E0
1.001754969E1,2.248364210E0,2.124816895E0,-6.825497627E0
1.003421563E1,8.548288941E-1,2.292728186E0,-5.215028763E0
1.005088157E1,6.885209680E-1,2.210185051E0,-3.708101988E0
1.006754750E1,1.286939383E0,2.046855211E0,-2.091448307E0
1.008421344E1,1.334586859E0,2.338772058E0,-2.913061380E-1
1.010087938E1,6.930260658E-1,2.866941214E0,1.527849197E0
1.011754532E1,3.840812445E-1,2.567922831E0,3.445430040E0
1.013421126E1,7.958804369E-1,1.425147533E0,5.178071499E0
1.015087719E1,1.426522017E0,2.021962404E-1,6.421716213E0
1.016754313E1,1.891237378E0,-2.726747692E-1,6.821374416E0
1.018420907E1,2.103894711E0,1.511890348E-2,6.082609653E0
1.020087500E1,1.684688687E0,5.144245028E-1,4.819112301E0
1.021754094E1,4.134027362E-1,7.321214676E-1,3.872500896E0
1.023420688E1,-1.183703184E0,5.253437161E-2,3.387398005E0
1.025087282E1,-2.558988810E0,-6.637045741E-1,3.623573542E0
1.026753876E1,-3.230252981E0,-3.698786199E-1,4.334849358E0
1.028420469E1,-2.972467899E0,-3.772853613E-1,4.596146584E0
1.030087063E1,-1.786626816E0,-6.178897023E-1,3.253313065E0
1.031753657E1,-1.080772519E0,-9.613484144E-2,1.379409075E0
1.033420250E1,-1.179656267E0,4.522690177E-1,4.954876900E-1
1.035086844E1,-1.215391874E0,4.488328993E-1,4.048506320E-1
1.036753438E1,-7.615193129E-1,-7.979421318E-2,4.170679152E-1
1.038420032E1,-4.556287527E-1,-4.105774760E-1,3.129918277E-1
1.040086626E1,-7.612902522E-1,-3.220784664E-1,1.473711245E-2
1.041753219E1,-1.324202180E0,1.267544460E-2,-3.657552898E-1
1.043419813E1,-1.466304541E0,1.917351782E-1,-8.093194962E-1
1.045086407E1,-9.402735829E-1,1.571449637E-1,-1.448665857E0
1.046753000E1,-3.065777719E-1,1.308014244E-1,-2.182696104E0
1.048419594E1,-2.160934173E-2,2.924515009E-1,-2.723311663E0
1.050086188E1,2.025780380E-1,7.720566988E-1,-3.263239622E0
1.051752782E1,7.513636947E-1,1.476536512E0,-3.993757486E0
1.053419376E1,1.690186501E0,1.835419536E0,-4.648833752E0
1.055085969E1,2.632216454E0,1.632307053E0,-5.160891056E0
1.056752563E1,3.124267817E0,1.535866737E0,-5.664701939E0
1.058419157E1,3.177184105E0,1.752647400E0,-5.958833218E0
1.060085750E1,3.275915146E0,1.674456716E0,-5.884918690E0
1.061752344E1,3.324478865E0,1.159574032E0,-5.174559116E0
1.063418938E1,3.145877361E0,6.595048904E-1,-4.032471180E0
1.065085532E1,2.578994751E0,4.208858311E-1,-3.449629784E0
1.066752126E1,1.834503293E0,3.450622559E-1,-3.361741543E0
1.068418719E1,9.349285364E-1,3.930151165E-1,-3.047375202E0
1.070085313E1,7.399099320E-2,7.641154528E-1,-2.293186426E0
1.071751907E1,-2.554942071E-1,1.027474523E0,-1.265940905E0
1.073418500E1,2.664897740E-1,7.310523987E-1,-2.929096520E-1
1.075085094E1,1.258992314E0,9.308052063E-2,5.115228891E-1
1.076751688E1,1.907959819E0,-2.848920524E-1,1.083445072E0
1.078418282E1,1.886426806E0,-3.817904741E-2,1.356272578E0
1.080084876E1,1.487303019E0,4.897608459E-1,1.223027706E0
1.081751469E1,9.070578218E-1,7.062360644E-1,1.298164010E0
1.083418063E1,3.147480786E-1,3.307832778E-1,1.950491190E0
1.085084657E1,-1.359937787E-1,-3.167333901E-1,2.798906088E0
1.086751250E1,-3.604102135E-1,-6.615665555E-1,3.136103392E0
1.088417844E1,-6.742420197E-1,-4.466948658E-2,2.487365007E0
1.090084438E1,-1.219438791E0,7.468585372E-1,1.514181018E0
1.091751032E1,-1.740048289E0,2.604574561E-1,1.957058072E0
1.093417626E1,-2.047618628E0,-1.620929718E0,4.298884392E0
1.095084219E1,-1.702709198E0,-2.860221624E0,5.804360867E0
1.096750813E1,-1.671707869E0,-1.803196430E0,4.257574558E0
1.098417407E1,-2.574871302E0,-1.776089370E-1,2.277303934E0
1.100084000E1,-2.742782831E0,-1.278998107E-1,1.839695692E0
1.101750594E1,-2.090608358E0,-6.017781496E-1,1.697364092E0
1.103417188E1,-1.434692264E0,-5.059487820E-1,1.373605847E0
1.105083782E1,-1.253341794E0,-5.536725521E-1,1.022511244E0
1.106750376E1,-1.614668369E0,-6.330850124E-1,7.027999163E-1
1.108416969E1,-2.262948513E0,-3.488037884E-1,3.607156575E-1
1.110083563E1,-2.728733063E0,3.298669681E-2,-6.414080411E-2
1.111750157E1,-2.661537886E0,1.427896470E-1,-5.539780259E-1
1.113416750E1,-2.074115038E0,-5.054906011E-2,-1.065577269E0
1.115083344E1,-1.289764643E0,-2.909243405E-1,-1.566180944E0
1.116749938E1,-8.313869834E-1,-1.136972085E-1,-1.950033069E0
1.118416532E1,-5.642099977E-1,4.048506320E-1,-2.153603792E0
1.120083126E1,-1.039997265E-1,9.270636439E-1,-2.541732073E0
1.121749719E1,5.887209177E-1,1.315420985E0,-3.383732796E0
1.123416313E1,1.541975379E0,1.399567604E0,-4.094091892E0
1.125082907E1,2.541579247E0,7.989347577E-1,-3.968101263E0
1.126749500E1,3.056843758E0,3.711003661E-1,-3.282481909E0
1.128416094E1,2.665661097E0,3.940077722E-1,-2.664439440E0
1.130082688E1,1.638568401E0,7.284562588E-1,-2.705367327E0
1.131749282E1,4.392881393E-1,1.382845163E0,-3.186347008E0
1.133415876E1,-2.735147178E-1,2.158490658E0,-3.333947182E0
1.135082469E1,1.989891976E-1,2.143753529E0,-2.881907225E0
1.136749063E1,1.567555428E0,1.606956124E0,-2.065181017E0
1.138415657E1,2.622289896E0,1.063820958E0,-1.342604399E0
1.140082250E1,2.611905098E0,7.357866168E-1,-6.556869745E-1
1.141748844E1,1.475009322E0,7.825177908E-1,6.459894776E-2
1.143415438E1,-2.623664141E-1,8.939242363E-1,5.633700490E-1
1.145082032E1,-1.486768484E0,6.588940024E-1,8.742238283E-1
1.146748626E1,-1.941710114E0,-1.467602700E-1,1.571220517E0
1.148415219E1,-1.907883406E0,-1.197676778E0,2.658254385E0
1.150081813E1,-1.588477492E0,-1.676365614E0,3.327456713E0
1.151748407E1,-1.419038892E0,-1.477605581E0,3.223762512E0
1.153415000E1,-1.695149779E0,-1.282816052E0,3.177031279E0
1.155081594E1,-2.248440504E0,-1.778303742E0,4.307589531E0
1.156748188E1,-2.558377981E0,-2.480111122E0,5.862774849E0
1.158414782E1,-2.359923363E0,-2.136423111E0,5.585365772E0
1.160081376E1,-1.765170097E0,-9.538653493E-1,3.633805513E0
1.161747969E1,-1.172020435E0,-2.466366589E-1,2.085874081E0
1.163414563E1,-8.028290272E-1,-4.920515716E-1,1.514944673E0
1.165081157E1,-1.230587125E0,-7.554870248E-1,1.305494428E0
1.166747750E1,-2.132987022E0,-5.060251355E-1,1.329165459E0
1.168414344E1,-2.503476620E0,-3.571268320E-1,1.486921191E0
1.170080938E1,-1.948734999E0,-5.671116114E-1,1.341993570E0
1.171747532E1,-1.052978158E0,-7.615193129E-1,6.484329700E-1
1.173414126E1,-6.654608250E-1,-5.048797131E-1,-2.585485280E-1
1.175080719E1,-7.964149714E-1,9.078978002E-2,-9.291253090E-1
1.176747313E1,-7.128028274E-1,5.295433998E-1,-1.388342977E0
1.178413907E1,-3.588830680E-2,6.235402226E-1,-1.836565018E0
1.180080500E1,1.082528710E0,6.479747891E-1,-2.364504814E0
1.181747094E1,2.027994633E0,1.018693328E0,-2.971017122E0
1.183413688E1,2.401844025E0,1.416060925E0,-3.441993952E0
1.185080282E1,2.483547211E0,1.434463263E0,-3.466123104E0
1.186746876E1,2.760192394E0,8.308524489E-1,-3.079140186E0
1.188413469E1,3.262017965E0,-1.290451828E-2,-2.584645271E0
1.190080063E1,3.107621908E0,-6.537016630E-1,-2.898095131E0
1.191746657E1,1.835495949E0,-1.000291109E-1,-3.875249863E0
1.193413251E1,2.725984156E-1,1.171867728E0,-4.407465935E0
1.195079844E1,-4.402044415E-1,1.698509574E0,-4.293539524E0
1.196746438E1,4.581485875E-3,1.295262456E0,-3.648695230E0
1.198413032E1,9.788344502E-1,6.798924804E-1,-2.683834314E0
1.200079626E1,1.617417216E0,3.230711222E-1,-1.862755775E0
1.201746219E1,1.707367063E0,5.616901517E-1,-1.304349065E0
1.203412813E1,1.581681609E0,9.509637356E-1,-8.298597932E-1
1.205079407E1,8.769727349E-1,7.386882305E-1,-1.229365356E-2
1.206746001E1,-3.545306325E-1,2.525925934E-1,1.180343509E0
1.208412594E1,-1.493411660E0,-2.485456020E-1,2.383976221E0
1.210079188E1,-1.972024202E0,-7.016545534E-1,3.402745962E0
1.211745782E1,-1.851607561E0,-1.020067811E0,4.088059902E0
1.213412376E1,-1.900476694E0,-1.124372959E0,4.777267933E0
1.215078969E1,-2.547764301E0,-1.197524071E0,5.637594700E0
1.216745563E1,-3.298211575E0,-1.090469956E0,6.470661640E0
1.218412157E1,-3.406869173E0,-5.994874239E-1,6.636587620E0
1.220078751E1,-2.432081699E0,5.062541738E-2,5.784355164E0
1.221745344E1,-2.712239623E-1,-3.708712757E-1,4.530097008E0
1.223411938E1,1.236161232E0,-4.259254634E-1,3.603796721E0
1.225078532E1,1.015715361E0,8.628465235E-3,3.070588112E0
1.226745126E1,2.297615111E-1,4.288270772E-1,2.505614519E0
1.228411719E1,3.007745445E-1,5.312996507E-1,1.748753190E0
1.230078313E1,9.252310395E-1,4.138609022E-2,7.716749310E-1
1.231744907E1,9.428697824E-1,-3.724747896E-1,-2.328922004E-1
1.233411501E1,9.384410083E-2,-4.260781780E-2,-1.054199934E0
1.235078094E1,-6.338485479E-1,6.856957078E-1,-1.951483846E0
1.236744688E1,-6.910407543E-2,1.266399026E0,-3.119762897E0
1.238411282E1,1.858708858E0,1.386052132E0,-4.596452236E0
1.240077876E1,3.813781500E0,1.361006737E0,-5.785271168E0
1.241744469E1,4.821403027E0,1.456377983E0,-6.322679520E0
1.243411063E1,5.400732040E0,1.285030365E0,-6.188289165E0
1.245077657E1,5.291615963E0,1.362228394E-1,-5.330406189E0
1.246744251E1,3.766897678E0,-5.390881896E-1,-5.089037895E0
1.248410844E1,1.715919137E0,3.430769444E-1,-5.092016220E0
1.250077438E1,9.713513851E-1,1.755854487E0,-5.065901756E0
1.251744032E1,2.510577917E0,1.600542068E0,-4.679682255E0
1.253410626E1,4.400746346E0,3.010799885E-1,-3.714668751E0
1.255077219E1,4.105622292E0,-6.715694666E-1,-2.038455725E0
1.256743813E1,5.080868006E-1,-5.371028781E-1,5.754346251E-1
1.258410407E1,-3.411068916E0,7.557924390E-1,3.124191523E0
1.260077001E1,-3.902433395E0,2.735147178E-1,5.303298950E0
1.261743594E1,-1.765475512E0,-2.120998859E0,7.744849205E0
1.263410188E1,-5.711585879E-1,-2.537761450E0,9.698928833E0
1.265076782E1,-1.503414631E0,-1.304043531E0,1.047052765E1
1.266743376E1,-2.674900532E0,-6.454550028E-1,9.554612160E0
1.268409969E1,-2.951698542E0,-1.514944583E-1,7.664596558E0
1.270076563E1,-2.392833710E0,-1.052214578E-1,6.152095318E0
1.271743157E1,-5.476402640E-1,-6.065123677E-1,5.368890762E0
1.273409751E1,1.322369576E0,-7.758746147E-1,3.979554892E0
1.275076344E1,1.656818032E0,7.788526267E-2,1.484019637E0
1.276742938E1,1.117729783E0,8.467349410E-1,-5.780308247E-1
1.278409532E1,1.212948322E0,7.013491392E-1,-1.710955858E0
1.280076126E1,2.393444538E0,6.954695582E-1,-2.909014463E0
1.281742719E1,3.952600479E0,7.240274549E-1,-4.394637585E0
1.283409313E1,4.809873104E0,7.635809779E-1,-5.408520222E0
1.285075907E1,4.824228287E0,1.406592488E0,-5.945088863E0
1.286742501E1,4.686783791E0,2.093815327E0,-6.238914490E0
1.288409094E1,4.498560905E0,2.383823395E0,-6.220894337E0
1.290075688E1,4.212752819E0,2.563265085E0,-5.853840828E0
1.291742282E1,4.311330795E0,2.810588837E0,-5.569483280E0
1.293408876E1,4.771464825E0,3.460854292E0,-5.350335598E0
1.295075469E1,5.578341007E0,3.834092855E0,-5.206095219E0
1.296742063E1,6.138961792E0,3.712225199E0,-5.405160427E0
1.298408657E1,5.823679447E0,3.551262379E0,-5.445096016E0
1.300075251E1,4.654407978E0,3.578980446E0,-5.025355339E0
1.301741844E1,3.621588230E0,3.738797903E0,-4.879893303E0
1.303408438E1,3.141601086E0,3.933663845E0,-4.927158833E0
1.305075032E1,3.250564098E0,3.754680395E0,-4.662501812E0
1.306741626E1,3.658087492E0,3.156796455E0,-4.066985130E0
1.308408219E1,3.814621449E0,2.560668707E0,-3.130452871E0
1.310074813E1,3.170693636E0,1.986226797E0,-1.717217207E0
1.311741407E1,1.512501240E0,1.901392937E0,4.146244749E-2
1.313408001E1,-4.156934917E-1,2.506225586E0,1.949345827E0
1.315074594E1,-1.545106053E0,3.257207394E0,3.552789450E0
1.316741188E1,-8.232166767E-1,4.034379959E0,4.522613525E0
1.318407782E1,8.301652074E-1,4.079431534E0,5.428602695E0
1.320074376E1,2.077627420E0,2.968344688E0,6.397281170E0
1.321740969E1,2.562119484E0,1.726074815E0,6.891623497E0
1.323407563E1,2.146349669E0,1.430034399E0,6.657509804E0
1.325074157E1,9.866993427E-1,1.855654478E0,6.438972950E0
1.326740751E1,-1.004109010E-1,2.335565090E0,6.643001556E0
1.328407344E1,-1.275180280E-1,1.519373417E0,6.627424717E0
1.330073938E1,6.944005489E-1,9.330959618E-2,5.615909100E0
1.331740532E1,1.211192131E0,-1.121700481E-1,4.662119865E0
1.333407126E1,9.905172586E-1,3.560578227E-1,4.405098438E0
1.335073719E1,8.849903345E-1,5.034289360E-1,4.264599800E0
1.336740313E1,1.496236920E0,2.672533393E-1,3.440314054E0
1.338406907E1,2.405738115E0,-1.379027218E-1,2.221486092E0
1.340073501E1,2.827616692E0,-2.570977211E-1,1.181030750E0
1.341740094E1,2.489121199E0,-2.870301008E-1,5.640572906E-1
1.343406688E1,1.285946727E0,-4.001164436E-1,2.632063627E-1
1.345073282E1,-2.810741663E-1,-2.968039215E-1,2.466366626E-2
1.346739876E1,-1.092226267E0,2.189950198E-1,-4.684569240E-1
1.348406469E1,-3.746128380E-1,7.570141554E-1,-1.443702579E0
1.350073063E1,1.628718257E0,1.361464858E-1,-2.583117962E0
1.351739657E1,3.001942158E0,-1.456301689E0,-3.464977741E0
1.353406251E1,2.194607973E0,-2.104963779E0,-3.840735912E0
1.355072844E1,-1.783725172E-1,-7.237220407E-1,-3.988488913E0
1.356739438E1,-2.133445263E0,1.626503825E0,-4.423882961E0
1.358406032E1,-1.938273907E0,3.068831921E0,-5.200979233E0
1.360072626E1,1.063439250E0,2.602742195E0,-5.828184605E0
1.361739219E1,4.851182461E0,1.217148066E0,-6.084824085E0
1.363405813E1,6.811676979E0,3.985892609E-2,-6.010680199E0
1.365072407E1,5.969447136E0,-4.101193547E-1,-5.638205528E0
1.366739001E1,2.728121996E0,1.726456583E-1,-5.396303177E0
1.368405594E1,-6.100248694E-1,1.994626164E0,-5.231522560E0
1.370072188E1,-1.745927930E0,3.482692719E0,-4.875082493E0
1.371738782E1,-1.112537459E-1,3.205131054E0,-3.831725597E0
1.373405376E1,3.193372011E0,1.521206021E0,-2.042426348E0
1.375071969E1,5.649506569E0,5.428296924E-1,-6.878337264E-1
1.376738563E1,5.755033493E0,1.568700790E0,8.491020650E-2
1.378405157E1,4.066374302E0,3.019428253E0,5.700895786E-1
1.380071751E1,1.859014273E0,3.378998518E0,1.070387840E0
1.381738344E1,5.530617237E-1,2.809138060E0,2.190026522E0
1.383404938E1,5.508472919E-1,1.834121466E0,3.818592072E0
1.385071532E1,1.268231630E0,8.051961660E-1,4.954953194E0
1.386738126E1,1.663461208E0,1.685986817E-1,5.118970394E0
1.388404719E1,1.162781119E0,3.642281145E-2,4.337979794E0
1.390071313E1,-3.335321844E-1,5.933024287E-1,3.097084522E0
1.391737907E1,-2.661537886E0,1.872987747E0,3.214065075E0
1.393404501E1,-5.177002430E0,2.001345634E0,5.626293659E0
1.395071094E1,-5.513588905E0,-6.308705807E-1,7.496227264E0
1.396737688E1,-3.578903913E0,-1.937739491E0,6.079479218E0
1.398404282E1,-2.476445913E0,-2.160170525E-1,2.584950686E0
1.400070876E1,-2.550360441E0,1.392389894E0,1.652389169E-1
1.401737469E1,-2.540663004E0,1.004261732E0,2.901607752E-2
1.403404063E1,-2.606025457E0,1.038470119E-2,6.794343591E-1
1.405070657E1,-2.534707069E0,-3.457494676E-1,1.144149780E0
1.406737251E1,-1.989968419E0,-3.060432673E-1,1.352454662E0
1.408403844E1,-1.020373225E0,2.817613818E-2,1.116355419E0
1.410070438E1,1.048396677E-1,4.757109284E-2,-6.291907281E-2
1.411737032E1,7.233402729E-1,-1.488982886E-2,-1.342986226E0
1.413403626E1,6.779071689E-1,3.397935331E-1,-1.883677959E0
1.415070219E1,6.352993846E-1,1.080696106E0,-2.017915487E0
1.416736813E1,1.106581569E0,1.774485826E0,-2.399935007E0
1.418403407E1,2.264017582E0,1.860465050E0,-3.169166565E0
1.420070001E1,3.516061306E0,1.474245787E0,-3.904647589E0
1.421736594E1,4.160752773E0,1.153770804E0,-4.387689114E0
1.423403188E1,3.950691700E0,1.134834051E0,-4.508640289E0
1.425069782E1,2.518900871E0,1.253036380E0,-4.122420788E0
1.426736376E1,7.397572398E-1,9.902881384E-1,-2.554712772E0
1.428402969E1,2.527453005E-1,5.820014477E-1,-7.348703146E-1
1.430069563E1,1.395291567E0,1.210963011E0,-1.201876402E0
1.431736157E1,3.217730284E0,2.726442337E0,-2.318002701E0
1.433402751E1,4.982976913E0,3.255069256E0,-2.433227062E0
1.435069344E1,5.753506184E0,2.279365540E0,-1.948047757E0
1.436735938E1,4.909520149E0,1.268537045E0,-1.389793754E0
1.438402532E1,3.044168234E0,1.695073366E0,-9.824233055E-1
1.440069126E1,1.532277942E0,2.924515247E0,-7.882446647E-1
1.441735719E1,1.045266032E0,3.216966629E0,-5.679515004E-1
1.443402313E1,1.561217666E0,2.348546028E0,-4.148535430E-1
1.445068907E1,2.250731230E0,9.376010895E-1,-4.973202944E-1
1.446735501E1,2.145586252E0,-6.514109373E-1,-3.293324709E-1
1.448402094E1,1.059850335E0,-1.733481526E0,4.911352694E-1
1.450068688E1,-3.537670672E-1,-1.658421516E0,1.731572628E0
1.451735282E1,-1.358563304E0,-9.181297421E-1,2.938641310E0
1.453401876E1,-1.679725409E0,-7.166207433E-1,3.378463984E0
1.455068469E1,-1.682474375E0,-1.156901479E0,2.720333576E0
1.456735063E1,-1.837023139E0,-1.667202711E0,1.884212375E0
1.458401657E1,-2.135354280E0,-1.529376388E0,2.489350319E0
1.460068251E1,-2.387412310E0,-1.321224213E0,5.142717838E0
1.461734844E1,-2.750953197E0,-2.244240761E0,6.057182312E0
1.463401438E1,-2.822882414E0,-2.065944672E0,3.367392063E0
1.465068032E1,-2.624733210E0,2.313650399E-2,8.162680864E-1
1.466734626E1,-1.928271055E0,1.042135358E0,-1.663842946E-1
1.468401219E1,-1.087797403E0,1.996000707E-1,-2.490037531E-1
1.470067813E1,-1.054505348E0,-4.153116941E-1,2.709949017E-1
1.471734407E1,-1.549763918E0,-4.820486605E-1,8.063415289E-1
1.473401001E1,-1.882838011E0,-5.967385173E-1,1.120478749E0
1.475067594E1,-2.007988930E0,-7.872520089E-1,1.339550138E0
1.476734188E1,-2.105803728E0,-1.041982651E0,1.421329618E0
1.478400782E1,-2.326096773E0,-1.243262529E0,1.325271130E0
1.480067376E1,-2.449720383E0,-1.321453214E0,1.086804748E0
1.481733969E1,-2.002490997E0,-1.364671946E0,7.021890879E-1
1.483400563E1,-9.249256253E-1,-1.352072835E0,-9.705114365E-2
1.485067157E1,4.900662601E-1,-3.354411125E-1,-1.464242935E0
1.486733750E1,1.859090567E0,1.311832070E0,-2.874042511E0
1.488400344E1,3.008738041E0,1.513112068E0,-3.712072611E0
1.490066938E1,3.384267330E0,1.898262352E-1,-3.625100613E0
1.491733532E1,2.707276344E0,-6.863829494E-1,-2.867093801E0
1.493400126E1,1.484630466E0,7.131846249E-2,-1.625587583E0
1.495066719E1,3.329212964E-1,8.252783418E-1,-1.710955858E0
1.496733313E1,-5.072468519E-1,1.228372693E0,-3.245524645E0
1.498399907E1,-6.617956161E-1,1.846109748E0,-4.110814571E0
1.500066500E1,3.249036968E-1,1.976605654E0,-4.088059902E0
1.501733094E1,1.871307850E0,1.562668443E0,-3.673511744E0
1.503399688E1,2.867017508E0,1.317024469E0,-3.105483770E0
1.505066282E1,2.885648966E0,1.329852581E0,-2.507370949E0
1.506732876E1,2.287994146E0,1.202487350E0,-1.981874466E0
1.508399469E1,1.429576278E0,1.103069067E0,-1.325347543E0
1.510066063E1,5.978075266E-1,1.002963662E0,-4.579958618E-1
1.511732657E1,1.427896414E-2,7.189114690E-1,3.161225319E-1
1.513399250E1,-3.526980579E-1,1.962403059E-1,1.032896042E0
1.515065844E1,-8.002328873E-1,-5.304597020E-1,1.979049206E0
1.516732438E1,-1.379790783E0,-1.318780661E0,2.949942350E0
1.518399032E1,-1.925369382E0,-1.934685111E0,3.436343431E0
1.520065626E1,-2.471711636E0,-1.980499983E0,3.173900604E0
1.521732219E1,-3.121900797E0,-1.968664527E0,3.047604322E0
1.523398813E1,-3.388848782E0,-2.026543856E0,4.720152378E0
1.525065407E1,-2.930852890E0,-1.977598310E0,6.056495190E0
1.526732000E1,-2.361145020E0,-1.524718523E0,4.012541771E0
1.528398594E1,-2.470413446E0,-5.180133581E-1,9.370665550E-1
1.530065188E1,-2.439793825E0,9.468404204E-2,-8.865175396E-2
1.531731782E1,-1.925216675E0,-1.786779463E-1,3.237583339E-1
1.533398376E1,-1.637499452E0,-5.106829405E-1,9.304234385E-1
1.535064969E1,-1.644600749E0,-5.596284866E-1,1.373071313E0
1.536731563E1,-1.553963661E0,-4.906771481E-1,1.657657981E0
1.538398157E1,-1.242957115E0,-6.175079346E-1,1.700876594E0
1.540064750E1,-8.131373525E-1,-8.108466268E-1,1.164231896E0
1.541731344E1,-6.104066372E-1,-5.647444725E-1,4.430296719E-1
1.543397938E1,-6.474403143E-1,-2.626718581E-1,-9.040798992E-2
1.545064532E1,-5.666534305E-1,-1.496618707E-2,-4.815141559E-1
1.546731126E1,-3.716348708E-1,3.766745031E-1,-9.395100474E-1
1.548397719E1,-1.416442692E-1,8.261946440E-1,-1.723096848E0
1.550064313E1,2.635118067E-1,1.199203968E0,-2.678031206E0
1.551730907E1,8.534544706E-1,1.416213632E0,-3.417864799E0
1.553397500E1,1.403843641E0,1.587179422E0,-3.666028500E0
1.555064094E1,2.055330992E0,1.277700067E0,-3.432067394E0
1.556730688E1,2.820897102E0,5.858956575E-1,-2.794095516E0
1.558397282E1,3.549735308E0,-4.521926641E-1,-2.056858063E0
1.560063876E1,3.423973560E0,-9.921970963E-1,-2.706589222E0
1.561730469E1,1.901545644E0,6.345357746E-2,-3.556072950E0
1.563397063E1,1.921933293E-1,1.418046236E0,-3.677864075E0
1.565063657E1,-4.239401519E-1,1.935448647E0,-3.353342295E0
1.566730250E1,2.645808160E-1,1.608559728E0,-2.610836029E0
1.568396844E1,1.653916359E0,6.670643687E-1,-1.440037370E0
1.570063438E1,2.670395374E0,-3.765981495E-1,-6.379718781E-1
1.571730032E1,2.694677353E0,-8.767436743E-1,-6.256018877E-1
1.573396626E1,1.951560259E0,-4.099666178E-1,-7.968730927E-1
1.575063219E1,6.114756465E-1,4.182896614E-1,-6.230056882E-1
1.576729813E1,-1.190804482E0,8.924734592E-1,4.138609022E-2
1.578396407E1,-2.730260134E0,7.903063297E-1,1.151861906E0
1.580063000E1,-3.260490656E0,4.079813063E-1,2.347171545E0
1.581729594E1,-2.685896158E0,-2.425133139E-1,3.325165987E0
1.583396188E1,-1.767460823E0,-9.224821925E-1,3.984976292E0
1.585062782E1,-2.006690741E0,-9.790635109E-1,4.905396938E0
1.586729376E1,-3.589136124E0,-5.690969229E-1,6.510978699E0
1.588395969E1,-4.831253052E0,-2.286161482E-1,7.498594284E0
1.590062563E1,-4.203818798E0,3.859138191E-1,6.620934486E0
1.591729157E1,-1.406134367E0,-6.055197120E-2,5.001073360E0
1.593395750E1,1.716759086E0,-1.458134174E0,4.235354424E0
1.595062344E1,3.044397354E0,-1.683161497E0,3.739866972E0
1.596728938E1,2.777525902E0,-8.629228473E-1,3.158323526E0
1.598395532E1,2.447735071E0,-1.085812151E-1,1.955912709E0
1.600062126E1,2.725907803E0,1.689804643E-1,1.860083193E-1
1.601728719E1,3.411985159E0,2.732092738E-1,-1.388953805E0
1.603395313E1,3.875860691E0,3.565159440E-1,-2.295248032E0
1.605061907E1,3.902738810E0,2.707658112E-1,-3.125947714E0
1.606728501E1,3.793164730E0,5.345066637E-2,-4.271013737E0
1.608395094E1,3.723373652E0,-3.726275265E-2,-5.567803383E0
1.610061688E1,3.452607632E0,-3.558287323E-1,-6.560993195E0
1.611728282E1,3.076696873E0,-6.615665555E-1,-6.202339172E0
1.613394876E1,2.422384262E0,-1.624671221E0,-4.924257278E0
1.615061469E1,8.139773011E-1,-2.264322996E0,-4.038045406E0
1.616728063E1,-1.395291567E0,-1.395444274E0,-3.776060581E0
1.618394657E1,-1.524489403E0,3.660607338E-1,-3.943895817E0
1.620061251E1,1.096502304E0,1.308395982E0,-3.880289555E0
1.621727844E1,3.249113321E0,8.426116109E-1,-2.920850039E0
1.623394438E1,2.533714294E0,3.012326956E-1,-4.530325830E-1
1.625061032E1,4.936550856E-1,9.452368617E-1,2.143448114E0
1.626727626E1,-5.072468519E-1,1.434539557E0,3.874027967E0
1.628394219E1,-6.406444311E-2,6.879864335E-1,5.062541962E0
1.630060813E1,9.964731932E-1,-5.076286197E-1,6.154920578E0
1.631727407E1,1.623525858E0,-9.670752883E-1,7.051517487E0
1.633394001E1,1.386433959E0,-4.239401519E-1,6.920716286E0
1.635060594E1,4.318050444E-1,8.141300082E-1,5.599720955E0
1.636727188E1,-2.206749097E-2,1.700036645E0,4.067443371E0
1.638393782E1,1.214933634E0,1.693851709E0,2.331747293E0
1.640060376E1,3.475362539E0,1.265024543E0,4.599048197E-1
1.641726969E1,5.682188034E0,1.207679629E0,-1.264184713E0
1.643393563E1,7.027159214E0,1.820529819E0,-2.453767538E0
1.645060157E1,7.577930450E0,2.242560863E0,-2.975369692E0
1.646726751E1,7.731257439E0,2.033416033E0,-3.627925873E0
1.648393344E1,7.587322235E0,1.859319687E0,-4.579118729E0
1.650059938E1,7.233020782E0,1.132772326E0,-4.900051594E0
1.651726532E1,6.033740520E0,-4.573849961E-2,-3.887696266E0
1.653393126E1,4.194732189E0,-1.479132652E0,-2.792644739E0
1.655059719E1,1.965839267E0,-2.048076868E0,-2.635805130E0
1.656726313E1,-2.779434621E-1,-1.010752082E0,-2.604650974E0
1.658392907E1,-1.414762855E0,5.689441562E-1,-2.559905291E0
1.660059501E1,-6.413316727E-1,1.605199933E0,-2.085110664E0
1.661726094E1,1.347491384E0,1.646967769E0,-8.741474748E-1
1.663392688E1,3.221624374E0,1.419115186E0,5.798633695E-1
1.665059282E1,4.430678368E0,1.280754328E0,1.828852773E0
1.666725876E1,4.979006290E0,7.769436240E-1,2.713079453E0
1.668392469E1,4.815828800E0,3.109301627E-1,3.131674767E0
1.670059063E1,3.993452072E0,2.596175373E-1,3.277289629E0
1.671725657E1,2.691164732E0,5.889499784E-1,3.724442482E0
1.673392251E1,1.198364019E0,9.296598434E-1,4.556746006E0
1.675058844E1,-1.480583549E-1,1.028849006E0,5.363163471E0
1.676725438E1,-6.424006820E-1,4.504364133E-1,5.451128006E0
1.678392032E1,1.263726503E-1,3.869828284E-1,3.990092278E0
1.680058626E1,1.918573499E0,6.471349001E-1,1.727220178E0
1.681725219E1,3.550498724E0,3.798051775E-1,2.894735336E-1
1.683391813E1,4.190685272E0,2.221257091E-1,-1.282816082E-1
1.685058407E1,3.617464781E0,5.544361472E-1,-1.130863428E-1
1.686725001E1,2.480950832E0,9.987639189E-1,7.536543906E-2
1.688391594E1,1.539684653E0,1.030987024E0,3.221548200E-1
1.690058188E1,1.275791049E0,9.576069117E-1,1.804341823E-1
1.691724782E1,1.834732413E0,1.143920660E0,-7.383064628E-1
1.693391376E1,2.796844482E0,1.195386052E0,-1.955454469E0
1.695057969E1,3.423820734E0,1.109406829E0,-2.869155407E0
1.696724563E1,3.482463837E0,1.198593020E0,-3.205818415E0
1.698391157E1,3.315239429E0,1.252272844E0,-3.451767683E0
1.700057751E1,3.525147915E0,1.068478823E0,-3.971766472E0
1.701724344E1,4.131431103E0,1.118264318E0,-4.889361858E0
1.703390938E1,4.948310375E0,1.150411129E0,-5.573835850E0
1.705057532E1,5.490681648E0,3.715584874E-1,-5.555891514E0
1.706724126E1,5.193343163E0,-9.812778831E-1,-5.083158493E0
1.708390719E1,3.784230947E0,-1.651320219E0,-4.221381187E0
1.710057313E1,2.121075153E0,-1.484248757E0,-3.550727844E0
1.711723907E1,7.203623056E-1,-1.154534459E0,-3.383809090E0
1.713390501E1,-8.567378670E-2,-2.594648004E-1,-3.067991972E0
1.715057094E1,5.879573524E-2,8.286380768E-1,-2.469726324E0
1.716723688E1,1.054047227E0,1.263497472E0,-1.661170363E0
1.718390282E1,2.044335365E0,1.522656798E0,-1.066264510E0
1.720056876E1,2.469726324E0,1.962326765E0,-5.098429918E-1
1.721723469E1,2.613737583E0,2.291124821E0,2.294560820E-1
1.723390063E1,2.212017775E0,2.212934017E0,1.286099434E0
1.725056657E1,1.534034133E0,2.170249939E0,2.479882002E0
1.726723251E1,1.188513756E0,2.048916817E0,3.731620312E0
1.728389844E1,1.111850262E0,1.741880894E0,4.708316803E0
1.730056438E1,9.401972294E-1,1.336801171E0,4.938077927E0
1.731723032E1,2.977965772E-1,1.073671222E0,4.241692543E0
1.733389626E1,-7.096721530E-1,5.826886296E-1,3.263774157E0
1.735056219E1,-1.642080903E0,-3.955349326E-2,2.835328817E0
1.736722813E1,-1.821751475E0,-8.113048077E-1,4.330573082E0
1.738389407E1,-1.150792837E0,-1.503185511E0,6.428206444E0
1.740056001E1,-5.627591610E-1,-1.157054305E0,5.754040718E0
1.741722594E1,-1.029536247E0,-8.933897316E-2,2.823111534E0
1.743389188E1,-1.551978350E0,6.186532974E-1,4.253909588E-1
1.745055782E1,-1.214475513E0,3.801106215E-1,-1.821140647E-1
1.746722376E1,-7.832050323E-1,-3.184132576E-1,2.464839369E-1
1.748388969E1,-8.610902429E-1,-4.463894367E-1,6.074286699E-1
1.750055563E1,-1.229594469E0,2.000582218E-1,7.560978532E-1
1.751722157E1,-1.544877052E0,7.140245438E-1,9.871574640E-1
1.753388751E1,-1.520289779E0,8.972076178E-1,1.300836563E0
1.755055344E1,-1.521664143E0,8.928552270E-1,1.124907494E0
1.756721938E1,-1.731725335E0,8.875865340E-1,8.155044913E-2
1.758388532E1,-1.831219912E0,7.628937364E-1,-1.036713839E0
1.760055126E1,-1.518991590E0,7.364738584E-1,-1.676289320E0
1.761721719E1,-7.956513762E-1,9.346231222E-1,-2.230648994E0
1.763388313E1,1.559232324E-1,1.607948780E0,-3.041495800E0
1.765054907E1,1.043051600E0,2.219882727E0,-3.998033524E0
1.766721501E1,1.889939308E0,2.397338867E0,-4.622032166E0
1.768388094E1,2.583347082E0,2.328845501E0,-4.550713539E0
1.770054688E1,3.064479589E0,2.210337877E0,-4.284529209E0
1.771721282E1,3.592953920E0,1.482950568E0,-3.898768187E0
1.773387876E1,4.025217056E0,1.695913374E-1,-3.013319492E0
1.775054469E1,3.338910580E0,-6.827940941E-1,-2.556850910E0
1.776721063E1,1.275103927E0,5.436696485E-2,-3.081889153E0
1.778387657E1,-6.154462695E-1,1.771355152E0,-3.577682257E0
1.780054251E1,-8.216894865E-1,2.581514597E0,-3.666486740E0
1.781720844E1,2.457203567E-1,1.972940564E0,-3.146717310E0
1.783387438E1,1.444618821E0,9.729548693E-1,-2.177351236E0
1.785054032E1,1.973933220E0,4.995346665E-1,-1.257312417E0
1.786720626E1,1.728518248E0,5.043452382E-1,-4.551706314E-1
1.788387219E1,1.194546103E0,1.074205756E0,3.123809695E-1
1.790053813E1,1.111239433E0,1.714162946E0,1.021595001E0
1.791720407E1,1.359632254E0,1.651167512E0,1.531590700E0
1.793387001E1,1.527467370E0,9.037744403E-1,1.882685304E0
1.795053594E1,1.375591159E0,2.222020552E-2,2.143448114E0
1.796720188E1,7.989347577E-1,-2.483165264E-1,2.077780247E0
1.798386782E1,1.687514037E-2,2.977965772E-2,1.942244530E0
1.800053376E1,-7.757219076E-1,2.800815105E-1,2.072053432E0
1.801719969E1,-1.324354887E0,-2.464075834E-1,2.241033792E0
1.803386563E1,-1.726838350E0,-1.773645878E0,2.593426466E0
1.805053157E1,-2.271729708E0,-3.679467678E0,4.413192749E0
1.806719751E1,-3.102353096E0,-4.028042316E0,6.539994717E0
1.808386344E1,-3.983602047E0,-2.093433619E0,5.009014606E0
1.810052938E1,-4.156476498E0,1.098411202E0,1.264184713E0
1.811719532E1,-2.778671265E0,1.599396706E0,-1.108872294E0
1.813386126E1,-3.342193961E-1,1.420260668E-1,-1.141324520E0
1.815052719E1,7.673988938E-1,-1.414075613E0,-8.093958348E-2
1.816719313E1,1.753181964E-1,-1.582979679E0,6.040689349E-1
1.818385907E1,-9.833396077E-1,-9.902881384E-1,1.085201263E0
1.820052500E1,-1.779449105E0,-7.602975965E-1,1.538997412E0
1.821719094E1,-1.875202179E0,-9.254601598E-1,1.736306787E0
1.823385688E1,-1.345506072E0,-1.053130865E0,1.118035316E0
1.825052282E1,-7.338013053E-1,-8.895718455E-1,-2.588539571E-2
1.826718876E1,-4.684569240E-1,-5.808560252E-1,-1.014951825E0
1.828385469E1,-4.728093445E-1,-3.435350657E-1,-1.625358462E0
1.830052063E1,-6.170498133E-1,-1.886045001E-2,-2.001574755E0
1.831718657E1,-7.246383429E-1,5.232056975E-1,-2.406425476E0
1.833385250E1,-5.753582716E-1,1.437059402E0,-3.125718832E0
1.835051844E1,-1.668424457E-1,2.405967236E0,-3.814086914E0
1.836718438E1,3.443750143E-1,2.841513872E0,-4.051560879E0
1.838385032E1,8.119156361E-1,2.835252523E0,-3.427944183E0
1.840051626E1,1.150945544E0,2.726289511E0,-1.621006012E0
1.841718219E1,1.578169107E0,3.074406147E0,-3.989710510E-1
1.843384813E1,2.098549604E0,3.697564602E0,-1.290070057E0
1.845051407E1,2.246149778E0,4.417392254E0,-2.334801435E0
1.846718000E1,2.259894133E0,5.214647293E0,-2.312734127E0
1.848384594E1,2.633743525E0,5.193266869E0,-1.702938318E0
1.850051188E1,3.359679937E0,4.155713081E0,-7.074577808E-1
1.851717782E1,3.784001827E0,2.628474712E0,1.396589577E-1
1.853384376E1,3.615784883E0,1.405447125E0,5.903244615E-1
1.855050969E1,3.012250662E0,7.514400482E-1,7.508291602E-1
1.856717563E1,2.353127480E0,3.452913165E-1,8.184061050E-1
1.858384157E1,2.005163670E0,-8.857538924E-3,6.451495886E-1
1.860050750E1,2.085034132E0,-5.700895786E-1,2.412915826E-1
1.861717344E1,1.988899350E0,-1.268766165E0,-2.649625950E-2
1.863383938E1,1.293964267E0,-2.185063362E0,1.131627038E-1
1.865050532E1,2.495382577E-1,-2.893895626E0,6.416370869E-1
1.866717126E1,-6.957749724E-1,-3.060356140E0,1.312901139E0
1.868383719E1,-1.077870846E0,-3.301342249E0,2.045709848E0
1.870050313E1,-9.062178731E-1,-3.960847139E0,2.647487879E0
1.871716907E1,-1.295720577E0,-4.224206448E0,3.367850304E0
1.873383500E1,-2.841055632E0,-3.479867458E0,5.092397690E0
1.875050094E1,-4.255131245E0,-2.419864416E0,6.688740253E0
1.876716688E1,-4.229551315E0,-1.140789986E0,5.353313446E0
1.878383282E1,-3.247357130E0,9.056070447E-2,2.094884396E0
1.880049876E1,-1.965686560E0,1.679878100E-3,3.673588037E-1
1.881716469E1,-1.061759353E0,-7.334195375E-1,2.080758214E-1
1.883383063E1,-1.069853306E0,-1.253799915E0,4.056142271E-1
1.885049657E1,-1.905210853E0,-1.291215420E0,5.915461779E-1
1.886716250E1,-3.051422358E0,-1.181488872E0,8.239038587E-1
1.888382844E1,-4.101269722E0,-1.158046961E0,9.562324286E-1
1.890049438E1,-4.917537689E0,-1.155908823E0,1.200043917E0
1.891716032E1,-5.144932270E0,-1.145829558E0,1.260519505E0
1.893382626E1,-4.821097374E0,-1.149723887E0,9.510400891E-1
1.895049219E1,-4.150444508E0,-9.009491801E-1,4.224893451E-1
1.896715813E1,-3.142975569E0,-3.213912249E-1,-2.386190593E-1
1.898382407E1,-1.913915753E0,3.296379149E-1,-9.604321718E-1
1.900049000E1,-6.196459532E-1,9.301179647E-1,-1.654374480E0
1.901715594E1,5.681042671E-1,1.518915296E0,-2.111148596E0
1.903382188E1,1.550145745E0,1.908341527E0,-2.350836754E0
1.905048782E1,2.229885578E0,2.236452341E0,-2.527911186E0
1.906715376E1,2.385274172E0,3.005912781E0,-2.808603525E0
1.908381969E1,2.517220974E0,3.658010960E0,-2.276998520E0
1.910048563E1,2.887023211E0,2.694982767E0,1.866191924E-1
1.911715157E1,3.521635532E0,-2.858083546E-1,1.529758096E0
1.913381750E1,3.897699118E0,-1.898873210E0,-4.054614902E-2
1.915048344E1,2.263253927E0,6.477457285E-1,-1.937510371E0
1.916714938E1,-6.414080039E-3,4.194426537E0,-3.003011227E0
1.918381532E1,-5.981130004E-1,5.524661064E0,-3.122053623E0
1.920048126E1,7.430406213E-1,4.445950031E0,-2.179183722E0
1.921714719E1,3.067304850E0,2.224158764E0,-8.921679854E-1
1.923381313E1,5.087129116E0,9.101885557E-2,1.740964688E-2
1.925047907E1,5.873083115E0,-1.026405573E0,5.695550442E-1
1.926714500E1,5.514352798E0,-1.315039158E0,6.839394569E-1
1.928381094E1,4.417544842E0,-1.228296399E0,1.774562150E-1
1.930047688E1,2.950095177E0,-9.006437659E-1,-8.170316219E-1
1.931714282E1,1.240666389E0,-2.049451321E-1,-1.735695958E0
1.933380876E1,-3.805687428E-1,6.334667802E-1,-2.210185051E0
1.935047469E1,-1.626045704E0,1.116889834E0,-2.170402527E0
1.936714063E1,-2.533027172E0,1.133459568E0,-1.625205755E0
1.938380657E1,-2.885954380E0,5.027416945E-1,-7.617483735E-1
1.940047250E1,-2.827616692E0,-8.928552270E-1,5.340485573E-1
1.941713844E1,-2.658101797E0,-2.428111076E0,2.239812136E0
1.943380438E1,-3.020344496E0,-3.876929760E0,4.286896229E0
1.945047032E1,-4.123108387E0,-5.029784203E0,6.991729259E0
1.946713626E1,-5.034441948E0,-6.215930939E0,1.109177685E1
1.948380219E1,-4.386696339E0,-6.337110996E0,1.435119915E1
1.950046813E1,-3.690310478E0,-2.558759928E0,1.357708073E1
1.951713407E1,-5.827039242E0,3.744448423E0,8.037301064E0
1.953380000E1,-5.525653839E0,6.697063446E0,1.786397696E0
1.955046594E1,-1.605352640E0,3.287445068E0,-9.618065953E-1
1.956713188E1,1.732488871E0,-1.696066022E0,-3.507127464E-1
1.958379782E1,2.736674309E0,-3.868377686E0,1.072144032E0
1.960046376E1,2.335717916E0,-3.623115301E0,1.540066481E0
1.961712969E1,1.321835041E0,-2.299829483E0,1.308014154E0
1.963379563E1,1.964693815E-1,-9.992220402E-1,7.866411209E-1
1.965046157E1,-5.778780580E-1,-2.677878439E-1,6.009382382E-2
1.966712750E1,-7.879391909E-1,6.307178736E-2,-4.046979249E-1
1.968379344E1,-4.878518879E-1,4.088212550E-1,-2.761108875E-1
1.970045938E1,2.519817278E-2,4.218021333E-1,9.598212689E-2
1.971712532E1,6.039161682E-1,-3.130682046E-3,3.723220825E-1
1.973379126E1,1.225394726E0,-6.182715297E-1,3.874409795E-1
1.975045719E1,1.864359260E0,-1.142240763E0,1.801287532E-1
1.976712313E1,2.372751474E0,-1.360854030E0,-1.835648715E-1
1.978378907E1,2.550742149E0,-1.172478557E0,-5.829941034E-1
1.980045500E1,2.367482901E0,-7.147117853E-1,-7.977130413E-1
1.981712094E1,1.865657449E0,-1.960875988E-1,-7.663298845E-1
1.983378688E1,1.317100763E0,1.259908639E-2,-5.689441562E-1
1.985045282E1,1.145905972E0,-4.748710096E-1,-3.830122054E-1
1.986711876E1,1.079703450E0,-8.956041336E-1,-3.509418070E-1
1.988378469E1,4.754055142E-1,-4.308123887E-1,-1.169042438E-1
1.990045063E1,-3.451386094E-1,2.612974048E-1,-1.629481763E-1
1.991711657E1,-4.190532267E-1,9.860121012E-1,-1.230587125E0
1.993378250E1,4.903717041E-1,1.985463262E0,-2.671617031E0
1.995044844E1,1.725463986E0,2.529285669E0,-3.542328596E0
1.996711438E1,2.565402985E0,2.539441347E0,-3.850280762E0
1.998378032E1,3.070435524E0,2.396269798E0,-3.872959137E0
2.000044626E1,3.553095102E0,2.116722822E0,-3.589059591E0
2.001711219E1,4.117992401E0,1.680259943E0,-3.349066257E0
2.003377813E1,4.664181709E0,1.151480079E0,-3.341812134E0
2.005044407E1,5.021155834E0,6.101775765E-1,-3.473911524E0
2.006711000E1,5.153026104E0,1.725693047E-1,-3.566992044E0
2.008377594E1,5.049102783E0,-9.987638891E-2,-3.581729174E0
2.010044188E1,4.786125660E0,-2.765690386E-1,-3.540572166E0
2.011710782E1,4.399066448E0,-3.859138191E-1,-3.411374331E0
2.013377376E1,3.861428976E0,-4.846448302E-1,-3.269119263E0
2.015043969E1,3.267973900E0,-5.975021124E-1,-3.190852165E0
2.016710563E1,2.694982767E0,-6.536253095E-1,-3.145190001E0
2.018377157E1,2.108476162E0,-5.488619804E-1,-3.090059519E0
2.020043750E1,1.576565623E0,-3.039052188E-1,-3.045466423E0
2.021710344E1,1.160719395E0,8.452841640E-2,-3.091510296E0
2.023376938E1,6.945532560E-1,6.709585786E-1,-3.238652229E0
2.025043532E1,-2.249509543E-1,1.591455460E0,-3.252625942E0
2.026710126E1,-1.883754253E0,2.820057154E0,-2.607934475E0
2.028376719E1,-3.985281706E0,3.760330915E0,-7.324268818E-1
2.030043313E1,-5.552379131E0,3.405265808E0,2.313192129E0
2.031709907E1,-5.779620647E0,1.220431447E0,5.505953312E0
2.033376500E1,-4.105698586E0,-2.330143690E0,6.612229347E0
2.035043094E1,-6.029998660E-1,-5.222741127E0,5.641107082E0
2.036709688E1,1.607490659E0,-5.168679714E0,4.414566994E0
2.038376282E1,1.508377910E0,-2.613890409E0,3.389077902E0
2.040042876E1,6.814960241E-1,7.770199776E-1,2.654207468E0
2.041709469E1,-2.209039778E-1,3.092197418E0,2.322889566E0
2.043376063E1,-7.932079434E-1,3.906556606E0,2.281503677E0
2.045042657E1,-1.070693254E0,3.499186277E0,2.311665058E0
2.046709250E1,-6.228529811E-1,1.783572435E0,2.232100010E0
2.048375844E1,1.164461017E0,-2.344651699E0,1.587255716E0
2.050042438E1,3.181078434E-1,-2.586019754E0,1.745546103E0
2.051709032E1,-5.361102223E-1,1.091920808E-1,2.673755169E0
2.053375626E1,-6.123919487E-1,5.126682520E-1,2.600985765E0
2.055042219E1,-4.313468933E-1,4.273762703E-1,1.661934018E0
2.056708813E1,3.673588037E-1,-2.777907550E-1,7.298306823E-1
2.058375407E1,2.000200272E0,-1.743789911E0,3.373500705E-1
2.060042000E1,3.352044106E0,-2.357938051E0,1.366809905E-1
2.061708594E1,3.871966362E0,-1.774256706E0,-1.896735132E-1
2.063375188E1,3.911520004E0,-8.040507436E-1,-6.617956161E-1
2.065041782E1,3.786903381E0,-4.573849961E-2,-1.176143765E0
2.066708376E1,3.845317364E0,-5.963567272E-2,-1.057712317E0
2.068374969E1,4.005669594E0,-9.970840216E-1,-6.220130324E-1
2.070041563E1,3.741164923E0,-2.538295984E0,1.037706509E-1
2.071708157E1,3.036456108E0,-3.387168884E0,1.850920320E-1
2.073374750E1,2.003407478E0,-2.715293884E0,-7.163153291E-1
2.075041344E1,5.132791400E-1,-9.422588944E-1,-1.911014080E0
2.076707938E1,-1.090088248E0,1.203556299E0,-2.927722216E0
2.078374532E1,-2.187583208E0,2.849989653E0,-3.611967087E0
2.080041126E1,-2.619006395E0,4.020788193E0,-3.809123755E0
2.081707719E1,-2.492786407E0,4.946477413E0,-3.470704556E0
2.083374313E1,-2.052658319E0,5.672108650E0,-2.719569921E0
2.085040907E1,-1.491120934E0,6.167748928E0,-1.912006736E0
2.086707500E1,-7.908408046E-1,6.175919056E0,-1.323133111E0
2.088374094E1,-1.886045001E-2,5.859643936E0,-9.452368617E-1
2.090040688E1,6.243801713E-1,5.470065117E0,-6.001746655E-1
2.091707282E1,8.875101805E-1,5.257407665E0,-2.176969349E-1
2.093373876E1,6.104829907E-1,5.415621758E0,-2.145662531E-2
2.095040469E1,9.208786488E-2,5.437994480E0,9.216422588E-2
2.096707063E1,-5.161807537E-1,5.169366837E0,1.702021956E-1
2.098373657E1,-1.063973784E0,4.648070335E0,2.989419401E-1
2.100040250E1,-1.310839415E0,4.008265495E0,4.810560048E-1
2.101706844E1,-1.205923438E0,3.374951601E0,6.932551861E-1
2.103373438E1,-7.969494462E-1,2.871904373E0,1.017624378E0
2.105040032E1,-5.061778426E-1,2.557690859E0,1.248149514E0
2.106706626E1,-5.296197534E-1,2.517679214E0,1.213940978E0
2.108373219E1,-7.897717953E-1,2.422078848E0,1.202410936E0
2.110039813E1,-1.076191068E0,2.113515854E0,1.060461283E0
2.111706407E1,-1.284495950E0,1.837786674E0,7.683915496E-1
2.113373000E1,-1.397047758E0,1.855349064E0,5.735256672E-1
2.115039594E1,-1.374369383E0,2.208276272E0,5.355756879E-1
2.116706188E1,-1.300454736E0,2.671998978E0,6.318632364E-1
2.118372782E1,-1.320765972E0,2.866712093E0,8.099303246E-1
2.120039376E1,-1.432936072E0,2.676885843E0,9.038507938E-1
2.121705969E1,-1.465006471E0,2.311665058E0,8.197805285E-1
2.123372563E1,-1.270980477E0,1.914526582E0,5.997164845E-1
2.125039157E1,-1.006094337E0,1.750280261E0,4.076758921E-1
2.126705750E1,-8.326086998E-1,1.569998860E0,3.752236962E-1
2.128372344E1,-6.695078015E-1,1.367191792E0,4.503600597E-1
2.130038938E1,-4.711294472E-1,1.423849463E0,5.853611827E-1
2.131705532E1,4.970912263E-2,1.932012558E0,5.862011313E-1
2.133372126E1,8.123738170E-1,1.878485560E0,5.244274139E-1
2.135038719E1,1.118340731E0,1.109864950E0,5.245801210E-1
2.136705313E1,1.203556299E0,6.601921320E-1,4.517345130E-1
2.138371907E1,1.419802427E0,4.362338185E-1,4.674642682E-1
2.140038500E1,1.821675181E0,1.421024203E-1,5.235111117E-1
2.141705094E1,2.506607294E0,1.546251476E-1,4.806742370E-1
2.143371688E1,3.025307894E0,3.761399984E-1,5.172497630E-1
2.145038282E1,2.927187681E0,4.734965563E-1,7.851903439E-1
2.146704876E1,2.511112452E0,1.740200967E-1,9.857830405E-1
2.148371469E1,2.342437267E0,-4.237874225E-2,8.695660233E-1
2.150038063E1,2.588157654E0,-4.003455043E-1,6.417897940E-1
2.151704657E1,2.896873474E0,-7.835104465E-1,3.510945439E-1
2.153371250E1,3.079903841E0,-8.872811198E-1,-1.007926911E-1
2.155037844E1,3.121519089E0,-5.752055645E-1,-4.386772811E-1
2.156704438E1,3.022864342E0,-4.581485689E-2,-5.227475166E-1
2.158371032E1,2.677038431E0,3.072649837E-1,-3.100138903E-1
2.160037626E1,2.196898937E0,2.554942071E-1,-1.185841262E-1
2.161704219E1,1.771431446E0,4.199695215E-2,-2.733619884E-2
2.163370813E1,1.460730433E0,-3.325395286E-1,-1.728747338E-1
2.165037407E1,1.548313141E0,-4.315759540E-1,-3.883572817E-1
2.166704000E1,1.805487156E0,-1.585957706E-1,-4.048506320E-1
2.168370594E1,1.773722291E0,1.455385387E-1,-2.971857190E-1
2.170037188E1,1.425147533E0,3.945422769E-1,-2.287688553E-1
2.171703782E1,9.786817431E-1,5.437459946E-1,-2.043342739E-1
2.173370376E1,6.194168925E-1,5.492438078E-1,-2.331212759E-1
2.175036969E1,4.925097227E-1,4.308123887E-1,-3.182605505E-1
2.176703563E1,5.844448805E-1,4.205040336E-1,-3.621664643E-1
2.178370157E1,6.338485479E-1,5.571850538E-1,-2.564104795E-1
2.180036750E1,5.669588447E-1,6.360629797E-1,2.748891525E-2
2.181703344E1,5.523744822E-1,4.115701318E-1,3.058141768E-1
2.183369938E1,6.525563002E-1,-2.246455252E-1,3.716348708E-1
2.185036532E1,6.704241037E-1,-7.704532146E-1,1.568395346E-1
2.186703126E1,5.991056561E-1,-6.815723777E-1,-1.409570426E-1
2.188369719E1,4.184423685E-1,-2.369391769E-1,-3.022253513E-1
2.190036313E1,3.165042996E-1,2.689332068E-1,-2.746600807E-1
2.191702907E1,2.846629918E-1,5.191587210E-1,-1.626427472E-1
2.193369500E1,3.095557392E-1,3.648389876E-1,-4.482220486E-2
2.195036094E1,3.126864135E-1,1.275943816E-1,6.291907281E-2
2.196702688E1,2.547306120E-1,-6.116283685E-2,2.771798894E-2
2.198369282E1,1.927278340E-1,-1.765399277E-1,-7.528908551E-2
2.200035876E1,1.261435747E-1,-1.243109852E-1,-1.740200967E-1
2.201702469E1,2.412915789E-2,4.894553870E-2,-1.373682171E-1
2.203369063E1,-3.810269013E-2,3.661370873E-1,-6.475166976E-2
2.205035657E1,-8.788817376E-2,7.006618977E-1,-3.917170316E-2
2.206702250E1,-1.716530025E-1,9.233984947E-1,-1.817322709E-2
2.208368844E1,-2.210566849E-1,9.231693745E-1,-2.970330045E-2
2.210035438E1,-1.680641770E-1,8.033635616E-1,-5.345066893E-4
2.211702032E1,-7.506000996E-2,5.721512437E-1,8.025235683E-2
2.213368626E1,-3.733910993E-2,2.415206581E-1,2.383899838E-1
2.215035219E1,-3.260490671E-2,-1.616500914E-1,4.086685479E-1
2.216701813E1,2.466366626E-2,-5.284743905E-1,5.311469436E-1
2.218368407E1,1.563813835E-1,-7.607557178E-1,5.619956255E-1
2.220035000E1,2.267835438E-1,-7.871756554E-1,4.988474548E-1
2.221701594E1,1.918879002E-1,-6.322450638E-1,3.450622559E-1
2.223368188E1,1.275180280E-1,-3.465130329E-1,1.811977625E-1
2.225034782E1,-3.413207084E-2,-8.857539296E-2,8.849903196E-2
2.226701376E1,-2.404516488E-1,-1.572976820E-2,8.399390429E-2
2.228367969E1,-3.768272102E-1,-1.220965981E-1,1.683696061E-1
2.230034563E1,-5.288561583E-1,-4.408916533E-1,3.344484568E-1
2.231701157E1,-7.856484652E-1,-7.705295682E-1,4.980838597E-1
2.233367750E1,-9.687551856E-1,-1.044426084E0,5.522981286E-1
2.235034344E1,-8.927788734E-1,-1.319697022E0,4.234820008E-1
2.236700938E1,-5.040398240E-1,-7.687733173E-1,9.170607477E-2
2.238367532E1,-2.598465979E-1,-8.223766834E-2,-1.219438836E-1
2.240034126E1,-3.308596313E-1,2.199113183E-2,-6.421715766E-2
2.241700719E1,-3.915643096E-1,-1.557705253E-1,6.017018110E-2
2.243367313E1,-2.906189263E-1,-2.913061380E-1,9.758564830E-2
2.245033907E1,-8.315397054E-2,-3.541488647E-1,8.292489499E-2
2.246700500E1,5.681042373E-2,-3.705658615E-1,8.177952468E-2
2.248367094E1,1.061377525E-1,-3.428478539E-1,8.926261961E-2
2.250033688E1,1.847866029E-1,-2.901607752E-1,5.971203372E-2
2.251700282E1,3.447568119E-1,-4.167625010E-1,4.917461425E-2
2.253366876E1,5.714640021E-1,-6.562978625E-1,9.086613357E-2
2.255033469E1,7.007382512E-1,-7.538071275E-1,1.653152853E-1
2.256700063E1,6.924915910E-1,-6.670643687E-1,2.156352699E-1
2.258366657E1,5.125155449E-1,-5.602393746E-1,2.545779049E-1
2.260033250E1,1.778380126E-1,-5.286270976E-1,3.072649837E-1
2.261699844E1,-9.735657275E-2,-6.236165762E-1,3.154352903E-1
2.263366438E1,-1.870773435E-1,-6.865356565E-1,2.643517256E-1
2.265033032E1,-1.453094631E-1,-5.771908760E-1,1.540906429E-1
2.266699626E1,-1.009454057E-1,-3.497964442E-1,6.101011857E-2
2.268366219E1,-1.965457499E-1,-1.356119812E-1,3.046688065E-2
2.270032813E1,-4.380663931E-1,-8.643736690E-2,4.749473557E-2
2.271699407E1,-7.323505282E-1,-1.544724256E-1,6.268999726E-2
2.273366000E1,-9.425643682E-1,-2.905425727E-1,4.451677203E-2
2.275032594E1,-1.085659385E0,-6.056724191E-1,-3.428478539E-2
2.276699188E1,-1.215010047E0,-3.183369040E-1,-8.040507883E-2
2.278365782E1,-1.444160700E0,3.310887218E-1,-5.299251899E-2
2.280032376E1,-1.701640248E0,2.944368124E-1,-1.427896414E-2
2.281698969E1,-1.776165724E0,1.113301069E-1,1.664606482E-2
2.283365563E1,-1.658803344E0,8.567378670E-2,1.427896414E-2
2.285032157E1,-1.406821609E0,1.246927753E-1,2.183841541E-2
2.286698750E1,-1.172020435E0,-3.130682046E-3,6.322450191E-2
2.288365344E1,-1.028161764E0,-2.415206581E-1,5.757400393E-2
2.290031938E1,-1.039768219E0,-2.742019296E-1,-1.034652218E-1
2.291698532E1,-1.210886717E0,1.527161989E-2,-2.602283955E-1
2.293365126E1,-1.361464858E0,6.389645338E-1,-3.080285788E-1
2.295031719E1,-1.326645613E0,1.091462612E0,-3.347539008E-1
2.296698313E1,-1.024878383E0,1.061377525E0,-3.301724195E-1
2.298364907E1,-5.848266482E-1,8.591812849E-1,-3.089448512E-1
2.300031500E1,-1.543960720E-1,7.661771774E-1,-2.950477004E-1
2.301698094E1,1.420260668E-1,6.110175252E-1,-2.181550860E-1
2.303364688E1,2.399934977E-1,3.252091408E-1,-4.497491941E-2
2.305031282E1,1.866955459E-1,7.735075057E-2,6.230820715E-2
2.306697876E1,1.375209391E-1,1.075885594E-1,1.763872057E-2
2.308364469E1,9.117157012E-2,2.468657345E-1,-6.169734150E-2
2.310031063E1,6.101011857E-2,4.334849119E-1,-1.453858167E-1
2.311697657E1,7.620538026E-2,5.474112034E-1,-1.834121495E-1
2.313364250E1,3.237583488E-2,5.259546041E-1,-1.955530941E-1
2.315030844E1,-4.703658819E-2,6.988292933E-1,-2.858847082E-1
2.316697438E1,-5.268708616E-2,9.095013142E-1,-4.004218578E-1
2.318364032E1,-3.741546767E-3,1.003727198E0,-4.415788651E-1
2.320030626E1,7.933606207E-2,9.450078011E-1,-3.171915412E-1
2.321697219E1,1.298851222E-1,7.089085579E-1,-1.489746422E-1
2.323363813E1,8.025235683E-2,5.396226645E-1,-3.596466407E-2
2.325030407E1,-6.505709887E-2,4.686096311E-1,4.352411628E-2
2.326697000E1,-2.351065874E-1,4.894554019E-1,4.764745384E-2
2.328363594E1,-2.285397798E-1,4.376082420E-1,1.007926930E-2
2.330030188E1,-1.376736462E-1,3.174969554E-1,-2.122755162E-2
2.331696782E1,-7.574722916E-2,3.334558010E-1,-7.047852129E-2
2.333363376E1,-3.726275265E-2,4.392117858E-1,-1.250745654E-1
2.335029969E1,-5.345066893E-4,5.263363719E-1,-1.566104591E-1
2.336696563E1,4.207331315E-2,5.477929711E-1,-1.479056329E-1
2.338363157E1,9.636391699E-2,5.207622051E-1,-1.310304999E-1
2.340029750E1,1.508072466E-1,4.870119393E-1,-1.440113783E-1
2.341696344E1,1.590539217E-1,5.776489973E-1,-1.808923334E-1
2.343362938E1,8.697187155E-2,7.528144717E-1,-2.224311382E-1
2.345029532E1,-4.008036554E-1,9.346231222E-1,-1.542433500E-1
2.346696126E1,-6.128500700E-1,4.516581595E-1,-8.437569439E-2
2.348362719E1,-5.058723688E-1,8.177952468E-2,-1.063668281E-1
2.350029313E1,-3.672824502E-1,3.214675933E-2,-1.863137633E-1
2.351695907E1,-3.301724195E-1,6.604975462E-2,-2.012035847E-1
