"Time (s)","Linear Acceleration x (m/s^2)","Linear Acceleration y (m/s^2)","Linear Acceleration z (m/s^2)"
4.576375500E-2,0.000000000E0,0.000000000E0,0.000000000E0
6.242969200E-2,-4.409909248E-2,-1.883029938E-3,-1.091647148E-1
7.909563000E-2,-8.955192566E-2,3.872871399E-2,-1.757912636E-1
9.576156700E-2,-1.621930599E-1,3.649711609E-2,-1.870441437E-2
1.124275050E-1,-1.177115440E-1,-7.322359085E-2,4.351482391E-1
1.290934420E-1,-6.605815887E-2,-8.919095993E-2,5.435914993E-1
1.457593800E-1,-5.568718910E-2,-9.779357910E-2,3.531026840E-1
1.624253170E-1,-1.030774117E-1,-6.398677826E-3,1.694850922E-1
1.790912550E-1,-1.047234535E-1,5.271339417E-2,1.969842911E-1
1.957571920E-1,-1.680302620E-2,6.847810745E-2,-7.924461365E-2
2.124231300E-1,4.785323143E-2,1.381440163E-1,-2.792520523E-1
2.290890670E-1,2.771997452E-2,1.043105125E-1,-2.986979485E-1
2.457550050E-1,1.707077026E-3,6.412982941E-2,1.484584808E-2
2.624209420E-1,-6.633305550E-2,4.042148590E-3,1.424837112E-1
2.790868800E-1,-1.569912434E-1,-4.432344437E-2,2.397699356E-1
2.957528170E-1,-1.810903549E-1,2.254104614E-2,1.531486511E-1
3.124187550E-1,-2.884936333E-2,-2.956676483E-2,-6.574249268E-2
3.290846920E-1,1.179239750E-1,-5.385732651E-2,-6.815052032E-2
3.457506300E-1,4.285264015E-2,6.917333603E-2,-1.502590179E-1
3.624165670E-1,2.896070480E-3,-5.039834976E-2,-1.979522705E-1
3.790825050E-1,-5.151414871E-2,1.835584641E-2,-1.913285255E-1
3.957484420E-1,2.615499496E-2,-5.443143845E-2,-1.626219749E-1
4.124143800E-1,8.392596245E-2,-1.012983322E-1,-2.129917145E-1
4.290803170E-1,4.584336281E-2,3.053045273E-2,7.883071899E-3
4.457462550E-1,3.002190590E-2,3.564310074E-2,-7.904815674E-2
4.624121920E-1,5.314588547E-3,1.487970352E-2,-1.189136505E-1
4.790781300E-1,-3.021907806E-2,-3.030729294E-2,-5.826854706E-2
4.957440670E-1,-3.476333618E-2,-8.485031128E-2,-5.317497253E-2
5.124100050E-1,3.711223602E-3,-4.757165909E-2,6.364536285E-2
5.290759420E-1,-2.366924286E-2,-7.379722595E-2,1.318264008E-1
5.457418800E-1,-9.881782532E-2,-5.032014847E-2,1.017541885E-1
5.624078170E-1,-6.073093414E-2,-3.324270248E-2,-2.452182770E-2
5.790737550E-1,-2.927207947E-2,-5.429458618E-2,-1.346778870E-1
5.957396920E-1,-4.883146286E-2,-4.111003876E-2,-8.713722229E-2
6.124056300E-1,1.011848450E-3,-1.382889748E-1,-1.681995392E-2
6.290715670E-1,-2.708911896E-2,-1.476311684E-1,-5.990219116E-2
6.457375050E-1,-1.586868763E-1,-4.121351242E-2,-8.488082886E-2
6.624034420E-1,-1.802363396E-1,-4.576158524E-2,-1.297864914E-1
6.790693800E-1,-6.961297989E-2,-1.222066879E-1,2.468109131E-3
6.957353170E-1,1.959562302E-2,-1.461615562E-1,2.487201691E-1
7.124012550E-1,2.557945251E-2,-6.293344498E-2,2.158174515E-1
7.290671920E-1,7.050752640E-2,2.272415161E-2,-4.859828949E-2
7.457331300E-1,6.854701042E-2,1.015214920E-1,-3.278274536E-1
7.623990670E-1,1.059627533E-2,1.626791954E-1,-4.428687096E-1
7.790650050E-1,-1.785206795E-2,1.924295425E-1,-2.936058044E-1
7.957309420E-1,-4.574751854E-2,1.784319878E-1,-1.312255859E-1
8.123968800E-1,-1.506812572E-1,2.465195656E-1,-9.236431122E-2
8.290628170E-1,-2.331676483E-1,2.499122620E-1,-5.098915100E-2
8.457287550E-1,-2.074460983E-1,1.805014610E-1,1.235036850E-1
8.623946920E-1,-1.806173325E-1,1.719465256E-1,1.781177521E-2
8.790606300E-1,-1.195967197E-1,2.030925751E-1,-1.055679321E-1
8.957265670E-1,-1.917591095E-1,2.582359314E-1,-2.303733826E-1
9.123925050E-1,-2.271344662E-1,2.158308029E-1,-2.671079636E-1
9.290584420E-1,-2.452621460E-1,1.903414726E-1,-2.821006775E-1
9.457243800E-1,-2.122833729E-1,2.023334503E-1,-2.785272598E-1
9.623903170E-1,-1.452789307E-1,2.454085350E-1,-3.468036652E-1
9.790562550E-1,-3.513646126E-2,2.254786491E-1,-4.086170197E-1
9.957221920E-1,-2.770519257E-2,8.870315552E-2,-5.692291260E-1
1.012388130E0,-2.103950977E-1,4.218363762E-2,-7.684187889E-1
1.029054067E0,-3.660635948E-1,3.060073853E-1,-5.863876343E-1
1.045720005E0,-4.789750576E-1,5.211806297E-2,-8.537173271E-1
1.062385942E0,-2.325863838E-1,1.987795830E-1,-4.829025269E-1
1.079051880E0,2.282798290E-1,-1.778364182E-3,2.572879791E-1
1.095717817E0,6.433335543E-1,-1.993644238E-1,7.235021591E-1
1.112383755E0,4.968394041E-1,1.083467007E-1,6.475782394E-1
1.129049692E0,1.945310831E-1,1.194438934E-1,9.553976059E-1
1.145715630E0,1.158142090E-1,-4.366064072E-2,1.048811913E0
1.162381567E0,2.251454592E-1,-2.849729061E-1,3.548431396E-1
1.179047505E0,2.548639774E-1,-1.023000479E-1,-2.712755203E-1
1.195713442E0,4.473876953E-2,8.470273018E-2,-5.979032516E-1
1.212379380E0,-1.904510260E-1,1.463081837E-1,-3.923511505E-1
1.229045317E0,-1.258544922E-1,1.917769909E-1,-4.446830750E-1
1.245711255E0,2.208852768E-2,5.331039429E-1,-1.113929749E-1
1.262377192E0,2.610075474E-1,5.746856928E-1,4.090986252E-1
1.279043130E0,3.873894811E-1,5.089573562E-2,5.996847153E-1
1.295709067E0,4.030504823E-1,-5.427297354E-1,1.507205963E-1
1.312375005E0,5.041190386E-1,-7.204908133E-1,4.114913940E-1
1.329040942E0,3.803256750E-1,-3.826154470E-1,1.301644325E0
1.345706880E0,-9.808614850E-2,2.139502764E-1,1.075760841E0
1.362372817E0,-3.849699199E-1,2.955334187E-1,1.226137161E0
1.379038755E0,-1.712886393E-1,-2.940514088E-1,2.100924492E0
1.395704692E0,-5.956141651E-2,-6.793838739E-1,1.904939651E0
1.412370630E0,1.233739965E-2,-1.226689816E0,2.060992241E0
1.429036567E0,9.511417150E-1,-2.147168636E0,1.770267487E-1
1.445702505E0,1.892250538E0,-2.511129141E0,-2.612230778E0
1.462368442E0,2.412216663E0,-2.338107109E0,-3.189857006E0
1.479034380E0,2.063829899E0,-1.744993448E0,-2.497701645E0
1.495700317E0,3.199058771E-1,-2.182233334E-1,-1.983737946E-1
1.512366255E0,-2.299602032E0,7.714748383E-3,1.947779655E0
1.529032192E0,-2.994081974E0,4.185093403E0,-4.078216553E-1
1.545698130E0,4.182512760E-1,1.519290566E0,-8.834896088E-1
1.562364067E0,5.883380771E-1,-1.600407362E0,-8.167791367E-1
1.579030005E0,-8.158957958E-1,-9.256520271E-1,5.374383926E-1
1.595695942E0,-4.389520884E-1,2.334443033E-1,2.947139740E-1
1.612361880E0,-8.078747988E-2,2.320666909E-1,-8.145856857E-1
1.629027817E0,3.415313065E-1,-2.692754865E-1,-8.602800369E-1
1.645693755E0,1.582404971E-1,-7.688896358E-2,-5.386657715E-1
1.662359692E0,7.797515392E-2,9.508157521E-2,-2.640008926E-1
1.679025630E0,1.087098718E-1,-2.279647253E-2,-2.305192947E-1
1.695691567E0,1.538930535E-1,-3.997000158E-1,2.153873444E-1
1.712357505E0,1.002289653E-1,-6.315997839E-1,1.204835892E0
1.729023442E0,-1.415842772E-1,-2.877758443E-1,1.079316139E0
1.745689380E0,-1.612642407E-1,-3.836715221E-2,1.746482849E-1
1.762355317E0,1.782872677E-1,-6.867372990E-2,-2.493486404E-1
1.779021255E0,2.584182024E-1,-2.689352632E-1,9.104824066E-2
1.795687192E0,-1.581555605E-2,-2.206522226E-1,7.089042664E-2
1.812353130E0,-3.615385294E-1,-1.595634222E-2,2.091407776E-2
1.829019067E0,-5.601021647E-1,1.941032410E-1,7.872676849E-2
1.845685005E0,-3.798611164E-1,1.503902078E-1,1.418523788E-1
1.862350942E0,3.948932886E-2,1.180167794E-1,1.523313522E-1
1.879016880E0,2.821294665E-1,1.244299412E-1,5.028343201E-2
1.895682817E0,3.775875568E-1,1.309825182E-1,1.241512299E-1
1.912348755E0,1.596469879E-1,9.543120861E-2,-1.151905060E-1
1.929014692E0,-1.205694079E-1,3.935348988E-2,1.612091064E-2
1.945680630E0,-6.313235760E-1,1.885820627E-1,2.999238968E-1
1.962346567E0,-3.356603384E-1,2.063895464E-1,1.216020584E-1
1.979012505E0,-8.650362492E-2,5.581951141E-2,-4.621887207E-2
1.995678442E0,-9.611517191E-3,-3.187298775E-3,-1.399078369E-1
2.012344380E0,-9.076997638E-2,9.070944786E-2,-2.989683151E-1
2.029010317E0,-2.544581890E-3,-3.676271439E-2,-1.774024963E-1
2.045676255E0,4.579973221E-2,-7.796013355E-2,-1.469688416E-1
2.062342192E0,-4.598081112E-3,-1.193858385E-1,-1.615924835E-1
2.079008130E0,1.751384139E-2,-1.072692871E-2,-9.624195099E-2
2.095674067E0,1.401645243E-1,-9.007096291E-3,1.824378967E-2
2.112340005E0,2.178334743E-1,-4.547369480E-2,9.888458252E-2
2.129005942E0,1.631857902E-1,-3.554487228E-2,-1.170892715E-1
2.145671880E0,1.056340039E-1,-1.016209126E-1,-1.635894775E-1
2.162337817E0,4.492998123E-3,-7.240235806E-2,-1.160507202E-1
2.179003755E0,-2.473938763E-1,-7.690191269E-3,-4.647178650E-1
2.195669692E0,-2.092192471E-1,6.388711929E-2,-5.916433334E-1
2.212335630E0,-8.598652482E-2,-4.981279373E-2,-3.481588364E-1
2.229001567E0,3.306090832E-2,-1.828155518E-1,-9.346675873E-2
2.245667505E0,3.617560863E-2,-1.402873993E-1,2.151403427E-1
2.262333442E0,-3.226412833E-2,-1.971517801E-1,1.814460754E-2
2.278999380E0,-1.100463420E-1,-1.251313686E-1,1.065740585E-1
2.295665317E0,-5.383202434E-2,-1.232196093E-1,9.179592133E-2
2.312331255E0,-9.926851094E-2,-7.913362980E-2,1.503086090E-2
2.328997192E0,-6.107167900E-2,1.650142670E-2,-2.928133011E-1
2.345663130E0,1.047805771E-1,4.276072979E-2,-5.767631531E-2
2.362329067E0,1.309891641E-1,-1.715230942E-2,1.650972366E-1
2.378995005E0,1.761299819E-1,-1.035225391E-1,4.452362061E-1
2.395660942E0,2.862536907E-2,-1.460063457E-1,2.990531921E-1
2.412326880E0,-6.334921718E-2,-1.289319992E-1,5.661134720E-1
2.428992817E0,-1.499198973E-1,-1.405056715E-1,6.433048248E-1
2.445658755E0,-1.255017519E-1,-2.394437790E-2,8.282461166E-1
2.462324692E0,1.475070417E-1,-2.059811354E-1,-3.978300095E-1
2.478990630E0,2.505461574E-1,-2.185058594E-1,-5.182666779E-1
2.495656567E0,1.656013727E-1,6.696963310E-2,-1.801099777E-1
2.512322505E0,2.286308408E-1,1.177742481E-1,2.224349976E-2
2.528988442E0,3.450703621E-1,1.202440262E-2,-2.040767670E-2
2.545654380E0,3.789859712E-1,-1.296541691E-1,-2.190885544E-1
2.562320317E0,4.401379526E-1,-2.082228661E-1,-4.122219086E-1
2.578986255E0,1.877661645E-1,-1.353921890E-1,-5.684614182E-1
2.595652192E0,-7.946351767E-1,5.433528423E-1,-8.524370193E-1
2.612318130E0,-1.370479107E0,8.796796799E-1,-5.166406631E-1
2.628984067E0,-1.003562570E0,4.396178722E-1,-5.330610275E-1
2.645650005E0,-3.881524801E-1,1.828169823E-2,-4.820528030E-1
2.662315942E0,-4.910880327E-2,-5.197525024E-5,-2.814369202E-1
2.678981880E0,3.302550316E-2,-4.450058937E-2,-1.942014694E-1
2.695647817E0,4.107761383E-2,-1.221361160E-1,-1.775836945E-2
2.712313755E0,-9.907689691E-2,-1.313829422E-1,1.908464432E-1
2.728979692E0,-2.543400824E-1,-1.590831280E-1,3.990364075E-1
2.745645630E0,-2.649067342E-1,-1.417627335E-1,4.002075195E-1
2.762311567E0,-3.029181957E-1,-6.743550301E-2,1.012239456E-1
2.778977505E0,-1.741771102E-1,-1.490521431E-2,-1.053609848E-1
2.795643442E0,-1.104298830E-1,-1.067352295E-1,-7.838153839E-2
2.812309380E0,-1.526835561E-1,-2.209339142E-1,2.706937790E-1
2.828975317E0,-3.283394575E-1,-3.140084743E-1,2.037277222E-1
2.845641255E0,-4.186802804E-1,-1.789491177E-1,2.350158691E-1
2.862307192E0,-3.518863320E-1,2.956151962E-3,1.047439575E-1
2.878973130E0,-1.216536164E-1,2.799367905E-2,7.623386383E-2
2.895639067E0,-5.869489908E-2,6.836533546E-2,-2.127218246E-1
2.912305005E0,-3.436863422E-2,1.059117317E-1,-1.069078445E-1
2.928970942E0,-4.486584663E-2,6.201243401E-2,-2.632713318E-2
2.945636880E0,-1.647969484E-1,-6.815195084E-3,1.871957779E-1
2.962302817E0,-1.700755954E-1,-5.992126465E-2,3.763113022E-1
2.978968755E0,1.088202000E-1,-4.138207436E-2,5.851554871E-1
2.995634692E0,3.819942474E-1,-3.399848938E-2,4.144248962E-1
3.012300630E0,2.952281237E-1,-6.060671806E-2,7.838058472E-2
3.028966567E0,2.247109413E-1,6.252408028E-2,2.289056778E-1
3.045632505E0,1.218749404E0,-3.412437439E-1,7.373199463E-1
3.062298442E0,5.039861202E-1,-4.465293884E-2,8.151168823E-1
3.078964380E0,-3.960707188E-1,1.111752987E-1,2.277307510E-1
3.095630317E0,-3.917287588E-1,1.229526997E-1,-1.383123398E-1
3.112296255E0,-4.019134045E-1,1.168532372E-1,-6.264400482E-2
3.128962192E0,-1.462779045E-1,1.043050289E-1,-5.112648010E-2
3.145628130E0,-1.143348217E-2,1.203520298E-1,-7.717514038E-2
3.162294067E0,8.498024940E-2,1.398131847E-1,-3.244209290E-2
3.178960005E0,3.745489120E-1,-7.922363281E-2,5.690002441E-2
3.195625942E0,4.956655502E-1,-3.264896870E-1,-3.331661224E-2
3.212291880E0,-1.011588097E0,5.235097408E-1,4.335021973E-2
3.228957817E0,-4.925401211E-1,-5.014753342E-2,-3.182878494E-1
3.245623755E0,-1.954088211E-1,4.830527306E-2,-5.253620148E-1
3.262289692E0,-1.129958630E-1,1.855731010E-1,-9.461870193E-1
3.278955630E0,-1.184644699E-1,2.484712601E-1,-8.951001167E-1
3.295621567E0,-1.448395252E-1,1.980807781E-1,-8.612203598E-1
3.312287505E0,1.090548038E-1,-4.726552963E-2,-5.608892441E-1
3.328953442E0,9.792637825E-2,-2.705407143E-1,-3.061380386E-1
3.345619380E0,-9.215915203E-1,3.329796791E-1,-3.339767456E-3
3.362285317E0,9.563803673E-2,-5.044174194E-2,8.430099487E-2
3.378951255E0,4.284775257E-1,-7.952880859E-2,1.912641525E-1
3.395617192E0,3.521132469E-2,-3.038907051E-2,1.355390549E-1
3.412283130E0,-2.822747231E-1,9.536957741E-2,1.251764297E-1
3.428949067E0,-2.748849392E-1,1.059486866E-1,3.609752655E-2
3.445615005E0,-1.048526764E-1,4.812145233E-2,-4.759407043E-2
3.462280942E0,3.395993710E-1,5.406141281E-3,-3.217220306E-2
3.478946880E0,4.506387711E-1,-3.794956207E-2,-5.726528168E-2
3.495612817E0,2.834782600E-1,-6.045484543E-2,3.853321075E-2
3.512278755E0,1.225607157E0,-2.728145123E-1,5.232076645E-1
3.528944692E0,-1.218547463E0,2.781519890E-1,3.709411621E-2
3.545610630E0,-7.013115883E-1,2.326152325E-1,-3.820056915E-1
3.562276567E0,-2.607035637E-1,1.854100227E-1,1.143283844E-1
3.578942505E0,-1.401927471E-1,1.763772964E-1,-1.152544022E-1
3.595608442E0,-1.129326820E-1,1.796474457E-1,-2.988386154E-1
3.612274380E0,3.510046005E-2,1.045489311E-1,-1.273250580E-1
3.628940317E0,1.026296616E-2,1.023492813E-1,-3.621292114E-2
3.645606255E0,6.199455261E-2,9.689617157E-2,-2.016448975E-2
3.662272192E0,1.057840824E0,-2.005329132E-1,4.495325089E-1
3.678938130E0,-8.706297874E-1,3.461582661E-1,-3.739929199E-2
3.695604067E0,-3.050062656E-1,4.498558044E-1,-3.146448135E-1
3.712270005E0,-8.423209190E-2,1.102430820E-1,-1.243419647E-1
3.728935942E0,-3.678369522E-2,2.064795494E-1,-3.497581482E-1
3.745601880E0,-3.624868393E-2,1.304783821E-1,-4.510383606E-1
3.762267817E0,-9.728479385E-2,1.056654453E-1,-2.952566147E-1
3.778933755E0,-6.576561928E-2,1.717982292E-1,-1.962108612E-1
3.795599692E0,2.460265160E-2,1.984136105E-1,3.721046448E-2
3.812265630E0,-2.140402794E-2,1.817293167E-1,2.571687698E-1
3.828931567E0,-3.210769892E-1,1.689114571E-1,5.701408386E-1
3.845597505E0,-6.035667658E-1,4.623866081E-2,7.041168213E-1
3.862263442E0,-6.432102919E-1,1.736052036E-1,6.975679398E-1
3.878929380E0,-4.599168301E-1,1.243519783E-1,4.294795990E-1
3.895595317E0,-3.368154764E-1,2.076408863E-1,1.187515259E-1
3.912261255E0,-3.179975748E-1,2.641618252E-1,-2.929058075E-1
3.928927192E0,-2.918704748E-1,2.702906132E-1,-3.824615479E-1
3.945593130E0,-1.608736515E-1,2.652871609E-1,-2.819175720E-1
3.962259067E0,-2.477347851E-1,1.996793747E-1,-1.027746201E-1
3.978925005E0,-3.388930559E-1,1.073467731E-1,2.627468109E-2
3.995590942E0,-3.239277601E-1,9.441852570E-2,2.914657593E-1
4.012256880E0,-3.215079308E-1,1.109435558E-1,3.662109375E-4
4.028922817E0,-2.760665417E-1,1.031694412E-1,-7.772035599E-1
4.045588755E0,-8.505558968E-2,1.967573166E-1,-7.622537613E-1
4.062254692E0,-7.431817055E-2,3.810639381E-1,-4.202251434E-1
4.078920630E0,-1.922991276E-1,2.367496490E-1,-4.001951218E-1
4.095586567E0,-1.337485313E-1,3.329265118E-1,8.448696136E-2
4.112252505E0,2.855539322E-1,4.777550697E-2,3.526496887E-1
4.128918442E0,3.557963371E-1,-2.861833572E-2,3.604688644E-1
4.145584380E0,5.077624321E-2,7.540154457E-2,1.944923401E-1
4.162250317E0,-7.494425774E-2,8.603835106E-2,-1.001348495E-1
4.178916255E0,-6.455373764E-2,1.250007153E-1,-2.167253494E-1
4.195582192E0,-7.382011414E-2,1.504998207E-1,-4.035768509E-1
4.212248130E0,1.534574032E-1,1.089005470E-1,-5.085992813E-1
4.228914067E0,2.346770763E-1,1.395475864E-1,-6.986026764E-1
4.245580005E0,5.420327187E-2,1.901922226E-1,-7.358980179E-1
4.262245942E0,-1.988067627E-1,2.454814911E-1,-6.814937592E-1
4.278911880E0,-3.844437599E-1,2.526373863E-1,-6.448507309E-1
4.295577817E0,-4.248828888E-1,2.248232365E-1,-6.623926163E-1
4.312243755E0,-1.300282478E-1,6.959486008E-2,-4.944982529E-1
4.328909692E0,1.389119625E-1,6.213259697E-2,-6.571464539E-1
4.345575630E0,1.484415531E-1,-1.307034492E-2,-6.967487335E-1
4.362241567E0,1.170895100E-1,2.562761307E-3,-7.801494598E-1
4.378907505E0,-2.101914883E-1,4.806828499E-2,-8.144979477E-1
4.395573442E0,-5.108914375E-1,4.925823212E-2,-8.789138794E-1
4.412239380E0,-6.370577812E-1,-5.812263489E-2,-9.564194679E-1
4.428905317E0,-5.747628212E-2,-3.088543415E-1,-8.205552101E-1
4.445571255E0,6.525781155E-1,-2.491285801E-1,-8.832964897E-1
4.462237192E0,5.031120777E-1,-1.594414711E-1,-1.317924023E0
4.478903130E0,1.543927193E-1,-1.384592056E-1,-1.461535454E0
4.495569067E0,-2.368924618E-1,-2.043852806E-1,-1.373811722E0
4.512235005E0,-2.802174091E-1,-3.561677933E-1,-1.213405132E0
4.528900942E0,3.818216324E-1,-5.404100418E-1,-1.066020489E0
4.545566880E0,8.750977516E-1,-1.612217426E-1,-1.223416805E0
4.562232817E0,9.512190819E-1,-3.293807507E-1,-1.562304020E0
4.578898755E0,9.019093513E-1,-3.112220764E-1,-1.800151825E0
4.595564692E0,7.542695999E-1,-3.442776203E-1,-1.724559307E0
4.612230630E0,5.586938858E-1,-3.729673624E-1,-1.517658710E0
4.628896567E0,5.745081902E-1,-2.803901434E-1,-1.297281742E0
4.645562505E0,7.366242409E-1,-2.983436584E-1,-1.164202213E0
4.662228442E0,1.110029221E0,-3.371968269E-1,-8.967251778E-1
4.678894380E0,1.130241394E0,-1.409132481E-1,-9.665808678E-1
4.695560317E0,9.201707840E-1,1.134728193E-1,-1.126567841E0
4.712226255E0,6.640186310E-1,5.001440048E-1,-1.048420906E0
4.728892192E0,7.442131042E-1,7.913352251E-1,-7.078804970E-1
4.745558130E0,7.601656914E-1,1.039027810E0,-1.010031700E-1
4.762224067E0,6.443586349E-1,1.159295321E0,5.710620880E-1
4.778890005E0,5.366535187E-1,1.267240763E0,1.245714664E0
4.795555942E0,4.788069725E-1,1.536123276E0,1.580944538E0
4.812221880E0,3.094739914E-1,1.820127010E0,1.628000736E0
4.828887817E0,-5.728769302E-2,1.981757641E0,1.733705521E0
4.845553755E0,-4.329419136E-1,2.086069107E0,2.194417477E0
4.862219692E0,-7.880411148E-1,2.128976107E0,2.842054844E0
4.878885630E0,-7.182812691E-1,2.106127739E0,3.549649715E0
4.895551567E0,-5.944166183E-1,2.109375238E0,3.965773582E0
4.912217505E0,-6.245298386E-1,2.309171915E0,3.908063412E0
4.928883442E0,-6.072902679E-1,2.482157230E0,3.766929626E0
4.945549380E0,-6.755151749E-1,2.653773785E0,3.940333366E0
4.962215317E0,-9.818716049E-1,2.765254974E0,4.256784916E0
4.978881255E0,-1.243294239E0,2.832234144E0,4.626059532E0
4.995547192E0,-1.080026150E0,2.807095528E0,4.710541248E0
5.012213130E0,-7.141981125E-1,2.817080498E0,4.303956032E0
5.028879067E0,-6.068615913E-1,2.760422707E0,3.655715466E0
5.045545005E0,-7.775216103E-1,2.674957275E0,3.197007656E0
5.062210942E0,-8.917856216E-1,2.437611341E0,2.976982117E0
5.078876880E0,-9.465737343E-1,2.166224003E0,2.770654202E0
5.095542817E0,-8.578724861E-1,1.899177551E0,2.280877113E0
5.112208755E0,-6.109299660E-1,1.743979216E0,1.797978878E0
5.128874692E0,-1.268649101E-1,1.458285213E0,1.430656433E0
5.145540630E0,-1.825537682E-1,1.383131266E0,1.042474747E0
5.162206567E0,1.520857811E-1,8.600701094E-1,7.777609825E-1
5.178872505E0,-2.450256348E-1,3.369121253E-1,3.606586456E-1
5.195538442E0,-9.446964264E-1,-1.033898667E-1,6.384849548E-2
5.212204380E0,-1.384768486E0,-6.343812943E-1,-2.198796272E-1
5.228870317E0,-1.470152855E0,-1.332756639E0,-6.986556053E-1
5.245536255E0,-1.555417061E0,-2.124769211E0,-1.556702137E0
5.262202192E0,-2.110210896E0,-2.880264759E0,-2.318786621E0
5.278868130E0,-3.017225266E0,-3.734034538E0,-3.232792377E0
5.295534067E0,-3.776072264E0,-4.936634064E0,-4.861520767E0
5.312200005E0,-4.489021301E0,-5.903310299E0,-6.701685905E0
5.328865942E0,-3.960963964E0,-7.028205395E0,-6.513219357E0
5.345531880E0,-2.209925652E0,-7.779877186E0,-6.067886829E0
5.362197817E0,1.440973282E-1,-8.344701767E0,-7.965586662E0
5.378863755E0,2.076043129E0,-8.235467911E0,-9.539813995E0
5.395529692E0,2.487157822E0,-7.740249634E0,-8.628096581E0
5.412195630E0,4.285726547E0,-6.945691109E0,-5.844614029E0
5.428861567E0,7.758061409E0,-6.016216278E0,-3.295242310E0
5.445527505E0,1.081052113E1,-4.548523426E0,-1.420378923E0
5.462193442E0,1.139989471E1,-2.799619198E0,3.774076700E-1
5.478859380E0,1.099125671E1,-6.734352112E-1,2.181502342E0
5.495525317E0,1.073948669E1,1.438392520E0,3.240487576E0
5.512191255E0,1.053114319E1,3.300102234E0,3.467835426E0
5.528857192E0,9.321111679E0,4.675132275E0,3.269322157E0
5.545523130E0,6.718876839E0,5.657100677E0,3.203597307E0
5.562189067E0,3.640299797E0,6.506135464E0,3.449086428E0
5.578855005E0,8.012542725E-1,7.427635670E0,3.706955433E0
5.595520942E0,-1.247243881E0,8.314203262E0,4.121715069E0
5.612186880E0,-2.446172237E0,9.085519791E0,4.317060471E0
5.628852817E0,-2.914022446E0,9.569374084E0,4.457763672E0
5.645518755E0,-2.774995327E0,1.023172379E1,4.390074253E0
5.662184692E0,-2.599962711E0,1.069554901E1,4.030481815E0
5.678850630E0,-3.345829487E0,1.076570034E1,4.204429150E0
5.695516567E0,-4.231181622E0,1.029709148E1,4.833872318E0
5.712182505E0,-4.188117504E0,9.531404495E0,5.106512070E0
5.728848442E0,-3.272334099E0,8.664408684E0,4.708965302E0
5.745514380E0,-2.281622410E0,7.896906376E0,4.375534058E0
5.762180317E0,-2.494351387E0,6.803666115E0,4.025572777E0
5.778846255E0,-3.048471928E0,5.456715584E0,3.552202463E0
5.795512192E0,-2.368893147E0,4.392566681E0,2.977451324E0
5.812178130E0,-6.651725769E-1,3.716039658E0,3.447916985E0
5.828844067E0,2.089511871E0,3.513519764E0,4.432565689E0
5.845510005E0,6.066601753E0,4.418628216E0,5.198708057E0
5.862175942E0,1.130484295E1,5.672931671E0,4.895805359E0
5.878841880E0,1.863576508E1,1.895596027E0,2.548561096E0
5.895507817E0,1.810194778E1,-2.334551334E0,-1.515213013E0
5.912173755E0,1.184953594E1,-6.068701267E0,-2.418630838E0
5.928839692E0,3.811152458E0,-7.953861237E0,2.224240303E-1
5.945505630E0,-1.242314339E0,-8.698017120E0,3.166365147E0
5.962171567E0,-2.535604000E0,-9.540573120E0,2.890237093E0
5.978837505E0,-1.790156841E0,-1.029783821E1,4.343099594E-1
5.995503442E0,-8.832058907E-1,-1.042555046E1,-2.508912086E0
6.012169380E0,-1.735486507E0,-9.259103775E0,-5.666950226E0
6.028835317E0,-3.563697338E0,-7.790881157E0,-7.982398033E0
6.045501255E0,-5.294604301E0,-7.070204258E0,-8.408570290E0
6.062167192E0,-7.192838669E0,-6.793166161E0,-8.250543594E0
6.078833130E0,-8.812944412E0,-6.476535320E0,-7.432845116E0
6.095499067E0,-8.873727798E0,-6.203181267E0,-7.046715736E0
6.112165005E0,-7.991752148E0,-5.776649952E0,-7.426290512E0
6.128830942E0,-7.263064861E0,-5.560987473E0,-7.293453217E0
6.145496880E0,-5.327932358E0,-6.229855537E0,-7.092790604E0
6.162162817E0,-2.147556782E0,-6.884009838E0,-7.443698406E0
6.178828755E0,1.455255508E0,-5.719943047E0,-7.234255791E0
6.195494692E0,7.517745972E0,-2.712010384E0,-4.455399036E0
6.212160630E0,1.877420044E1,7.838163376E-1,3.668015003E-1
6.228826567E0,3.073725891E1,2.513906002E0,3.386279821E0
6.245492505E0,3.245714951E1,3.032461643E0,3.037095070E0
6.262158442E0,2.169874573E1,2.748665810E0,6.022743225E0
6.278824380E0,9.718282700E0,2.567919254E0,9.764032364E0
6.295490317E0,2.186039925E0,2.777246475E0,8.407791138E0
6.312156255E0,-1.668802738E0,2.726923943E0,5.122295380E0
6.328822192E0,-4.302908421E0,3.088407040E0,1.893059254E0
6.345488130E0,-6.172539711E0,3.651196003E0,-5.293595791E-1
6.362154067E0,-6.768813133E0,4.051883698E0,-1.361720800E0
6.378820005E0,-6.742152214E0,4.271058083E0,-5.326683521E-1
6.395485942E0,-7.351025581E0,4.809487343E0,1.024482012E0
6.412151880E0,-8.546259880E0,5.386547089E0,3.016077280E0
6.428817817E0,-9.557635307E0,5.746350288E0,4.765727997E0
6.445483755E0,-9.905702591E0,5.697483540E0,5.500960350E0
6.462149692E0,-9.836068153E0,5.260324001E0,5.191653252E0
6.478815630E0,-8.842967033E0,4.438709259E0,4.941959858E0
6.495481567E0,-6.873773575E0,3.894396544E0,5.056252956E0
6.512147505E0,-3.779200554E0,3.909971237E0,4.826428413E0
6.528813442E0,-7.970509529E-1,5.025887489E0,5.287000179E0
6.545479380E0,7.025070190E-1,6.746584892E0,7.497998238E0
6.562145317E0,2.833654404E0,7.725500584E0,1.027195930E1
6.578811255E0,6.520331860E0,7.517471790E0,1.107428265E1
6.595477192E0,1.064554596E1,5.547228813E0,9.229425430E0
6.612143130E0,1.035870361E1,2.333611012E0,7.004335403E0
6.628809067E0,7.738935947E0,-8.727321625E-1,5.041930676E0
6.645475005E0,6.278488636E0,-3.899084330E0,2.511309624E0
6.662140942E0,5.302529335E0,-6.631968498E0,-7.283353806E-2
6.678806880E0,3.843903542E0,-8.908940315E0,-2.294151306E0
6.695472817E0,1.314431667E0,-1.070814514E1,-2.825121403E0
6.712138755E0,-1.329744816E0,-1.201744652E1,-2.434886932E0
6.728804692E0,-2.270018101E0,-1.298135185E1,-3.004685402E0
6.745470630E0,-1.858420372E0,-1.297872448E1,-4.769491196E0
6.762136567E0,-2.257698536E0,-1.196631527E1,-6.284563541E0
6.778802505E0,-2.934384823E0,-1.077153587E1,-7.442770958E0
6.795468442E0,-2.748930454E0,-9.114759445E0,-8.191215515E0
6.812134380E0,-2.071985722E0,-7.278132439E0,-8.642163277E0
6.828800317E0,-1.297836781E0,-5.812675476E0,-7.880359173E0
6.845466255E0,-1.180547237E0,-5.084143639E0,-6.258001328E0
6.862132192E0,-1.856070995E0,-4.796503067E0,-4.148759365E0
6.878798130E0,-2.179921627E0,-4.311682701E0,-3.225469828E0
6.895464067E0,-2.220011234E0,-4.046566010E0,-4.113915920E0
6.912130005E0,-1.922358036E0,-2.945864439E0,-4.678350449E0
6.928795942E0,1.367170334E0,-1.652279615E0,-3.785266161E0
6.945461880E0,8.276676178E0,-8.448212147E-1,-1.801830530E0
6.962127817E0,1.660927963E1,-2.638101578E-1,9.824491739E-1
6.978793755E0,2.010552597E1,1.209072113E0,5.206041336E0
6.995459692E0,1.678019714E1,3.208113670E0,9.056186676E0
7.012125630E0,1.083660507E1,4.099375725E0,9.360733032E0
7.028791567E0,5.252249718E0,4.672203064E0,7.510419846E0
7.045457505E0,7.486047745E-1,5.002765656E0,4.897137165E0
7.062123442E0,-2.893907070E0,5.236909866E0,3.280410767E0
7.078789380E0,-5.759905815E0,5.122401237E0,2.938661337E0
7.095455317E0,-7.112292290E0,4.736100197E0,2.928683758E0
7.112121255E0,-5.512647152E0,4.497447014E0,2.969933033E0
7.128787192E0,-4.623120308E0,5.256904602E0,2.837368250E0
7.145453130E0,-6.109277725E0,6.000193119E0,4.094940186E0
7.162119067E0,-8.252830505E0,6.338323593E0,7.032654762E0
7.178785005E0,-9.434844971E0,6.480047703E0,8.883561134E0
7.195450942E0,-9.347356796E0,5.962296009E0,8.885900497E0
7.212116880E0,-8.277770042E0,5.143281937E0,8.016510963E0
7.228782817E0,-6.745256424E0,4.999176502E0,6.236498833E0
7.245448755E0,-4.423641682E0,4.919434547E0,3.957106590E0
7.262114692E0,-2.204857349E0,5.197306156E0,2.536848783E0
7.278780630E0,-1.378440380E0,6.569664001E0,3.482018232E0
7.295446567E0,2.587070465E-1,7.933529377E0,6.562256813E0
7.312112505E0,6.612435341E0,8.653118134E0,9.526233673E0
7.328778442E0,1.715837097E1,7.523039818E0,9.913189888E0
7.345444380E0,2.463456154E1,4.973143101E0,5.836246014E0
7.362110317E0,2.424258041E1,1.742651463E0,8.461385965E-1
7.378776255E0,1.817813873E1,-2.086482525E0,-6.180912852E-1
7.395442192E0,1.138381386E1,-6.286430359E0,2.089490891E-1
7.412108130E0,5.738265514E0,-9.919853210E0,5.530852079E-1
7.428774067E0,1.379334450E0,-1.243964958E1,-6.683164835E-1
7.445440005E0,-1.951422215E0,-1.380720329E1,-3.004306555E0
7.462105942E0,-4.578153610E0,-1.448034096E1,-5.195235729E0
7.478771880E0,-6.437216282E0,-1.500397110E1,-6.577087402E0
7.495437817E0,-7.997466087E0,-1.543415070E1,-6.722765923E0
7.512103755E0,-9.242050171E0,-1.559604073E1,-5.826216698E0
7.528769692E0,-1.007950783E1,-1.566191483E1,-5.370131493E0
7.545435630E0,-9.814393044E0,-1.557082558E1,-5.228029251E0
7.562101567E0,-9.103287697E0,-1.504043579E1,-5.270257473E0
7.578767505E0,-7.467913151E0,-1.430316639E1,-5.224967480E0
7.595433442E0,-4.453663826E0,-1.378571701E1,-5.811592102E0
7.612099380E0,-1.043022156E0,-1.276270676E1,-5.790225029E0
7.628765317E0,2.225863457E0,-8.710715294E0,-3.613333702E0
7.645431255E0,1.274363613E1,-2.420916557E0,1.690652132E0
7.662097192E0,2.988160515E1,2.759482622E0,5.927284241E0
7.678763130E0,3.761318207E1,7.242492676E0,4.841895580E0
7.695429067E0,2.960638237E1,9.681915283E0,5.734410763E0
7.712095005E0,1.620653915E1,1.014793205E1,8.569333076E0
7.728760942E0,6.516867638E0,1.002436352E1,8.664038658E0
7.745426880E0,5.387306213E-1,9.556644440E0,6.384736061E0
7.762092817E0,-3.255100727E0,9.745981216E0,4.263130665E0
7.778758755E0,-4.736363888E0,9.696844101E0,3.167721748E0
7.795424692E0,-5.317911625E0,8.988572121E0,2.830409527E0
7.812090630E0,-6.014842033E0,8.092453003E0,3.249912262E0
7.828756567E0,-5.899188995E0,7.079797745E0,3.704654455E0
7.845422505E0,-5.760781288E0,6.881430149E0,3.861447811E0
7.862088442E0,-7.043462753E0,7.134777069E0,3.675669670E0
7.878754380E0,-8.758685112E0,7.099714279E0,3.042600632E0
7.895420317E0,-9.849316597E0,6.413980961E0,3.008701563E0
7.912086255E0,-9.055955887E0,5.228149414E0,3.015537024E0
7.928752192E0,-7.156422615E0,4.116786003E0,3.014247894E0
7.945418130E0,-5.760388374E0,3.668973207E0,3.561295271E0
7.962084067E0,-5.000178337E0,4.587807655E0,4.846011639E0
7.978750005E0,-3.260853767E0,7.501460552E0,7.071434021E0
7.995415942E0,2.090259552E0,1.067853832E1,8.271795273E0
8.012081880E0,1.263557529E1,1.175230598E1,8.559733391E0
8.028747817E0,2.624374771E1,9.772444725E0,4.066095352E0
8.045413755E0,3.184741592E1,6.037629604E0,-1.444420934E0
8.062079692E0,2.568882179E1,9.524507523E-1,-2.482285023E0
8.078745630E0,1.584501743E1,-5.565042019E0,7.584356070E-1
8.095411567E0,7.223692894E0,-1.141632652E1,4.471654892E0
8.112077505E0,1.478034973E0,-1.564230537E1,4.473615646E0
8.128743442E0,-1.903070450E0,-1.861521721E1,1.986596584E-1
8.145409380E0,-5.596487999E0,-1.940058517E1,-5.495913506E0
8.162075317E0,-9.030900955E0,-1.910286140E1,-9.159585953E0
8.178741255E0,-1.071564770E1,-2.001253128E1,-9.676648140E0
8.195407192E0,-1.094314384E1,-2.101001930E1,-8.614649773E0
8.212073130E0,-1.196273232E1,-2.098637009E1,-7.070272923E0
8.228739067E0,-1.352445889E1,-1.970188332E1,-5.309859276E0
8.245405005E0,-1.253024292E1,-1.861053276E1,-3.980293989E0
8.262070942E0,-7.803534031E0,-1.740472603E1,-4.297461987E0
8.278736880E0,-9.007277489E-1,-1.545141697E1,-5.469243526E0
8.295402817E0,5.067866325E0,-1.137811661E1,-5.243319511E0
8.312068755E0,1.342750072E1,-3.694020510E0,-1.738424778E0
8.328734692E0,3.091324425E1,2.312004328E0,3.039309382E-1
8.345400630E0,4.075144958E1,6.102238178E0,7.872486115E-2
8.362066567E0,3.127476501E1,8.975261688E0,3.677167416E0
8.378732505E0,1.541105747E1,9.513986588E0,7.906747818E0
8.395398442E0,4.804317474E0,9.605929375E0,7.329934120E0
8.412064380E0,-6.637229919E-1,1.011397457E1,4.651027203E0
8.428730317E0,-2.827696800E0,1.136709976E1,4.093115807E0
8.445396255E0,-7.370939255E-1,1.374191666E1,4.724565506E0
8.462062192E0,1.628442764E0,1.664781952E1,5.919331551E0
8.478728130E0,-1.162934303E0,1.951298332E1,7.582638741E0
8.495394067E0,-6.444668770E0,2.111899757E1,8.556482315E0
8.512060005E0,-9.585329056E0,2.138171768E1,8.613084793E0
8.528725942E0,-8.454044342E0,1.968170166E1,8.574448586E0
8.545391880E0,-4.793076038E0,1.593042946E1,9.117955208E0
8.562057817E0,-1.766697884E0,1.177577782E1,9.064013481E0
8.578723755E0,-1.232080460E-1,9.057794571E0,7.855056763E0
8.595389692E0,2.367167473E0,8.353107452E0,5.913240910E0
8.612055630E0,8.002161026E0,7.675778389E0,3.678976774E0
8.628721567E0,1.311413002E1,7.001570225E0,3.083535671E0
8.645387505E0,2.132585335E1,4.925472260E0,2.288363218E0
8.662053442E0,2.888208580E1,-1.045726299E0,1.154900074E0
8.678719380E0,2.631616211E1,-8.101812363E0,1.364218950E0
8.695385317E0,1.636976433E1,-1.581751823E1,1.184186459E0
8.712051255E0,6.652747154E0,-2.440605545E1,1.229590416E0
8.728717192E0,1.783819199E-1,-3.254693604E1,8.482288122E-1
8.745383130E0,-4.514559269E0,-4.134852982E1,-8.235230446E-1
8.762049067E0,-1.221749020E1,-4.517201614E1,-3.834366798E0
8.778715005E0,-1.699768448E1,-4.481415558E1,-3.412653208E0
8.795380942E0,-1.802487946E1,-4.255279922E1,6.877995729E-1
8.812046880E0,-1.320267296E1,-3.657291412E1,2.379753590E0
8.828712817E0,-2.670789719E0,-2.681511879E1,-4.200659752E0
8.845378755E0,4.757423878E0,-9.871437073E0,-1.060394001E1
8.862044692E0,1.220628834E1,1.140574455E1,-3.154189825E0
8.878710630E0,2.490483475E1,3.067942619E1,2.678757286E1
8.895376567E0,4.096205521E1,5.102916718E1,5.731010818E1
8.912042505E0,5.052677917E1,5.849718857E1,5.128377533E1
8.928708442E0,3.378177643E1,4.930684280E1,2.470480728E1
8.945374380E0,1.106994629E1,3.064664268E1,1.023286343E1
8.962040317E0,3.367459297E0,8.346925735E0,1.194287109E1
8.978706255E0,5.493239403E0,-1.140663815E1,1.362419891E1
8.995372192E0,1.111874580E1,-2.951384735E1,9.732716560E0
9.012038130E0,1.181886292E1,-4.118682861E1,-6.422530413E-1
9.028704067E0,1.306336594E1,-4.068476868E1,-1.280801392E1
9.045370005E0,1.839055061E1,-3.833380890E1,-1.598755741E1
9.062035942E0,1.644170952E1,-3.801960754E1,-5.384413719E0
9.078701880E0,8.490592957E0,-3.573835754E1,7.840026855E0
9.095367817E0,1.943643570E0,-2.941002846E1,5.822104454E0
9.112033755E0,-1.117802620E0,-2.169987106E1,-2.350760937E0
9.128699692E0,-2.749631405E0,-1.367270565E1,-7.638893604E0
9.145365630E0,-5.297123909E0,-6.247832775E0,-7.250504971E0
9.162031567E0,-1.123430252E1,3.360855103E0,-4.587673187E0
9.178697505E0,-1.554292679E1,1.372915077E1,2.694968224E0
9.195363442E0,-1.039166164E1,2.169802284E1,1.834088707E1
9.212029380E0,5.489114761E0,2.681167603E1,3.824514008E1
9.228695317E0,2.088058472E1,2.970182419E1,4.245430374E1
9.245361255E0,1.776186371E1,3.074805069E1,2.854977989E1
9.262027192E0,6.297476768E0,2.767280960E1,1.963993454E1
9.278693130E0,4.879163742E0,1.488300514E1,2.832124138E1
9.295359067E0,9.291583061E0,2.097449303E-1,3.489572525E1
9.312025005E0,1.763953400E1,-7.174247742E0,2.811562729E1
9.328690942E0,2.670872307E1,-9.077087402E0,1.493210411E1
9.345356880E0,3.006294060E1,-1.427256393E1,5.412309647E0
9.362022817E0,2.009912872E1,-1.760653687E1,-4.779905081E-2
9.378688755E0,1.419913864E1,-1.768169022E1,-3.531865776E-1
9.395354692E0,1.609889030E1,-2.220729446E1,5.089547634E0
9.412020630E0,1.715397072E1,-2.995003891E1,1.120171642E1
9.428686567E0,1.574343300E1,-3.549065399E1,1.262363148E1
9.445352505E0,6.749900818E0,-3.436177063E1,8.118947983E0
9.462018442E0,-4.186500549E0,-3.076577950E1,4.650685310E0
9.478684380E0,-9.889994621E0,-2.779195213E1,4.218934059E0
9.495350317E0,-9.873836517E0,-2.466641998E1,2.083531618E0
9.512016255E0,-2.685205460E0,-2.038216782E1,-2.215082645E0
9.528682192E0,1.058085442E1,-1.323057461E1,-6.473381042E0
9.545348130E0,2.623162842E1,-2.613858700E0,-9.833331108E0
9.562014067E0,3.623480988E1,7.859530449E0,-9.680306435E0
9.578680005E0,3.405431366E1,1.366905212E1,-3.672319174E0
9.595345942E0,2.487360954E1,1.545239639E1,-3.590320945E-1
9.612011880E0,1.723283386E1,1.480925560E1,-1.561987638E0
9.628677817E0,1.473096561E1,1.409000778E1,-1.785245180E0
9.645343755E0,1.169814682E1,1.430740452E1,9.287881851E-1
9.662009692E0,8.447604179E0,1.397730350E1,3.908239365E0
9.678675630E0,5.530753136E0,1.343456459E1,7.567436218E0
9.695341567E0,2.796706200E0,1.350018692E1,1.073203468E1
9.712007505E0,1.532690048E0,1.439655495E1,9.804346085E0
9.728673442E0,1.484268188E0,1.593275642E1,6.656474590E0
9.745339380E0,2.128332138E0,1.742869377E1,5.383919716E0
9.762005317E0,3.045545578E0,1.861273384E1,6.248465061E0
9.778671255E0,3.152347565E0,2.024965286E1,6.130371094E0
9.795337192E0,4.469156265E-1,2.155768967E1,3.906549931E0
9.812003130E0,-4.544333935E0,2.087142754E1,5.049838066E0
9.828669067E0,-9.356652260E0,1.986517525E1,1.167429543E1
9.845335005E0,-7.498292923E0,1.962528038E1,9.869659424E0
9.862000942E0,-1.736877918E0,2.193102455E1,2.049927711E0
9.878666880E0,2.765976906E0,2.223097038E1,1.746507168E0
9.895332817E0,6.132386208E0,1.954515839E1,1.024276352E1
9.911998755E0,9.158389091E0,1.640861320E1,1.969169617E1
9.928664692E0,1.570014858E1,1.429214287E1,2.397755814E1
9.945330630E0,2.698020172E1,1.126870728E1,1.897021675E1
9.961996567E0,3.557578659E1,6.904990196E0,1.162203312E1
9.978662505E0,3.793169403E1,3.965883255E-1,4.022131920E0
9.995328442E0,3.311595535E1,-5.927049160E0,-2.368015289E0
1.001199438E1,2.726231956E1,-1.123195267E1,-3.106993198E0
1.002866032E1,2.368409920E1,-1.918949127E1,3.013566256E0
1.004532626E1,1.818120956E1,-3.093186569E1,1.043868256E1
1.006199219E1,1.025429153E1,-4.004853058E1,1.251732159E1
1.007865813E1,9.987545013E-1,-4.339208603E1,8.270633698E0
1.009532407E1,-8.387072563E0,-4.188749695E1,3.507289171E0
1.011199001E1,-1.532881165E1,-3.849058151E1,2.620199442E0
1.012865594E1,-1.685149574E1,-3.443050003E1,2.121385574E0
1.014532188E1,-1.346165657E1,-2.973011971E1,-2.736714482E-1
1.016198782E1,-5.458589554E0,-2.431571198E1,-3.748823166E0
1.017865376E1,3.957838058E0,-1.814591026E1,-7.895262241E0
1.019531969E1,8.564657211E0,-1.106092930E1,-1.281352329E1
1.021198563E1,9.428999901E0,-5.867701530E0,-1.669035912E1
1.022865157E1,1.055878353E1,-2.644779205E0,-1.577117729E1
1.024531751E1,1.410641289E1,-2.321665764E0,-1.160998249E1
1.026198344E1,2.194303513E1,-1.079238415E0,-5.433568001E0
1.027864938E1,3.251741028E1,2.588559151E0,2.654934883E0
1.029531532E1,4.179890823E1,7.721921921E0,8.925675392E0
1.031198126E1,3.667826080E1,1.182291698E1,7.280295372E0
1.032864719E1,2.088589096E1,1.325675774E1,4.237686157E0
1.034531313E1,8.179462433E0,1.207512188E1,3.766655922E0
1.036197907E1,6.413822174E-1,1.159728432E1,4.790617943E0
1.037864501E1,-4.439424515E0,1.273315334E1,2.956172228E0
1.039531094E1,-6.357713699E0,1.442545986E1,3.920062780E-1
1.041197688E1,-7.653065681E0,1.688343430E1,4.423075914E-1
1.042864282E1,-8.925527573E0,1.845464134E1,3.333719015E0
1.044530876E1,-9.460710526E0,1.855794144E1,6.135010242E0
1.046197469E1,-1.115086651E1,1.822205544E1,6.462101936E0
1.047864063E1,-1.268731976E1,1.814466667E1,6.098768711E0
1.049530657E1,-1.108577538E1,1.671075630E1,6.992001534E0
1.051197251E1,-7.336336136E0,1.324403000E1,8.513829231E0
1.052863844E1,-3.896493435E0,9.531936646E0,9.860773087E0
1.054530438E1,-4.958305359E-1,6.900548935E0,9.790523529E0
1.056197032E1,4.042325020E0,4.810423851E0,7.591703415E0
1.057863626E1,8.687617302E0,2.984626293E0,5.157218933E0
1.059530219E1,1.256403160E1,8.178853989E-1,4.087704182E0
1.061196813E1,1.570841694E1,9.514632225E-1,3.316088676E0
1.062863407E1,2.142206192E1,1.457447052E0,2.299525499E0
1.064530001E1,2.812307358E1,-1.444690228E0,8.206999302E-1
1.066196594E1,2.861729050E1,-6.820111275E0,1.059813499E0
1.067863188E1,2.195638657E1,-1.115217781E1,1.966829062E0
1.069529782E1,1.243710327E1,-1.449563408E1,3.344400883E0
1.071196376E1,4.268712997E0,-1.732124329E1,5.858967781E0
1.072862969E1,-1.614291191E0,-1.930914307E1,8.303404808E0
1.074529563E1,-5.136670589E0,-2.082232666E1,8.020691872E0
1.076196157E1,-6.163225651E0,-2.143798447E1,4.813695431E0
1.077862751E1,-5.565931797E0,-2.156202316E1,1.289784908E0
1.079529344E1,-4.945231438E0,-2.169719696E1,-1.919865131E0
1.081195938E1,-7.383460999E0,-2.079005432E1,-3.716082573E0
1.082862532E1,-1.027494431E1,-1.975728035E1,-4.553866863E0
1.084529126E1,-1.043288612E1,-1.898357773E1,-4.121109962E0
1.086195719E1,-5.890332222E0,-1.795429802E1,-3.165649414E0
1.087862313E1,1.065098286E0,-1.586882782E1,-4.148848057E0
1.089528907E1,4.336859703E0,-1.438378239E1,-4.794387817E0
1.091195501E1,2.982740402E-1,-1.162530613E1,-2.334253073E0
1.092862094E1,1.172812462E0,-5.327548504E0,2.044684172E0
1.094528688E1,2.094070816E1,2.920606613E0,5.691430569E0
1.096195282E1,4.184143829E1,1.066083527E1,4.318060875E0
1.097861876E1,3.701028442E1,1.540995979E1,4.230878830E0
1.099528469E1,2.165118408E1,1.653904915E1,9.074976921E0
1.101195063E1,1.440002728E1,1.509832764E1,1.098194885E1
1.102861657E1,8.767817497E0,1.385284042E1,8.499374390E0
1.104528251E1,2.933381081E0,1.277938461E1,4.583598614E0
1.106194844E1,-1.968134880E0,1.218294716E1,8.848993182E-1
1.107861438E1,-5.158543110E0,1.170981884E1,-1.201777458E0
1.109528032E1,-8.287538528E0,1.136872768E1,-1.147050858E0
1.111194626E1,-1.141611099E1,1.112245274E1,2.725997269E-1
1.112861219E1,-1.386167431E1,1.118315411E1,1.949727774E0
1.114527813E1,-1.459733772E1,1.162195301E1,2.787250280E0
1.116194407E1,-1.418325996E1,1.199335575E1,2.235045433E0
1.117861001E1,-1.148848915E1,1.228353214E1,3.122077227E0
1.119527594E1,-5.621311188E0,1.196914864E1,4.881346703E0
1.121194188E1,1.655826569E0,1.081624222E1,6.206422329E0
1.122860782E1,5.164955139E0,1.041085911E1,7.292031765E0
1.124527376E1,7.980730057E0,1.043774986E1,7.518052578E0
1.126193969E1,1.389311028E1,9.655171394E0,4.597436905E0
1.127860563E1,2.168025970E1,7.948053360E0,7.812869549E-1
1.129527157E1,2.793494034E1,4.252617359E0,-1.584436178E0
1.131193751E1,2.701950836E1,-1.147695065E0,-1.791917920E0
1.132860344E1,1.878830719E1,-7.496350765E0,4.469102621E-1
1.134526938E1,9.269315720E0,-1.369202995E1,4.612761974E0
1.136193532E1,3.226518154E0,-1.899533463E1,5.922142029E0
1.137860126E1,-6.764130592E-1,-2.247632790E1,2.507847548E0
1.139526719E1,-4.432288170E0,-2.372583199E1,-2.750768900E0
1.141193313E1,-6.965952873E0,-2.460062790E1,-7.362781525E0
1.142859907E1,-7.682429314E0,-2.623067284E1,-9.000000000E0
1.144526501E1,-8.291061401E0,-2.796744919E1,-7.026073933E0
1.146193094E1,-1.054324913E1,-2.797750473E1,-4.657797813E0
1.147859688E1,-9.776397705E0,-2.680881119E1,-2.364599705E0
1.149526282E1,-3.998918772E0,-2.467764282E1,-1.148039579E0
1.151192876E1,2.838475227E0,-2.105103874E1,-1.517787576E0
1.152859469E1,6.251737118E0,-1.587430000E1,-2.489286900E0
1.154526063E1,7.729597092E0,-8.806980133E0,-1.677815914E0
1.156192657E1,1.778361130E1,-5.200796127E-1,1.593805313E0
1.157859251E1,3.475760269E1,6.980745316E0,5.095504761E0
1.159525844E1,4.002060318E1,1.327101517E1,7.750217915E0
1.161192438E1,2.861870956E1,1.599660301E1,7.462584972E0
1.162859032E1,1.544507217E1,1.559809399E1,5.057034969E0
1.164525626E1,6.169340134E0,1.382736301E1,9.182963371E-1
1.166192219E1,-1.486755371E0,1.269581604E1,-4.729613662E-2
1.167858813E1,-6.456118584E0,1.243511486E1,2.757964849E0
1.169525407E1,-7.503444672E0,1.309426880E1,5.881279945E0
1.171192001E1,-6.701395035E0,1.483354378E1,6.532245636E0
1.172858594E1,-8.336555481E0,1.674465942E1,4.307893753E0
1.174525188E1,-1.222605419E1,1.747684097E1,2.880268097E0
1.176191782E1,-1.409419346E1,1.624231148E1,4.397840977E0
1.177858376E1,-1.291574097E1,1.373144436E1,6.830886841E0
1.179524969E1,-9.162119865E0,1.086099720E1,8.219990730E0
1.181191563E1,-4.789885521E0,8.312618256E0,6.819152355E0
1.182858157E1,-1.603437901E0,7.306868553E0,4.446834564E0
1.184524751E1,1.197213173E0,8.972574234E0,3.555509090E0
1.186191344E1,7.415859222E0,1.027583885E1,5.008255005E0
1.187857938E1,1.693324280E1,1.110124111E1,5.330866337E0
1.189524532E1,2.897142410E1,1.037644577E1,2.842989445E0
1.191191126E1,3.463952637E1,6.540110588E0,-1.742429256E0
1.192857719E1,2.999918556E1,-3.778934479E-2,-1.920446157E0
1.194524313E1,2.109930420E1,-8.761256218E0,2.005192041E0
1.196190907E1,1.247570133E1,-1.628285217E1,6.580652237E0
1.197857501E1,6.799085617E0,-2.145808029E1,7.598475456E0
1.199524094E1,3.542601109E0,-2.604302979E1,5.198495865E0
1.201190688E1,3.061037064E-1,-2.972290039E1,1.447676182E0
1.202857282E1,-3.674762726E0,-3.232195663E1,-2.038430452E0
1.204523876E1,-9.138732910E0,-3.266645050E1,-6.023830414E0
1.206190469E1,-1.277669334E1,-3.165353012E1,-8.278902054E0
1.207857063E1,-1.334762192E1,-3.094361877E1,-7.752474785E0
1.209523657E1,-1.097776508E1,-3.005781174E1,-5.415471077E0
1.211190251E1,-5.977963448E0,-2.773489761E1,-4.024425507E0
1.212856844E1,-1.066961288E-1,-2.400125885E1,-4.473973274E0
1.214523438E1,8.441269875E0,-1.836328888E1,-4.468572617E0
1.216190032E1,2.086152458E1,-1.042331600E1,-1.290536404E0
1.217856626E1,3.413074875E1,-1.818913221E0,4.032919884E0
1.219523219E1,3.950204086E1,5.410982132E0,1.023590946E1
1.221189813E1,3.541565323E1,1.129811668E1,1.492759514E1
1.222856407E1,2.559641457E1,1.605922508E1,9.399847984E0
1.224523001E1,1.434872246E1,1.921282768E1,2.163090944E0
1.226189594E1,4.105188370E0,2.075759697E1,5.690405369E-1
1.227856188E1,-3.842149258E0,2.208979797E1,2.613923311E0
1.229522782E1,-9.327068329E0,2.459772873E1,2.758960962E0
1.231189376E1,-1.443131828E1,2.895026970E1,1.014469385E0
1.232855969E1,-1.644755936E1,3.229927826E1,8.220003247E-1
1.234522563E1,-1.237212372E1,3.213149643E1,5.806001186E0
1.236189157E1,-3.786253452E0,2.824359512E1,1.474101162E1
1.237855751E1,5.837741852E0,2.174077606E1,2.136857986E1
1.239522344E1,1.263060856E1,1.546080780E1,2.049327087E1
1.241188938E1,1.888771248E1,8.951848984E0,1.600674057E1
1.242855532E1,2.179363632E1,2.259632587E0,1.185195351E1
1.244522126E1,2.597784424E1,-1.799064636E0,8.729725838E0
1.246188719E1,3.412857437E1,-7.275828838E0,4.821846008E0
1.247855313E1,3.686797714E1,-1.441203690E1,6.299228191E0
1.249521907E1,3.254973221E1,-2.487693405E1,1.261483860E1
1.251188500E1,2.394188309E1,-3.796891403E1,1.760879517E1
1.252855094E1,1.593514156E1,-4.975943375E1,1.214956379E1
1.254521688E1,5.310756683E0,-5.237311935E1,-1.313453078E0
1.256188282E1,-3.411691666E0,-4.924211121E1,-1.366147995E1
1.257854876E1,-3.908236980E0,-4.973688507E1,-1.321536636E1
1.259521469E1,-5.072363377E0,-4.966341019E1,-2.029629230E0
1.261188063E1,-3.242348909E0,-4.297591400E1,4.428324699E0
1.262854657E1,9.230478287E0,-3.237465286E1,-7.303514481E-1
1.264521250E1,2.523534775E1,-1.794498825E1,-4.204270363E0
1.266187844E1,3.995643616E1,-1.639410496E0,-1.012763977E-1
1.267854438E1,4.470753479E1,1.269439411E1,5.998931408E0
1.269521032E1,3.802786255E1,2.313438606E1,1.348077393E1
1.271187626E1,2.695168304E1,3.253801727E1,2.061807823E1
1.272854219E1,2.453450394E1,3.903311539E1,1.882472229E1
1.274520813E1,1.927096176E1,4.199647522E1,1.055592537E1
1.276187407E1,4.261581421E0,4.074882507E1,7.183681488E0
1.277854000E1,-5.260589123E0,3.595019531E1,1.108764076E1
1.279520594E1,-2.648142338E0,2.840568733E1,1.585962296E1
1.281187188E1,1.117257118E0,1.952211761E1,1.668934441E1
1.282853782E1,2.121372223E0,1.218123913E1,1.399497032E1
1.284520376E1,4.560088158E0,6.238540649E0,1.198792553E1
1.286186969E1,7.203148842E0,1.494302988E0,1.234808540E1
1.287853563E1,6.923327446E0,-1.145270586E0,1.410641766E1
1.289520157E1,7.414235115E0,-1.650296450E0,1.746092796E1
1.291186750E1,1.159089184E1,-1.661285877E0,2.218086624E1
1.292853344E1,1.593298531E1,-2.657379866E0,2.442974091E1
1.294519938E1,1.993038559E1,-5.039561272E0,2.509764862E1
1.296186532E1,2.155058289E1,-8.292803764E0,2.222762680E1
1.297853126E1,1.770443535E1,-9.339650154E0,1.734809875E1
1.299519719E1,1.436344051E1,-9.131361961E0,1.386875153E1
1.301186313E1,1.544500732E1,-1.062948322E1,1.287312126E1
1.302852907E1,1.559797192E1,-1.240449715E1,1.338494396E1
1.304519500E1,1.440390110E1,-1.445247841E1,1.466333675E1
1.306186094E1,1.270724869E1,-1.663126183E1,1.480001926E1
1.307852688E1,1.004395294E1,-1.780652046E1,1.238224697E1
1.309519282E1,7.347018719E0,-1.835556602E1,9.023373604E0
1.311185876E1,5.509254456E0,-1.957748413E1,5.361721992E0
1.312852469E1,3.568059206E0,-2.116506577E1,4.541725636E0
1.314519063E1,2.938259363E0,-2.352816010E1,6.945141792E0
1.316185657E1,3.545349598E0,-2.550233078E1,1.000319290E1
1.317852250E1,2.010729790E0,-2.478707886E1,8.336861610E0
1.319518844E1,1.494490623E0,-2.288620186E1,2.194535017E0
1.321185438E1,5.530414104E0,-2.095960617E1,-4.996397972E0
1.322852032E1,1.198371887E1,-1.642289925E1,-1.159713554E1
1.324518626E1,1.615389442E1,-9.710609436E0,-1.514418793E1
1.326185219E1,1.756382751E1,-2.337806225E0,-1.282477093E1
1.327851813E1,2.197354507E1,3.153016567E0,-6.069054604E0
1.329518407E1,2.711304283E1,7.454792500E0,-3.636389971E-1
1.331185000E1,2.443642426E1,1.192989826E1,-2.255710363E-1
1.332851594E1,1.852367020E1,1.601015854E1,5.019474030E-2
1.334518188E1,1.697531891E1,1.889297104E1,3.084964752E0
1.336184782E1,1.799760818E1,1.996935844E1,6.231777191E0
1.337851376E1,1.546531582E1,1.958966446E1,5.856360435E0
1.339517969E1,9.430540085E0,1.875801659E1,1.874667883E0
1.341184563E1,2.336596489E0,1.848269653E1,-2.776901245E0
1.342851157E1,-2.855519772E0,1.840931511E1,-6.182301044E0
1.344517750E1,-5.639404774E0,1.793973160E1,-5.922414780E0
1.346184344E1,-5.041123867E0,1.689039612E1,-1.391654730E0
1.347850938E1,-3.956614971E0,1.566383839E1,3.246261120E0
1.349517532E1,-4.063465595E0,1.499259758E1,4.687212944E0
1.351184126E1,-5.371119499E0,1.499626541E1,3.039819002E-2
1.352850719E1,-6.739337921E0,1.598926449E1,-7.965516567E0
1.354517313E1,-4.788720131E0,1.643164635E1,-1.020675659E1
1.356183907E1,-2.206659317E-1,1.429032707E1,-4.006657124E0
1.357850500E1,4.709612846E0,1.034247684E1,9.696161270E0
1.359517094E1,9.216044426E0,8.321879387E0,2.431028748E1
1.361183688E1,1.388312244E1,7.458387852E0,2.699194717E1
1.362850282E1,1.939237595E1,7.116568089E0,1.890436554E1
1.364516876E1,2.441912842E1,8.301292419E0,7.794447899E0
1.366183469E1,2.873672104E1,6.449190140E0,6.051995754E-1
1.367850063E1,2.860764313E1,-6.943802834E-1,3.546995163E0
1.369516657E1,2.229391670E1,-1.277184868E1,1.205779362E1
1.371183250E1,1.078692245E1,-2.508114433E1,2.041302299E1
1.372849844E1,2.241975784E0,-3.328852844E1,2.281739235E1
1.374516438E1,4.586820602E-1,-3.838565826E1,1.547291565E1
1.376183032E1,-6.575794220E-1,-3.772899628E1,4.498678207E0
1.377849626E1,-3.817915916E0,-3.532932281E1,-2.250441074E0
1.379516219E1,-9.571317673E0,-3.192982864E1,-3.327759743E0
1.381182813E1,-1.512724972E1,-2.832815552E1,-8.714890480E-1
1.382849407E1,-1.591426373E1,-2.602414322E1,1.943045259E0
1.384516000E1,-1.072318172E1,-2.421784973E1,1.839710951E0
1.386182594E1,-3.243794441E0,-2.224140739E1,-2.238096714E0
1.387849188E1,4.304412365E0,-1.947974777E1,-7.838083267E0
1.389515782E1,8.768358231E0,-1.552730656E1,-1.331188774E1
1.391182376E1,9.808308601E0,-1.156119347E1,-1.635822105E1
1.392848969E1,1.177614594E1,-3.185630083E0,-1.330324745E1
1.394515563E1,2.842549896E1,5.056457520E0,-8.482266068E-1
1.396182157E1,5.300692749E1,7.373262882E0,4.073493958E0
1.397848750E1,5.358744812E1,1.236583614E1,2.897363305E-1
1.399515344E1,3.107899094E1,1.409300137E1,-1.460706949E0
1.401181938E1,8.823554993E0,1.397829342E1,4.028530419E-1
1.402848532E1,-2.951580048E0,1.347062206E1,1.671373844E-3
1.404515126E1,-6.493012428E0,1.278648949E1,9.040206075E-1
1.406181719E1,-8.870712280E0,1.352817059E1,3.607103586E0
1.407848313E1,-8.588474274E0,1.436857986E1,5.447362900E0
1.409514907E1,-6.479097366E0,1.626463890E1,5.834840775E0
1.411181500E1,-8.705751419E0,1.824257088E1,3.728837490E0
1.412848094E1,-1.276597786E1,1.928973007E1,2.342881918E0
1.414514688E1,-1.316643906E1,1.826202965E1,3.741313219E0
1.416181282E1,-1.036118507E1,1.507536221E1,6.820587635E0
1.417847876E1,-6.656101227E0,1.089509296E1,1.036613083E1
1.419514469E1,-4.065606594E0,8.004158020E0,1.096613216E1
1.421181063E1,-1.302350521E0,6.013543129E0,9.606466293E0
1.422847657E1,8.113250732E-1,5.176198006E0,8.300416946E0
1.424514250E1,2.879779816E0,4.799696922E0,8.299948692E0
1.426180844E1,6.193736076E0,4.073423862E0,1.420052910E1
1.427847438E1,1.836624908E1,2.787752151E-1,2.350360298E1
1.429514032E1,3.125422096E1,-6.913685799E0,2.613446236E1
1.431180626E1,3.069551468E1,-1.200466442E1,2.267204285E1
1.432847219E1,2.286400604E1,-1.453044224E1,1.679961586E1
1.434513813E1,1.623094940E1,-1.625327110E1,7.986619949E0
1.436180407E1,1.075092697E1,-1.549795628E1,-2.411237955E0
1.437847000E1,8.018560410E0,-1.591669464E1,-9.119044304E0
1.439513594E1,4.276435375E0,-1.757034111E1,-9.844031334E0
1.441180188E1,-1.927057266E0,-1.920756912E1,-8.307793617E0
1.442846782E1,-6.540664673E0,-2.029144669E1,-7.490864277E0
1.444513376E1,-1.021862602E1,-2.036451340E1,-9.706021309E0
1.446179969E1,-1.518573380E1,-1.886408997E1,-1.327679348E1
1.447846563E1,-1.816014290E1,-1.701642990E1,-1.480942154E1
1.449513157E1,-1.768251228E1,-1.603562546E1,-1.390322399E1
1.451179750E1,-1.427261257E1,-1.588669777E1,-1.004385471E1
1.452846344E1,-8.376897812E0,-1.581934929E1,-6.428954124E0
1.454512938E1,-2.086327553E0,-1.487074089E1,-4.207162380E0
1.456179532E1,1.789886951E0,-1.343562984E1,-3.122782946E0
1.457846126E1,4.852855682E0,-1.180996895E1,-1.222413540E0
1.459512719E1,1.171206760E1,-4.117141247E0,3.500792027E0
1.461179313E1,3.619577408E1,1.672506094E0,6.980143070E0
1.462845907E1,5.481993866E1,6.779470444E0,8.709147453E0
1.464512500E1,4.478555679E1,1.036276245E1,9.759086609E0
1.466179094E1,2.295026016E1,9.694305420E0,1.076249218E1
1.467845688E1,6.387299538E0,7.981597900E0,9.281986237E0
1.469512282E1,-3.197329044E0,7.115833282E0,5.093167782E0
1.471178876E1,-7.748614311E0,6.929821491E0,3.200967312E0
1.472845469E1,-1.020001125E1,7.088718414E0,3.593268156E0
1.474512063E1,-1.188212681E1,7.114122391E0,4.192755699E0
1.476178657E1,-1.232485676E1,6.488445759E0,4.717330933E0
1.477845250E1,-1.196085548E1,5.843684196E0,5.143398762E0
1.479511844E1,-1.183052921E1,6.475877762E0,6.023861885E0
1.481178438E1,-1.159496307E1,7.783475876E0,7.514366150E0
1.482845032E1,-9.572786331E0,1.017498112E1,8.736976624E0
1.484511626E1,-5.873931885E0,1.175029850E1,7.384574890E0
1.486178219E1,-4.872367382E0,1.121857452E1,4.539328575E0
1.487844813E1,-6.578940392E0,1.028052711E1,2.813281298E0
1.489511407E1,-7.590346336E0,1.092565060E1,5.233706832E-1
1.491178000E1,-3.870726585E0,1.388257027E1,-2.700897455E0
1.492844594E1,7.690147400E0,1.651681137E1,-5.156477928E0
1.494511188E1,2.481744194E1,1.541480446E1,-4.369172096E0
1.496177782E1,3.385190201E1,1.043058205E1,-1.232141852E0
1.497844376E1,2.887284470E1,3.768859863E0,4.033013344E0
1.499510969E1,2.104899788E1,-3.835590601E0,8.993415833E0
1.501177563E1,1.534878922E1,-1.029290581E1,9.402786255E0
1.502844157E1,1.156243324E1,-1.493536568E1,5.449344158E0
1.504510750E1,7.997517586E0,-1.878884315E1,1.399726987E0
1.506177344E1,2.452966213E0,-2.187281418E1,-1.186452150E0
1.507843938E1,-4.315471649E0,-2.382730103E1,-3.208559513E0
1.509510532E1,-1.009920025E1,-2.425002480E1,-3.923420906E0
1.511177126E1,-1.355436325E1,-2.483556938E1,-4.429602146E0
1.512843719E1,-1.640910339E1,-2.434298134E1,-5.009779453E0
1.514510313E1,-1.814810562E1,-2.275787735E1,-6.022943497E0
1.516176907E1,-1.626190567E1,-2.089617538E1,-6.076876640E0
1.517843500E1,-1.040298843E1,-1.936685944E1,-5.564128876E0
1.519510094E1,-2.266703606E0,-1.762035561E1,-5.617201805E0
1.521176688E1,4.098952770E0,-1.415110016E1,-5.226386070E0
1.522843282E1,1.027752495E1,-6.954351425E0,-1.529024482E0
1.524509876E1,2.994210434E1,1.030114651E0,3.302883625E0
1.526176469E1,5.066294861E1,7.086171150E0,4.432848930E0
1.527843063E1,4.483162308E1,1.120392799E1,3.507207155E0
1.529509657E1,2.180459023E1,1.111100578E1,5.464360237E0
1.531176250E1,5.170293808E0,8.822200775E0,6.517211914E0
1.532842844E1,-2.092775822E0,7.395994186E0,5.505641937E0
1.534509438E1,-5.585726738E0,7.171343803E0,4.895041943E0
1.536176032E1,-8.080132484E0,7.468859673E0,5.320706844E0
1.537842626E1,-9.430037498E0,7.974200726E0,5.534917831E0
1.539509219E1,-7.798426628E0,8.935544968E0,4.491401672E0
1.541175813E1,-8.402245522E0,1.038377380E1,2.212561131E0
1.542842407E1,-1.021675873E1,1.241496849E1,1.192822695E0
1.544509000E1,-1.149994373E1,1.414123917E1,1.301453233E0
1.546175594E1,-1.072163486E1,1.506023216E1,1.948844910E0
1.547842188E1,-8.425333977E0,1.412565041E1,2.831521988E0
1.549508782E1,-6.060485840E0,1.183608055E1,4.501574993E0
1.551175376E1,-4.239632130E0,9.485830307E0,5.451015472E0
1.552841969E1,-2.924088001E0,8.673461914E0,5.476162434E0
1.554508563E1,-9.245400429E-1,1.008658028E1,6.071839809E0
1.556175157E1,5.018422127E0,1.102073097E1,6.020444870E0
1.557841750E1,1.668036461E1,1.184139824E1,5.989413261E0
1.559508344E1,3.112357712E1,1.024573040E1,1.616909027E0
1.561174938E1,3.341795731E1,6.445431232E0,-4.207869530E0
1.562841532E1,2.710767555E1,5.163388252E-1,-2.974373817E0
1.564508126E1,1.860875320E1,-7.149664402E0,2.073719501E0
1.566174719E1,9.527935982E0,-1.401305294E1,6.429770947E0
1.567841313E1,2.160597324E0,-1.862496567E1,8.098606110E0
1.569507907E1,-3.246378899E-1,-2.305501175E1,6.025457382E0
1.571174501E1,-1.128663540E0,-2.633737183E1,2.534296274E0
1.572841094E1,-3.312966108E0,-2.819806099E1,-7.272936106E-1
1.574507688E1,-7.203028202E0,-2.983551407E1,-3.594265461E0
1.576174282E1,-1.235981369E1,-3.021022415E1,-5.086520672E0
1.577840876E1,-1.627315903E1,-3.014030647E1,-3.737948418E0
1.579507469E1,-1.650504684E1,-3.035326958E1,-8.687781096E-1
1.581174063E1,-1.198342323E1,-3.088832474E1,1.082858682E0
1.582840657E1,-2.254649639E0,-2.919337845E1,3.187066019E-1
1.584507251E1,8.593148232E0,-2.412299538E1,-4.863643646E0
1.586173844E1,2.047966385E1,-1.583334732E1,-6.310852051E0
1.587840438E1,3.592068100E1,-4.894896984E0,-1.170242071E0
1.589507032E1,4.705964661E1,4.995043755E0,7.946417809E0
1.591173626E1,4.067682266E1,1.335741711E1,1.722002029E1
1.592840219E1,2.599569321E1,1.813395309E1,1.610865593E1
1.594506813E1,1.112120533E1,2.408254433E1,7.471529484E0
1.596173407E1,-8.332796097E-1,3.015604401E1,2.429688692E0
1.597840001E1,-5.921878815E0,3.497257233E1,3.831608057E0
1.599506594E1,-9.255122185E0,3.703314209E1,7.802638054E0
1.601173188E1,-1.257156467E1,3.628322983E1,1.032954979E1
1.602839782E1,-1.269967556E1,3.382788467E1,9.821100235E0
1.604506376E1,-5.162426472E0,2.899859810E1,9.399881363E0
1.606172969E1,4.920001030E0,2.186010361E1,9.752230644E0
1.607839563E1,1.355629921E1,1.433617973E1,9.938192368E0
1.609506157E1,1.853293610E1,7.034778595E0,9.693829536E0
1.611172750E1,2.018092728E1,8.125138283E-1,9.103830338E0
1.612839344E1,2.603041077E1,-4.367712498E0,9.905226707E0
1.614505938E1,3.140017319E1,-1.168360424E1,8.416355133E0
1.616172532E1,3.303532791E1,-2.267234421E1,9.041390419E0
1.617839126E1,2.726665878E1,-3.682029724E1,1.370743465E1
1.619505719E1,1.568058395E1,-4.669633102E1,1.546622849E1
1.621172313E1,5.881280899E-1,-4.650841141E1,6.788743019E0
1.622838907E1,-1.320738983E1,-3.857502747E1,-4.832772255E0
1.624505500E1,-1.666098785E1,-3.164859772E1,-9.578793526E0
1.626172094E1,-1.528201866E1,-2.746701431E1,-6.732974052E0
1.627838688E1,-1.277185631E1,-2.375433540E1,-3.312248468E0
1.629505282E1,-8.355093002E0,-1.802343178E1,-2.262940407E0
1.631171876E1,1.044406891E-1,-9.769574165E0,-3.794531345E0
1.632838469E1,1.192229176E1,1.419831514E0,-4.657411575E0
1.634505063E1,1.899769592E1,1.513211823E1,-3.574471712E0
1.636171657E1,2.123653793E1,2.625583458E1,5.916786194E0
1.637838250E1,2.190964890E1,3.215700150E1,1.754020119E1
1.639504844E1,1.862049484E1,3.213291550E1,2.461232185E1
1.641171438E1,1.381520176E1,2.577197075E1,2.514970398E1
1.642838032E1,7.518897057E0,1.837335014E1,2.093020439E1
1.644504626E1,3.477803230E0,1.204189205E1,1.684361839E1
1.646171219E1,5.055396080E0,6.536530018E0,1.448378277E1
1.647837813E1,8.771991730E0,2.864737034E0,1.242451000E1
1.649504407E1,9.086440086E0,-5.849099159E-1,1.046119022E1
1.651171000E1,8.705294609E0,-2.529661655E-1,8.345209122E0
1.652837594E1,1.517782688E1,7.482686043E-1,9.675375938E0
1.654504188E1,2.244040108E1,-3.710263252E0,1.124205208E1
1.656170782E1,2.409088898E1,-1.230176544E1,1.278708458E1
1.657837376E1,1.823906326E1,-2.256098557E1,1.470702171E1
1.659503969E1,6.781816483E0,-2.841314125E1,1.696173668E1
1.661170563E1,-4.335433960E0,-2.737928200E1,1.700345802E1
1.662837157E1,-9.862787247E0,-2.482352448E1,1.186397839E1
1.664503750E1,-1.157694435E1,-2.203730965E1,5.019086361E0
1.666170344E1,-1.106287575E1,-1.953681183E1,-1.403053761E0
1.667836938E1,-8.609530449E0,-1.644858170E1,-7.017267704E0
1.669503532E1,-6.320971489E0,-1.274068642E1,-1.134261227E1
1.671170126E1,-5.092349052E0,-9.031376839E0,-1.285893154E1
1.672836719E1,-1.672684193E0,-4.627614975E0,-1.188414574E1
1.674503313E1,5.517372131E0,1.339776516E0,-8.685071945E0
1.676169907E1,1.697384262E1,6.514023781E0,-2.109016895E0
1.677836500E1,2.869430733E1,9.559852600E0,4.825343609E0
1.679503094E1,3.014077759E1,1.189346027E1,1.038880348E1
1.681169688E1,2.003401947E1,1.204707146E1,9.349294662E0
1.682836282E1,9.187217712E0,1.139950562E1,3.547295570E0
1.684502876E1,7.612476349E-1,1.140850735E1,-2.301909924E0
1.686169469E1,-6.213001251E0,1.286373711E1,-4.288202286E0
1.687836063E1,-1.033271599E1,1.502151108E1,-2.851339817E0
1.689502657E1,-9.105737686E0,1.752225494E1,1.212470651E0
1.691169250E1,-6.196295738E0,1.916930962E1,4.585454464E0
1.692835844E1,-5.716416836E0,1.947362900E1,5.692952633E0
1.694502438E1,-7.691795349E0,1.902997780E1,4.437830448E0
1.696169032E1,-8.909003258E0,1.856153870E1,3.638338327E0
1.697835626E1,-6.296188354E0,1.683813858E1,5.060208321E0
1.699502219E1,-8.362541199E-1,1.363286591E1,9.363421440E0
1.701168813E1,5.347560883E0,1.027475452E1,1.277802372E1
1.702835407E1,8.420134544E0,7.934226036E0,1.470760536E1
1.704502000E1,1.057079220E1,7.048100471E0,1.471513844E1
1.706168594E1,1.495143700E1,6.177164555E0,1.299754143E1
1.707835188E1,1.999349594E1,5.500662804E0,1.069331551E1
1.709501782E1,2.708852005E1,1.975869179E0,1.068709564E1
1.711168376E1,3.115243912E1,-4.658994675E0,1.181345749E1
1.712834969E1,2.836182404E1,-1.290229607E1,1.260768223E1
1.714501563E1,1.992392540E1,-2.058966064E1,1.362834358E1
1.716168157E1,1.100478745E1,-2.634041595E1,1.359698296E1
1.717834750E1,4.018916607E0,-2.949650002E1,1.000658226E1
1.719501344E1,-3.245440245E0,-2.954340172E1,5.393098831E0
1.721167938E1,-9.794117928E0,-2.817760468E1,1.192387462E0
1.722834532E1,-1.504177952E1,-2.574721909E1,-3.069143772E0
1.724501126E1,-1.738442612E1,-2.269141769E1,-4.901861668E0
1.726167719E1,-1.734830475E1,-2.053904343E1,-5.257087708E0
1.727834313E1,-1.439477253E1,-1.876376724E1,-6.066462040E0
1.729500907E1,-8.653906822E0,-1.708712769E1,-7.749140739E0
1.731167500E1,-3.546757221E0,-1.488697433E1,-1.087926292E1
1.732834094E1,-8.326182365E-1,-1.322540760E1,-1.179992294E1
1.734500688E1,1.222119331E0,-1.197185993E1,-1.061217213E1
1.736167282E1,4.925057411E0,-8.756626129E0,-5.839653969E0
1.737833876E1,2.334663963E1,-1.559886813E0,-1.910298824E0
1.739500469E1,4.949221039E1,6.386655807E0,-3.032075882E0
1.741167063E1,5.613041687E1,1.152953434E1,-4.684187889E0
1.742833657E1,3.796556473E1,1.445346832E1,-2.995032072E-1
1.744500250E1,1.564385986E1,1.209845257E1,3.080178738E0
1.746166844E1,2.039855003E0,1.055645370E1,3.378367901E0
1.747833438E1,-3.207022667E0,9.670327187E0,1.316389680E0
1.749500032E1,-7.087149620E0,9.518491745E0,6.817786098E-1
1.751166626E1,-1.116468716E1,9.859158516E0,1.437091351E0
1.752833219E1,-1.373974133E1,9.753545761E0,2.082922935E0
1.754499813E1,-1.175841236E1,9.806721687E0,7.754039764E-1
1.756166407E1,-8.688883781E0,1.041487980E1,-4.589247108E-1
1.757833000E1,-9.122617722E0,1.147905350E1,8.755263686E-1
1.759499594E1,-1.055153275E1,1.207914639E1,3.600171566E0
1.761166188E1,-9.992464066E0,1.196935558E1,6.196959496E0
1.762832782E1,-8.962385178E0,1.097439098E1,7.444541931E0
1.764499376E1,-8.308742523E0,9.150753975E0,7.567409039E0
1.766165969E1,-8.741429329E0,7.090478897E0,7.515350342E0
1.767832563E1,-7.501901150E0,6.038628578E0,7.152378082E0
1.769499157E1,-1.728637695E0,6.334026814E0,7.005609512E0
1.771165750E1,5.916202545E0,8.815231323E0,8.576509476E0
1.772832344E1,1.631212997E1,1.037089539E1,8.500901222E0
1.774498938E1,3.035399246E1,1.106248474E1,4.573914051E0
1.776165532E1,3.798327637E1,8.665819168E0,-4.862954021E-1
1.777832126E1,3.481880188E1,1.997928619E0,4.586005807E-1
1.779498719E1,2.401203156E1,-6.125867844E0,5.529664516E0
1.781165313E1,1.238364410E1,-1.246064472E1,8.080827713E0
1.782831907E1,4.178550720E0,-1.613507462E1,6.004758835E0
1.784498500E1,1.561808586E-1,-1.921008492E1,1.732110381E0
1.786165094E1,-3.376804113E0,-2.173191261E1,-1.942586660E0
1.787831688E1,-6.740382671E0,-2.322832489E1,-3.597211838E0
1.789498282E1,-9.673921585E0,-2.378084183E1,-3.379866123E0
1.791164876E1,-1.237477493E1,-2.366866875E1,-3.997400761E0
1.792831469E1,-1.387027550E1,-2.213721085E1,-5.248743534E0
1.794498063E1,-1.272706604E1,-2.029974747E1,-6.857893944E0
1.796164657E1,-9.090744019E0,-1.813269424E1,-8.201990128E0
1.797831250E1,-6.274898529E0,-1.553454781E1,-8.300062180E0
1.799497844E1,-5.107331276E0,-1.363527107E1,-7.455444813E0
1.801164438E1,-3.679498672E0,-1.231464386E1,-5.951779842E0
1.802831032E1,-5.912833214E-1,-1.044930458E1,-4.884535789E0
1.804497626E1,5.319932938E0,-4.396029472E0,-2.801393986E0
1.806164219E1,2.463211250E1,4.701696396E0,-3.320168853E-1
1.807830813E1,5.494889450E1,1.090727901E1,3.069484472E0
1.809497407E1,5.693117142E1,1.537509823E1,7.606543064E0
1.811164000E1,3.023904800E1,1.326630116E1,1.593150234E1
1.812830594E1,4.515048981E0,1.066010761E1,1.404705334E1
1.814497188E1,-5.763361931E0,1.037053680E1,6.737528324E0
1.816163782E1,-8.193004608E0,1.018539429E1,-1.152270585E-1
1.817830376E1,-1.064431953E1,1.005838776E1,-1.669468880E0
1.819496969E1,-1.361732960E1,9.192029953E0,-2.257950902E-1
1.821163563E1,-1.302290440E1,8.176035881E0,2.051248312E0
1.822830157E1,-8.463675499E0,8.485780716E0,3.158747673E0
1.824496750E1,-6.475439072E0,9.662023544E0,2.502684116E0
1.826163344E1,-8.369633675E0,1.112268543E1,1.077598572E0
1.827829938E1,-1.111390877E1,1.174150753E1,4.849942327E-1
1.829496532E1,-1.231211758E1,1.140433693E1,7.819541693E-1
1.831163126E1,-1.098014641E1,9.848783493E0,1.832832932E0
1.832829719E1,-7.565324306E0,7.489373207E0,3.638111353E0
1.834496313E1,-5.496044159E0,5.188701630E0,6.126636028E0
1.836162907E1,-3.747003078E0,2.930491924E0,9.146583557E0
1.837829501E1,-7.703518867E-1,3.258022308E0,1.216487312E1
1.839496094E1,7.401503563E0,5.517081738E0,1.559523964E1
1.841162688E1,2.581502533E1,4.249021530E0,1.777996826E1
1.842829282E1,4.033461761E1,4.974522591E-1,1.735197449E1
1.844495876E1,3.668216705E1,-2.907833099E0,1.383999443E1
1.846162469E1,2.419459343E1,-7.244102955E0,9.311967850E0
1.847829063E1,1.274714088E1,-1.155204964E1,5.296260834E0
1.849495657E1,5.027214527E0,-1.340461540E1,1.693799973E0
1.851162251E1,2.585780144E0,-1.431702805E1,-3.405397415E0
1.852828844E1,1.712496758E0,-1.458372307E1,-8.181372643E0
1.854495438E1,4.350271225E-1,-1.487040901E1,-1.137455559E1
1.856162032E1,-1.277249336E0,-1.519914246E1,-1.247353745E1
1.857828626E1,-1.915152550E0,-1.616073227E1,-1.227729416E1
1.859495219E1,-3.831525564E0,-1.604109955E1,-1.202135658E1
1.861161813E1,-7.443227768E0,-1.504429436E1,-1.299983120E1
1.862828407E1,-1.094259644E1,-1.396854210E1,-1.332178688E1
1.864495001E1,-1.199690437E1,-1.354672050E1,-1.189606094E1
1.866161594E1,-1.127814007E1,-1.389265156E1,-8.934962273E0
1.867828188E1,-9.767547607E0,-1.463908863E1,-4.330966949E0
1.869494782E1,-6.545352936E0,-1.539391518E1,-8.828749657E-1
1.871161376E1,-1.266791821E0,-1.564996719E1,-1.876797199E0
1.872827969E1,6.237378597E0,-1.139873409E1,-2.716623783E0
1.874494563E1,2.325601387E1,-6.984760761E0,1.425366640E0
1.876161157E1,4.513857269E1,-2.620439529E0,8.029935837E0
1.877827751E1,4.883244324E1,3.624069452E0,1.154010773E1
1.879494344E1,3.076443291E1,8.095899582E0,1.208134556E1
1.881160938E1,1.400856018E1,9.814989090E0,8.381114960E0
1.882827532E1,5.065584183E0,1.017306042E1,3.033125639E0
1.884494126E1,-1.280221939E-1,9.739191055E0,-8.143243790E-1
1.886160719E1,-3.770494461E0,8.624129295E0,-1.872683883E0
1.887827313E1,-6.608295441E0,7.135258675E0,-1.346241355E0
1.889493907E1,-9.218256950E0,5.481773853E0,3.425948620E-1
1.891160501E1,-9.668035507E0,3.923594952E0,2.727382183E0
1.892827094E1,-9.527459145E0,3.217380524E0,4.857459545E0
1.894493688E1,-9.584194183E0,4.015258789E0,6.761219978E0
1.896160282E1,-9.925048828E0,5.615669250E0,8.986780167E0
1.897826876E1,-1.042036438E1,6.926681519E0,1.034831142E1
1.899493469E1,-1.065297318E1,6.779359818E0,1.073479462E1
1.901160063E1,-1.082491493E1,5.067224503E0,9.688153267E0
1.902826657E1,-9.976573944E0,2.981045723E0,8.415920258E0
1.904493251E1,-7.343825817E0,1.468746185E0,6.785725594E0
1.906159844E1,-4.014544487E0,1.476068974E0,4.308617115E0
1.907826438E1,-2.254819393E0,3.471863747E0,4.220200539E0
1.909493032E1,3.412484169E0,6.797859192E0,7.616980553E0
1.911159626E1,2.153296471E1,8.614353180E0,1.253410053E1
1.912826219E1,4.022217560E1,8.507015228E0,1.017195415E1
1.914492813E1,4.244226456E1,6.505789280E0,2.359308898E-1
1.916159407E1,2.929450607E1,1.642130375E0,-2.785144091E0
1.917826001E1,1.221528816E1,-4.314779282E0,2.153626919E0
1.919492594E1,4.170279503E-1,-8.525687218E0,6.815222263E0
1.921159188E1,-4.211997032E0,-1.071072197E1,8.004612923E0
1.922825782E1,-4.645772934E0,-1.239946556E1,4.477350235E0
1.924492376E1,-4.538270950E0,-1.343214226E1,-6.292616129E-1
1.926158969E1,-3.718590736E0,-1.416567993E1,-4.434424400E0
1.927825563E1,-2.331274033E0,-1.450183010E1,-6.316074371E0
1.929492157E1,-1.785499096E0,-1.438782310E1,-7.162931442E0
1.931158751E1,-3.809150934E0,-1.445749283E1,-8.093299866E0
1.932825344E1,-6.858608723E0,-1.559749985E1,-8.158449173E0
1.934491938E1,-1.038847542E1,-1.706038666E1,-7.568266392E0
1.936158532E1,-1.309901428E1,-1.812240028E1,-6.501955032E0
1.937825126E1,-1.490463066E1,-1.830385971E1,-4.559987545E0
1.939491719E1,-1.652897072E1,-1.778578568E1,-3.577851295E0
1.941158313E1,-1.623777390E1,-1.761092949E1,-3.930482388E0
1.942824907E1,-1.502772331E1,-1.868910599E1,-6.071427822E0
1.944491501E1,-1.243401146E1,-2.009237671E1,-7.941815376E0
1.946158094E1,-2.383840084E0,-2.383851242E1,-5.738662720E0
1.947824688E1,2.569778824E1,-2.944537354E1,-2.721750259E0
1.949491282E1,5.360234833E1,-2.777903557E1,-9.205240250E0
1.951157876E1,6.114907074E1,-2.168682098E1,-1.436332798E1
1.952824469E1,4.504022598E1,-9.235349655E0,5.291793346E0
1.954491063E1,2.153937531E1,-6.116209030E0,2.059122467E1
1.956157657E1,3.780726433E0,-2.708296061E0,1.568803215E1
1.957824251E1,-1.818087578E0,1.898820162E0,5.943582058E0
1.959490844E1,-2.301788330E-2,4.454123497E0,7.373399734E-1
1.961157438E1,6.272668839E-1,6.443893433E0,-1.589534998E0
1.962824032E1,2.087249756E-1,8.063001633E0,-1.651764274E0
1.964490626E1,-4.857063293E-3,9.009578705E0,3.811001778E-3
1.966157219E1,-1.833512783E0,9.257765770E0,1.677296042E0
1.967823813E1,-5.352132320E0,9.503961563E0,3.370622635E0
1.969490407E1,-8.353898048E0,1.049774075E1,4.515011787E0
1.971157001E1,-9.642880440E0,1.135586071E1,5.052061081E0
1.972823594E1,-9.612644196E0,1.178292084E1,5.497216225E0
1.974490188E1,-8.711642265E0,1.178821754E1,5.744394302E0
1.976156782E1,-7.760499477E0,1.128440952E1,5.182517529E0
1.977823376E1,-7.247489929E0,1.030844688E1,3.917422295E0
1.979489969E1,-7.823459625E0,9.588740349E0,2.804281712E0
1.981156563E1,-8.424811363E0,8.902190208E0,2.221842051E0
1.982823157E1,-6.743068695E0,8.437669754E0,3.627876997E0
1.984489751E1,6.705713272E-1,6.525871754E0,6.808344841E0
1.986156344E1,1.511440086E1,2.444896221E0,9.135553360E0
1.987822938E1,2.811341476E1,2.317590237E0,1.025008774E1
1.989489532E1,3.744995499E1,2.654737711E0,1.288752460E1
1.991156126E1,4.340645599E1,-3.812906265E0,1.623350716E1
1.992822719E1,3.984350586E1,-1.041892815E1,1.719069099E1
1.994489313E1,2.928482246E1,-1.328724289E1,1.491988659E1
1.996155907E1,1.827458763E1,-1.416251087E1,1.039285183E1
1.997822501E1,9.420648575E0,-1.467075062E1,6.563663483E0
1.999489094E1,3.629769325E0,-1.487666035E1,4.856069565E0
2.001155688E1,7.582035065E-1,-1.544795990E1,3.656068802E0
2.002822282E1,-7.610397339E-1,-1.579989624E1,2.425972462E0
2.004488876E1,-1.897025585E0,-1.584396839E1,9.542109370E-1
2.006155469E1,-2.863131523E0,-1.579849815E1,-2.207170576E-1
2.007822063E1,-3.603239059E0,-1.552372742E1,-1.133785844E0
2.009488657E1,-3.878408909E0,-1.527460289E1,-1.485346675E0
2.011155251E1,-4.210460186E0,-1.474860382E1,-1.567083001E0
2.012821844E1,-4.341593742E0,-1.400682640E1,-1.458590627E0
2.014488438E1,-4.273211479E0,-1.338410091E1,-9.838960171E-1
2.016155032E1,-3.975739241E0,-1.317239952E1,-5.045225620E-1
2.017821626E1,-3.445924759E0,-1.357788563E1,-2.585859299E-1
2.019488219E1,-2.777903557E0,-1.425501442E1,7.150435448E-2
2.021154813E1,-1.527409077E0,-1.587605858E1,5.679273605E-2
2.022821407E1,-6.368079185E-1,-1.762821579E1,-6.377995014E-1
2.024488001E1,-2.457194805E0,-1.714050484E1,-2.553811550E0
2.026154594E1,-6.626096249E0,-1.447869205E1,-5.304108620E0
2.027821188E1,-1.197639656E1,-1.079062653E1,-6.810394287E0
2.029487782E1,-1.481113625E1,-6.966078758E0,-4.225953579E0
2.031154376E1,-9.091438293E0,-6.369828224E0,2.305489779E0
2.032820969E1,6.415616035E0,-9.996427536E0,1.102209854E1
2.034487563E1,1.763373184E1,-7.586208820E0,1.460723209E1
2.036154157E1,1.828614044E1,-2.740566015E0,6.065331459E0
2.037820751E1,1.573381424E1,-2.275090218E-1,-1.661058903E0
2.039487344E1,1.129222107E1,1.235466957E0,-4.332155228E0
2.041153938E1,5.478190422E0,1.902129650E0,-3.938213348E0
2.042820532E1,7.269630432E-1,2.259777784E0,-2.388962984E0
2.044487126E1,-2.215404034E0,2.223813534E0,-9.658906460E-1
2.046153719E1,-3.110082150E0,3.657118320E0,2.203911781E0
2.047820313E1,-1.347147465E0,5.965416908E0,5.389595509E0
2.049486907E1,-5.065199375E0,5.228512287E-1,-6.763489723E0
2.051153501E1,-6.197869301E0,5.399754047E0,-3.312580585E0
2.052820094E1,-2.912587166E0,4.874937534E0,1.371286631E0
2.054486688E1,-8.653964996E-1,4.224483490E0,1.165547490E0
2.056153282E1,-1.898898602E0,4.696477413E0,4.783807755E0
2.057819876E1,-3.529795170E0,5.972185135E0,9.151186943E0
2.059486469E1,-4.235283375E0,6.246147633E0,7.011073589E0
2.061153063E1,-3.886158466E0,7.024225712E0,3.863077641E0
2.062819657E1,-2.893892288E0,8.872279167E0,2.272418499E0
2.064486251E1,-6.724309921E-1,1.034489250E1,9.593087435E-1
2.066152844E1,3.011340141E0,9.174110413E0,6.623852849E-1
2.067819438E1,7.018956184E0,8.725451469E0,-4.942258596E-1
2.069486032E1,1.142451096E1,9.689575195E0,-1.182847857E0
2.071152626E1,1.775675583E1,9.511650085E0,-2.324748755E0
2.072819219E1,2.332526779E1,8.400943756E0,-2.940351963E0
2.074485813E1,2.291247940E1,6.855538845E0,-3.508879662E0
2.076152407E1,1.759450150E1,4.541778564E0,-2.181893826E0
2.077819001E1,1.057085037E1,1.261479378E0,8.298085928E-1
2.079485594E1,4.300021172E0,-2.198198795E0,3.050788641E0
2.081152188E1,-5.130853653E-1,-4.791553497E0,3.999345303E0
2.082818782E1,-3.630800724E0,-6.095750332E0,3.763543129E0
2.084485376E1,-5.147303581E0,-6.933676720E0,3.132035017E0
2.086151969E1,-5.372850418E0,-7.383874893E0,3.163483381E0
2.087818563E1,-5.159701347E0,-7.449780941E0,2.572993279E0
2.089485157E1,-4.707997322E0,-7.120223999E0,1.591831446E0
2.091151751E1,-4.143340111E0,-6.541411400E0,-3.344676495E-1
2.092818344E1,-3.785981417E0,-5.933121681E0,-2.547386408E0
2.094484938E1,-2.565785885E0,-5.158013821E0,-3.397551537E0
2.096151532E1,-2.590629816E0,-4.763644218E0,-3.148993254E0
2.097818126E1,-2.702733994E0,-4.340405941E0,-2.541892290E0
2.099484719E1,-3.019494772E0,-4.252210140E0,-1.040338993E0
2.101151313E1,-2.678236008E0,-3.765617609E0,4.249062538E-1
2.102817907E1,-2.269274235E0,-2.529544830E0,1.017047882E0
2.104484501E1,-1.442588091E0,-3.295640707E0,1.660075188E-1
2.106151094E1,-1.425309420E0,-3.221068144E0,-9.466767311E-1
2.107817688E1,-1.393630505E-1,-1.754042149E0,-1.425573826E0
2.109484282E1,8.613865376E-1,-1.355620146E0,-7.212429047E-1
2.111150876E1,1.648919106E0,-1.505868793E0,6.334686279E-2
2.112817469E1,1.796696424E0,-1.575356722E0,3.557119370E-1
2.114484063E1,1.518537998E0,-1.719732881E0,5.567293167E-1
2.116150657E1,6.921865940E-1,-1.199593902E0,3.817625046E-1
2.117817251E1,-2.500975132E-2,-6.040859222E-1,1.027173996E-1
2.119483844E1,9.326648712E-2,-5.451805592E-1,3.129482269E-2
2.121150438E1,7.779686451E-1,-5.890347958E-1,7.576494217E-1
2.122817032E1,1.254516125E0,-3.973741531E-1,1.741162300E0
2.124483626E1,1.165932775E0,-2.797292471E-1,1.842721939E0
2.126150219E1,9.851402044E-1,-5.084963441E-1,1.366433144E0
2.127816813E1,7.239612341E-1,-5.914852619E-1,1.072706223E0
2.129483407E1,4.992760718E-1,-6.055494547E-1,7.351102829E-1
2.131150001E1,1.123303175E0,-9.384559393E-1,3.668403625E-1
2.132816594E1,2.031634331E0,-6.457048059E-1,2.169977188E0
2.134483188E1,1.820753813E0,-3.130432367E-1,2.201686859E0
2.136149782E1,1.589400172E0,-7.253112793E-1,1.204151154E0
2.137816376E1,1.576340437E0,-7.994633317E-1,1.616991997E0
2.139482969E1,2.441519260E0,-1.033671141E0,3.033880234E0
2.141149563E1,3.340641260E0,-9.061306715E-1,4.198278427E0
2.142816157E1,3.390647173E0,-7.669539452E-1,3.770876884E0
2.144482751E1,2.904062271E0,-6.975090504E-1,2.876782417E0
2.146149344E1,2.410294533E0,-4.333226681E-1,1.552931786E0
2.147815938E1,2.266228676E0,-3.150804043E-1,1.205154419E0
2.149482532E1,1.721191168E0,-2.797365189E-2,1.580351830E0
2.151149126E1,1.992014170E0,-1.623787880E-1,1.471596718E0
2.152815719E1,2.868010521E0,2.656364441E-2,4.120588303E-1
2.154482313E1,3.262046099E0,7.389497757E-2,-5.231642723E-1
2.156148907E1,2.547232151E0,9.103870392E-2,-1.298996925E0
2.157815501E1,1.393071532E0,-5.721044540E-2,-2.028526783E0
2.159482094E1,8.222450614E-1,-1.100301743E-1,-2.626762867E0
2.161148688E1,5.782182217E-1,-2.351951599E-1,-2.833933830E0
2.162815282E1,1.580009103E0,-5.005455017E-2,-2.209167957E0
2.164481876E1,2.173266649E0,-3.616685867E-1,-9.619665146E-1
2.166148469E1,1.881435752E0,-9.373359680E-1,-2.033214569E-1
2.167815063E1,1.431830406E0,-1.013173580E0,-4.576349258E-1
2.169481657E1,1.369198561E0,-4.694156647E-1,-1.232573032E0
2.171148251E1,1.424776554E0,2.496819496E-1,-1.642596722E0
2.172814844E1,1.515801191E0,4.861984253E-1,-1.301322460E0
2.174481438E1,1.443260908E0,5.346899033E-1,-1.892433167E-1
2.176148032E1,1.102132916E0,4.077920914E-1,4.060630798E-1
2.177814626E1,2.597066164E-1,3.464984894E-1,1.430768967E-1
2.179481219E1,-8.066533804E-1,3.384160995E-1,8.948183060E-2
2.181147813E1,-1.444362879E0,5.678720474E-1,6.299333572E-1
2.182814407E1,-1.076173902E0,1.418631554E0,1.361572742E0
2.184481001E1,2.499569058E-1,1.009259224E0,1.562240124E0
2.186147594E1,1.035964012E0,5.882987976E-1,6.192955971E-1
2.187814188E1,6.759257913E-1,-4.155158997E-3,5.326747894E-2
2.189480782E1,-3.772642016E-1,-6.168704033E-1,-3.304271698E-1
2.191147376E1,-1.428004384E0,-9.024653435E-1,-4.520936012E-1
2.192813969E1,-1.889662623E0,-9.910449982E-1,9.884977341E-2
2.194480563E1,-1.470204592E0,-8.411641121E-1,-1.859607697E-1
2.196147157E1,-2.242493629E-1,-9.974684715E-1,-7.379579544E-2
2.197813751E1,3.760586381E-1,-8.504190445E-1,2.090778351E-1
2.199480344E1,2.608188987E-1,-9.675879478E-1,1.745748520E-1
2.201146938E1,5.848407745E-2,-1.089565754E0,4.926605225E-1
2.202813532E1,1.776402593E-1,-1.333133221E0,3.137698174E-1
2.204480126E1,4.523253441E-2,-1.167499065E0,-2.257318497E-1
2.206146719E1,-3.734846115E-1,-9.229636192E-1,-5.835590363E-1
2.207813313E1,-6.670824289E-1,-7.041611671E-1,-2.506790161E-1
2.209479907E1,-1.223815322E0,-2.383470535E-1,6.166172028E-2
2.211146501E1,-1.713514924E0,-2.223787308E-1,4.937081337E-1
2.212813094E1,-2.105704308E0,-1.181001663E-1,7.313165665E-1
2.214479688E1,-1.977039218E0,-8.207607269E-2,1.157856941E0
2.216146282E1,-1.429020047E0,-4.172801971E-2,1.890444279E0
2.217812876E1,-8.102229834E-1,-2.278451920E-1,2.441124916E0
2.219479469E1,-3.404786587E-1,-5.231027603E-1,1.754736423E0
2.221146063E1,-5.226761103E-2,-8.779873848E-1,9.478754997E-1
2.222812657E1,-1.311212778E-2,-8.627052307E-1,-1.900720596E-1
2.224479251E1,-4.184748530E-1,-1.063588619E0,-1.534831762E0
2.226145844E1,-1.084694386E0,-1.100082874E0,-2.201729298E0
2.227812438E1,-1.588056326E0,-8.707990646E-1,-2.016675234E0
2.229479032E1,-1.911353588E0,-7.149906158E-1,-2.298602581E0
2.231145626E1,-1.934156895E0,-5.634021759E-1,-2.549656630E0
2.232812219E1,-1.110547543E0,-3.879327774E-1,-1.730310202E0
2.234478813E1,7.272122502E-1,-5.708746910E-1,3.553490639E-1
2.236145407E1,1.576567054E0,-7.685227394E-1,1.040899754E0
2.237812001E1,7.762932777E-1,-2.594313622E-1,6.497526169E-1
2.239478594E1,-1.784553230E-1,1.959524155E-1,9.568691254E-1
2.241145188E1,-4.571593404E-1,2.333621979E-1,8.705863953E-1
2.242811782E1,-1.813635826E-1,2.337112427E-1,1.011340618E0
2.244478376E1,-8.188802004E-2,2.026166916E-1,9.264168739E-1
2.246144969E1,-2.401037067E-1,1.459779739E-1,3.936128616E-1
2.247811563E1,-3.638924062E-1,3.592758179E-1,-4.328250885E-3
2.249478157E1,-1.990177631E-1,5.964126587E-1,6.940841675E-3
2.251144751E1,-1.593606770E-1,7.403259277E-1,1.033939362E0
2.252811344E1,-3.039287925E-1,9.119586945E-1,1.563308239E0
2.254477938E1,-3.278972805E-1,1.031904221E0,8.122587204E-1
2.256144532E1,-1.219926178E-1,1.221379280E0,-1.675033569E-2
2.257811126E1,-1.216770858E-1,1.359558105E0,-5.424141884E-1
2.259477719E1,1.317223907E-2,1.322192192E0,-7.331171036E-1
2.261144313E1,2.311714292E-1,1.237608910E0,3.033685684E-1
2.262810907E1,4.118515253E-1,1.070758820E0,1.413130283E0
2.264477501E1,7.797906399E-1,7.837696075E-1,1.952066898E0
2.266144094E1,8.538471460E-1,5.072669983E-1,1.839468956E0
2.267810688E1,5.563529134E-1,2.576007843E-1,8.633346558E-1
2.269477282E1,5.738675594E-2,-1.524648666E-1,-1.969776154E-1
2.271143876E1,-1.014416814E-1,-5.581116676E-1,-9.799652100E-1
2.272810469E1,-1.366330385E-1,-8.907599449E-1,-1.037249088E0
2.274477063E1,6.594308019E-1,-1.294680119E0,-3.639459610E-1
2.276143657E1,-6.891043782E-1,-1.027456760E0,-1.501306534E0
2.277810250E1,-2.175983787E-1,-1.120810986E0,-1.849648237E0
2.279476844E1,1.993393898E-1,-1.327237606E0,-8.553657532E-1
2.281143438E1,8.237087727E-2,-1.315078735E0,-4.277658463E-2
2.282810032E1,2.443507314E-1,-1.062004566E0,3.770117760E-1
2.284476626E1,2.382467389E-1,-8.246788979E-1,1.129153728E0
2.286143219E1,1.996018291E-1,-8.359389305E-1,1.574992180E0
2.287809813E1,4.562669992E-1,-1.043061256E0,1.196480751E0
2.289476407E1,1.000988483E0,-1.122957706E0,1.461672783E-1
2.291143000E1,7.584354281E-1,-9.605550766E-1,-5.488181114E-1
2.292809594E1,3.435460925E-1,-4.918870926E-1,-1.773467064E-1
2.294476188E1,2.565928102E-1,-2.901606560E-1,1.441954613E0
2.296142782E1,4.098471999E-2,-4.286313057E-1,2.777306080E0
2.297809376E1,-7.449239492E-3,-7.408537865E-1,2.011079788E0
2.299475969E1,1.741375774E-1,-9.103455544E-1,1.034117699E0
2.301142563E1,-3.772970736E-1,-4.359540939E-1,5.198607445E-1
2.302809157E1,-6.755874753E-1,-1.436524391E-1,-9.440755844E-2
2.304475750E1,-2.329068184E-1,1.255583763E-1,-5.262594223E-1
2.306142344E1,5.378530025E-1,1.900429726E-1,-7.299485207E-1
2.307808938E1,7.799592018E-1,7.581329346E-2,-5.920438766E-1
2.309475532E1,6.681405902E-1,-9.012365341E-2,-7.061843872E-1
2.311142126E1,3.748895526E-1,-7.494831085E-2,-4.405989647E-1
2.312808719E1,6.967704296E-1,-7.643079758E-2,-1.536240578E-1
2.314475313E1,1.370758295E0,-1.623106003E-2,-1.481342316E-2
2.316141907E1,1.570255041E0,1.860580444E-1,4.352855682E-1
2.317808500E1,9.204674363E-1,4.978594780E-1,3.050646782E-1
2.319475094E1,-1.130729914E-1,1.088106632E0,1.854858398E-1
2.321141688E1,-2.176308632E-1,1.314536572E0,-1.242833138E-1
2.322808282E1,2.401030064E-2,1.206976414E0,-5.091085434E-1
2.324474876E1,8.460390568E-2,1.288212776E0,-6.261448860E-1
2.326141469E1,4.653829932E-1,8.330230713E-1,-3.969264030E-1
2.327808063E1,7.304922342E-1,5.647025108E-1,6.554441452E-1
2.329474657E1,8.590701818E-1,3.905854225E-1,1.024531364E0
2.331141250E1,8.737094402E-1,5.736465454E-1,8.109784126E-1
2.332807844E1,8.670479059E-1,5.449762344E-1,6.463847160E-1
2.334474438E1,7.013362050E-1,4.526014328E-1,4.565167427E-1
2.336141032E1,5.021885633E-1,4.197220802E-1,2.646374702E-1
2.337807626E1,4.660860300E-1,4.319801331E-1,1.396260262E-1
2.339474219E1,6.616917253E-1,3.355054855E-1,-8.029603958E-2
2.341140813E1,8.404707313E-1,5.130667686E-1,-5.938196182E-1
2.342807407E1,6.781235933E-1,8.192768097E-1,-1.571032047E0
2.344474000E1,-3.547711372E-1,1.460820675E0,-2.816605091E0
2.346140594E1,-8.718571663E-1,7.588682175E-1,1.005075455E0
2.347807188E1,-3.822834492E-1,3.292322159E-1,2.900018215E0
2.349473782E1,-1.712589264E-1,1.593160629E-1,3.477762222E0
2.351140376E1,-2.132456303E-1,-1.221699715E-1,2.411571980E0
2.352806969E1,-2.885463238E-1,-3.326840401E-1,9.154591560E-1
