"Time (s)","Acceleration x (m/s^2)","Acceleration y (m/s^2)","Acceleration z (m/s^2)"
1.205495200E-2,2.452344179E0,2.537588358E0,6.698407650E0
2.872089000E-2,2.034497499E0,2.565704107E0,6.093921185E0
4.538682700E-2,2.337787628E0,2.387737989E0,6.707979202E0
6.205276500E-2,1.869093537E0,2.511267424E0,8.527421951E0
7.871870200E-2,2.025225163E0,2.831008196E0,8.483453751E0
9.538464000E-2,3.009572744E0,2.838186741E0,7.758428097E0
1.120505770E-1,3.927818298E0,2.706282377E0,7.483552933E0
1.287165150E-1,3.780360699E0,2.468794823E0,8.629714966E0
1.453824520E-1,2.785544634E0,2.255235434E0,1.005284595E1
1.620483900E-1,2.141875267E0,1.877169371E0,1.080718327E1
1.787143270E-1,2.013261080E0,1.516750455E0,1.067856884E1
1.953802650E-1,2.195115566E0,1.347458243E0,9.626325607E0
2.120462020E-1,3.030808926E0,1.459920883E0,8.621041298E0
2.287121400E-1,2.598306179E0,2.361416817E0,6.754340172E0
2.453780770E-1,2.612364054E0,1.769791484E0,6.004788399E0
2.620440150E-1,2.827120066E0,5.030909777E-1,6.452545166E0
2.787099520E-1,2.906980515E0,6.460621357E-1,7.856832981E0
2.953758900E-1,4.671388149E0,8.001000881E-1,8.780761719E0
3.120418270E-1,7.339086056E0,-1.472483277E0,7.197909832E0
3.287077650E-1,5.301896572E0,2.584248543E0,8.314460754E0
3.453737020E-1,4.650749683E0,2.232802629E0,8.370093346E0
3.620396400E-1,5.548357487E0,3.041875660E-1,8.384151459E0
3.787055770E-1,4.609772682E0,1.292423368E0,7.573582649E0
3.953715150E-1,2.044068813E0,5.638387680E0,2.863012314E0
4.120374520E-1,2.991028309E0,6.874280453E0,5.205286503E0
4.287033900E-1,3.911367655E0,6.782754898E0,1.292273808E1
4.453693270E-1,2.333002090E0,8.648558617E0,2.394587326E1
4.620352650E-1,1.343868971E0,1.096989536E1,2.855893707E1
4.787012020E-1,1.037288666E0,1.241157150E1,2.074397850E1
4.953671400E-1,2.764308453E0,1.326550961E1,1.110867882E1
5.120330770E-1,5.799603939E0,1.234008503E1,1.227697468E1
5.286990150E-1,6.972385883E0,8.528019905E0,2.200499535E1
5.453649520E-1,5.637190819E0,4.990829945E0,2.829393196E1
5.620308900E-1,6.928118706E0,2.661117792E0,2.261038017E1
5.786968270E-1,7.584649563E0,2.045564175E0,1.155434227E1
5.953627650E-1,7.374978542E0,1.497906923E0,5.277669430E0
6.120287020E-1,5.622535229E0,-1.136590727E-2,4.977370262E0
6.286946400E-1,3.004188776E0,-6.607181430E-1,6.812366009E0
6.453605770E-1,9.981061220E-1,-5.581258535E-1,7.302296638E0
6.620265150E-1,-6.658028960E-1,-4.369892478E-1,6.788138866E0
6.786924520E-1,-1.525424421E-1,-1.451546073E0,3.807579041E0
6.953583900E-1,2.389831543E0,-2.507079840E0,-1.717448473E0
7.120243270E-1,5.293222904E0,-2.540280342E0,-6.087340832E0
7.286902650E-1,6.930511475E0,-1.897508383E0,-7.264609337E0
7.453562020E-1,6.489036083E0,-1.999203324E0,-4.483850479E0
7.620221400E-1,5.797211170E0,-1.491326690E0,1.000798106E0
7.786880770E-1,7.211369038E0,-1.022034407E0,4.435395718E0
7.953540150E-1,1.022393322E1,-1.596012712E0,4.563711166E0
8.120199520E-1,1.208345509E1,-2.503191471E0,3.674478292E0
8.286858900E-1,1.232243824E1,-1.617249012E0,4.672883511E0
8.453518270E-1,1.453101349E1,-2.697907388E-1,7.964809418E0
8.620177650E-1,1.795185280E1,1.098903775E0,1.194287682E1
8.786837020E-1,2.088246155E1,3.767798424E0,1.471017647E1
8.953496400E-1,2.363420868E1,5.769693375E0,1.443948841E1
9.120155770E-1,2.393241310E1,5.507081509E0,1.256740379E1
9.286815150E-1,1.966780663E1,4.491627216E0,1.219262791E1
9.453474520E-1,1.281296730E1,3.544966698E0,1.380808258E1
9.620133900E-1,8.627620697E0,3.380759239E0,1.510618877E1
9.786793270E-1,7.459624767E0,3.601198196E0,1.383859062E1
9.953452650E-1,6.818048954E0,4.575376034E0,9.895518303E0
1.012011202E0,6.185446739E0,6.052046776E0,5.858228207E0
1.028677140E0,8.219346046E0,7.782356739E0,2.572284460E0
1.045343077E0,9.955338478E0,9.945169449E0,1.814656854E0
1.062009015E0,1.008993530E1,1.195753288E1,3.356531858E0
1.078674952E0,1.096122169E1,1.385145187E1,5.841179371E0
1.095340890E0,9.986145973E0,1.438564968E1,6.259325027E0
1.112006827E0,7.399505138E0,1.329841137E1,2.755933523E0
1.128672765E0,4.968397141E0,1.099232769E1,1.115653589E-1
1.145338702E0,2.649452925E0,8.621339798E0,-9.113663435E-1
1.162004640E0,1.179661512E0,6.594918251E0,-5.138586760E-1
1.178670577E0,8.970093727E-1,5.501398563E0,1.243669510E0
1.195336515E0,1.226022482E0,4.324129581E0,3.253640652E0
1.212002452E0,1.991426587E0,2.933301449E0,5.730212212E0
1.228668390E0,2.277967215E0,1.477268934E0,6.723831654E0
1.245334327E0,2.511865616E0,8.048857450E-1,5.336293697E0
1.262000265E0,1.951645970E0,3.191128016E0,4.159324169E0
1.278666202E0,3.536591768E0,7.088139057E0,2.997010469E0
1.295332140E0,1.029661465E1,1.001934624E1,4.392923355E0
1.311998077E0,1.766232109E1,1.255603790E1,7.934599876E0
1.328664015E0,2.337398911E1,1.589851189E1,1.100698376E1
1.345329952E0,2.224188423E1,1.521356678E1,1.050748253E1
1.361995890E0,1.721516228E1,1.409881020E1,8.268398285E0
1.378661827E0,1.068485069E1,1.198594761E1,3.340978622E0
1.395327765E0,4.704887390E0,1.051137066E1,-1.259521961E0
1.411993702E0,3.481557071E-1,9.903892517E0,-5.517549992E0
1.428659640E0,-2.184347868E0,9.811470032E0,-7.720442295E0
1.445325577E0,-3.350250721E0,9.205188751E0,-7.902296543E0
1.461991515E0,-3.673281908E0,8.282456398E0,-5.957231045E0
1.478657452E0,-3.391526937E0,7.513463020E0,-2.796312332E0
1.495323390E0,-2.254936218E0,7.304090977E0,1.170987606E0
1.511989327E0,-5.955137610E-1,7.318747044E0,4.048057556E0
1.528655265E0,1.655534148E0,6.833602428E0,4.242773533E0
1.545321202E0,4.397110939E0,6.388537407E0,2.496013165E0
1.561987140E0,6.647859573E0,6.128018856E0,1.674078584E0
1.578653077E0,8.286344528E0,6.206383705E0,2.622533560E0
1.595319015E0,8.967103004E0,6.436094761E0,3.319443226E0
1.611984952E0,9.232706070E0,6.568896294E0,2.738286495E0
1.628650890E0,9.015856743E0,6.412764549E0,2.154736757E0
1.645316827E0,8.593822479E0,5.961418629E0,2.508874655E0
1.661982765E0,7.633104324E0,5.144568920E0,3.318545818E0
1.678648702E0,6.398407936E0,4.808975220E0,3.782753468E0
1.695314640E0,5.241178989E0,5.018048286E0,3.413660526E0
1.711980577E0,4.444668293E0,5.374279499E0,2.178964138E0
1.728646515E0,4.482953072E0,5.405087471E0,3.664009571E-1
1.745312452E0,4.550251484E0,5.303392410E0,-1.216451168E0
1.761978390E0,4.482953072E0,5.551647663E0,-1.947757602E0
1.778644327E0,4.216751575E0,6.270092487E0,-1.402792215E0
1.795310265E0,4.818845749E0,7.533204079E0,-9.870393574E-2
1.811976202E0,6.769594193E0,7.990531921E0,-9.562317729E-1
1.828642140E0,8.381160736E0,7.840681553E0,-2.843570709E0
1.845308077E0,1.017787075E1,8.074580193E0,-2.404786825E0
1.861974015E0,1.348206043E1,9.445367813E0,-9.568299651E-1
1.878639952E0,1.463898945E1,1.004477024E1,2.721835673E-2
1.895305890E0,1.211456203E1,9.979565620E0,2.453540564E0
1.911971827E0,8.855836868E0,9.632008553E0,4.498207569E0
1.928637765E0,8.828618050E0,8.472985268E0,6.083452702E0
1.945303702E0,1.399561977E1,7.866703510E0,6.698707104E0
1.961969640E0,1.603998756E1,8.575278282E0,6.981359005E0
1.978635577E0,1.275553894E1,8.643773079E0,5.793920994E0
1.995301515E0,8.149056435E0,8.219944000E0,4.120440483E0
2.011967452E0,5.922235966E0,7.459325314E0,4.289433479E0
2.028633390E0,5.191228867E0,6.822535515E0,5.538786411E0
2.045299327E0,4.498207569E0,6.085845470E0,6.506383896E0
2.061965265E0,5.606981754E0,5.627021313E0,7.314559937E0
2.078631202E0,7.563114166E0,5.934499264E0,7.760222912E0
2.095297140E0,6.477071762E0,5.781956673E0,6.172883987E0
2.111963077E0,4.737788677E0,5.229514122E0,4.217947960E0
2.128629015E0,4.017848492E0,4.841876507E0,2.566900492E0
2.145294952E0,3.838087559E0,4.843970299E0,2.741576433E0
2.161960890E0,4.065405846E0,5.041677475E0,4.202394962E0
2.178626827E0,4.782953262E0,5.145166874E0,5.605485916E0
2.195292765E0,5.220839977E0,5.471786976E0,6.905686378E0
2.211958702E0,5.350052357E0,5.647360325E0,8.122436523E0
2.228624640E0,5.565107346E0,5.633003712E0,8.973383904E0
2.245290577E0,5.572584629E0,5.175974369E0,9.227023125E0
2.261956515E0,5.251946449E0,4.604389191E0,9.105886459E0
2.278622452E0,4.790132046E0,3.930510283E0,8.238189697E0
2.295288390E0,3.949054718E0,3.242872953E0,7.215855598E0
2.311954327E0,3.184846878E0,2.551646233E0,6.587141514E0
2.328620265E0,2.888136864E0,2.172383785E0,6.414858341E0
2.345286202E0,2.887837887E0,2.243869543E0,6.800402164E0
2.361952140E0,2.898904562E0,2.761018276E0,7.236494064E0
2.378618077E0,3.968197346E0,3.523132324E0,7.548458099E0
2.395284015E0,6.360122681E0,4.624428749E0,9.110671997E0
2.411949952E0,8.298009872E0,5.239683151E0,1.235115242E1
2.428615890E0,9.448060036E0,5.314758301E0,1.501436424E1
2.445281827E0,1.026161957E1,4.916951656E0,1.534397507E1
2.461947765E0,1.001815033E1,4.915455818E0,1.380778313E1
2.478613702E0,9.331708908E0,4.773082733E0,1.098694420E1
2.495279640E0,8.508578300E0,4.311866283E0,8.201399803E0
2.511945577E0,7.134200573E0,3.852444410E0,6.037091732E0
2.528611515E0,5.473282814E0,3.346063375E0,4.899603367E0
2.545277452E0,4.083052635E0,3.082553864E0,4.737489700E0
2.561943390E0,3.632902861E0,2.857030153E0,5.171188831E0
2.578609327E0,3.848556042E0,2.930609465E0,6.032904148E0
2.595275265E0,4.247858524E0,2.988037348E0,6.592226505E0
2.611941202E0,4.485944271E0,2.809472799E0,6.228816509E0
2.628607140E0,4.706682205E0,3.061018467E0,5.581857204E0
2.645273077E0,4.816751957E0,3.276073217E0,4.977669239E0
2.661939015E0,4.987240791E0,3.554538012E0,5.199304581E0
2.678604952E0,5.349453926E0,3.687937975E0,6.310471535E0
2.695270890E0,5.988337994E0,3.868296862E0,8.026424408E0
2.711936827E0,6.318846226E0,3.881158352E0,9.137591362E0
2.728602765E0,6.045167446E0,3.695714474E0,9.178568840E0
2.745268702E0,5.472684383E0,3.695116282E0,8.462815285E0
2.761934640E0,5.176273346E0,3.656532049E0,7.786543846E0
2.778600577E0,5.338088036E0,3.635594845E0,7.380362511E0
2.795266515E0,5.759523869E0,3.580559969E0,7.433901787E0
2.811932452E0,6.287440777E0,3.540779352E0,7.922336578E0
2.828598390E0,6.672984123E0,3.689732552E0,8.283054352E0
2.845264327E0,6.816254616E0,3.648157120E0,8.140083313E0
2.861930265E0,6.901199818E0,3.401098251E0,7.552346706E0
2.878596202E0,7.031309128E0,3.241676569E0,6.989135742E0
2.895262140E0,7.436892986E0,3.243471146E0,7.441379547E0
2.911928077E0,7.890631676E0,3.432803154E0,9.088239670E0
2.928594015E0,7.994420528E0,3.468097210E0,1.094028378E1
2.945259952E0,7.830213070E0,3.410071373E0,1.158544922E1
2.961925890E0,7.467999458E0,3.055933714E0,1.070758247E1
2.978591827E0,6.545865536E0,2.905484915E0,8.933603287E0
2.995257765E0,5.695217133E0,2.799303293E0,6.792325974E0
3.011923702E0,5.587540150E0,2.770290375E0,4.914259434E0
3.028589640E0,6.012565136E0,2.907279491E0,3.637987614E0
3.045255577E0,6.512066841E0,2.986840963E0,3.061317444E0
3.061921515E0,6.323033810E0,3.011068106E0,3.503690481E0
3.078587452E0,5.738586903E0,3.111865759E0,4.650749683E0
3.095253390E0,5.262415409E0,3.262613773E0,6.382256031E0
3.111919327E0,5.297410011E0,3.371487141E0,7.526922703E0
3.128585265E0,5.584847927E0,3.387638569E0,8.120641708E0
3.145251202E0,5.434997559E0,3.313760281E0,8.482556343E0
3.161917140E0,5.484648705E0,3.513261795E0,7.947461128E0
3.178583077E0,5.959623814E0,3.564408541E0,7.327122211E0
3.195249015E0,6.288337708E0,3.564707518E0,6.669693947E0
3.211914952E0,6.250351906E0,3.551846027E0,6.654439926E0
3.228580890E0,6.087938786E0,3.426821232E0,6.699604511E0
3.245246827E0,5.711069584E0,3.117548704E0,6.611967087E0
3.261912765E0,5.675177097E0,3.416352510E0,6.370591164E0
3.278578702E0,5.457430363E0,3.086441994E0,5.480461121E0
3.295244640E0,5.192724228E0,3.152543783E0,5.376971722E0
3.311910577E0,4.916353226E0,3.101696253E0,6.978667259E0
3.328576515E0,5.018347263E0,2.997907639E0,7.908876896E0
3.345242452E0,4.362414837E0,2.963809967E0,8.740083694E0
3.361908390E0,4.268795490E0,3.559622765E0,7.733901978E0
3.378574327E0,4.202394962E0,3.080759048E0,6.557829380E0
3.395240265E0,3.874279022E0,3.166601658E0,5.149653435E0
3.411906202E0,3.754338741E0,4.269692898E0,6.928118706E0
3.428572140E0,4.462913513E0,3.527917862E0,7.560721397E0
3.445238077E0,4.722534657E0,3.451347589E0,8.375178337E0
3.461904015E0,4.804189682E0,3.526422262E0,8.889336586E0
3.478569952E0,4.730011940E0,3.434298754E0,8.758029938E0
3.495235890E0,4.284647942E0,3.472284794E0,9.248259544E0
3.511901827E0,4.427320004E0,3.636492252E0,1.069262695E1
3.528567765E0,5.714359760E0,3.920938969E0,1.190967655E1
3.545233702E0,6.555736065E0,3.664607763E0,1.154028416E1
3.561899640E0,6.242276192E0,3.250948668E0,1.073539925E1
3.578565577E0,5.842973709E0,2.740978241E0,1.020120144E1
3.595231515E0,5.686542988E0,2.500798702E0,9.926624298E0
3.611897452E0,5.644967556E0,2.378764868E0,9.392725945E0
3.628563390E0,5.602495193E0,2.407179594E0,8.583951950E0
3.645229327E0,5.475077152E0,2.143670082E0,8.234899521E0
3.661895265E0,5.161318302E0,1.868495345E0,8.615956306E0
3.678561202E0,4.781756878E0,1.539183140E0,9.054141998E0
3.695227140E0,4.668995380E0,1.552941918E0,8.624032021E0
3.711893077E0,4.639982224E0,2.027019978E0,7.867600918E0
3.728559015E0,4.881358147E0,2.077867270E0,7.232007504E0
3.745224952E0,5.331807137E0,2.105085611E0,7.194918633E0
3.761890890E0,6.131906986E0,2.336591244E0,7.139883518E0
3.778556827E0,6.854838848E0,2.613560438E0,7.259823799E0
3.795222765E0,6.754041195E0,2.480758905E0,7.928019524E0
3.811888702E0,6.345765591E0,2.444866419E0,8.250751495E0
3.828554640E0,5.816652775E0,2.320140600E0,8.610273361E0
3.845220577E0,5.383252621E0,2.403291225E0,8.807381630E0
3.861886515E0,5.297410011E0,2.318346024E0,8.552845001E0
3.878552452E0,5.405984402E0,2.777767897E0,9.163613319E0
3.895218390E0,5.359922886E0,2.845664263E0,8.454141617E0
3.911884327E0,5.078765869E0,3.011666298E0,7.698308468E0
3.928550265E0,5.101497650E0,3.188436270E0,7.333403111E0
3.945216202E0,5.198706150E0,3.361915827E0,7.602296829E0
3.961882140E0,4.972285271E0,3.333201885E0,8.159226418E0
3.978548077E0,4.767699242E0,3.624827147E0,8.789435387E0
3.995214015E0,4.896612644E0,3.899403572E0,9.582656860E0
4.011879952E0,5.342275620E0,4.314558506E0,9.512965202E0
4.028545890E0,5.761617661E0,4.706083775E0,8.569295883E0
4.045211827E0,5.653342724E0,5.006981373E0,7.442874908E0
4.061877765E0,5.091926575E0,4.912465096E0,6.682555676E0
4.078543702E0,4.354638100E0,4.754239559E0,6.136991978E0
4.095209640E0,3.399303675E0,4.670789719E0,5.411667347E0
4.111875577E0,3.235096216E0,4.894518852E0,5.010570526E0
4.128541515E0,3.925724745E0,5.229514122E0,4.161118507E0
4.145207452E0,4.161716938E0,5.061119080E0,3.806083441E0
4.161873390E0,3.319144011E0,5.412863731E0,5.135595798E0
4.178539327E0,1.724925995E0,7.097112179E0,7.149455070E0
4.195205265E0,1.928315997E0,6.857530594E0,7.507780075E0
4.211871202E0,3.600898981E0,6.549454689E0,7.045367241E0
4.228537140E0,5.228317261E0,7.204489708E0,6.473183632E0
4.245203077E0,6.187839508E0,7.494021416E0,5.619245052E0
4.261869015E0,3.871886253E0,8.716454506E0,4.957031250E0
4.278534952E0,4.430610180E0,7.260721207E0,6.732505798E0
4.295200890E0,5.002195835E0,6.473781586E0,7.338188648E0
4.311866827E0,4.633102894E0,6.170491219E0,7.063313484E0
4.328532765E0,4.531407833E0,6.348457813E0,6.669992924E0
4.345198702E0,4.814359188E0,6.103791237E0,7.605287552E0
4.361864640E0,5.641677380E0,6.575177670E0,8.327919960E0
4.378530577E0,5.927320957E0,6.783353329E0,7.411767960E0
4.395196515E0,6.023632050E0,6.889534473E0,6.323332787E0
4.411862452E0,6.152545452E0,6.841079712E0,5.630610943E0
4.428528390E0,5.840580940E0,6.531508446E0,5.611168861E0
4.445194327E0,5.337789059E0,6.184848309E0,6.322435856E0
4.461860265E0,4.863711357E0,5.936294079E0,6.765407085E0
4.478526202E0,4.553541660E0,5.722734451E0,6.667002201E0
4.495192140E0,3.969393730E0,5.618945599E0,5.876173973E0
4.511858077E0,4.142873287E0,5.831009865E0,4.929214478E0
4.528524015E0,4.420141697E0,5.700002670E0,3.937688828E0
4.545189952E0,4.522434711E0,5.700900078E0,4.322634220E0
4.561855890E0,4.342075825E0,5.568995476E0,5.448457241E0
4.578521827E0,4.462016106E0,5.402993679E0,6.470192432E0
4.595187765E0,5.465805054E0,5.171787262E0,6.924230576E0
4.611853702E0,5.373382568E0,4.543372154E0,6.046961784E0
4.628519640E0,4.748257637E0,3.669393539E0,4.872086048E0
4.645185577E0,4.845166683E0,2.583351135E0,4.078865528E0
4.661851515E0,5.017749310E0,1.668993831E0,3.671786308E0
4.678517452E0,4.939982414E0,5.515456200E-1,3.488137245E0
4.695183390E0,4.573880672E0,-6.951149702E-1,2.205285072E0
4.711849327E0,4.336990833E0,-2.402094841E0,6.499504447E-1
4.728515265E0,5.192425251E0,-4.123431683E0,-3.592225015E-1
4.745181202E0,4.735096931E0,-6.015256882E0,-6.385845542E-1
4.761847140E0,4.987240791E0,-6.764210701E0,-6.287141442E-1
4.778513077E0,6.266802311E0,-8.830412865E0,-2.720639229E0
4.795179015E0,7.009474754E0,-9.528818130E0,-4.838586330E0
4.811844952E0,8.455936432E0,-1.037168980E1,-3.554239035E0
4.828510890E0,1.131386375E1,-1.029033375E1,-1.439282775E0
4.845176827E0,1.329242897E1,-9.656535149E0,9.337990284E-1
4.861842765E0,1.201884937E1,-9.236295700E0,1.415952802E0
4.878508702E0,1.139013481E1,-9.411270142E0,2.673979402E-1
4.895174640E0,1.289641666E1,-9.287740707E0,9.741778970E-1
4.911840577E0,1.454776382E1,-9.078668594E0,2.397309303E0
4.928506515E0,1.914676857E1,-7.617849827E0,3.456731319E0
4.945172452E0,2.498735046E1,-3.608974695E0,3.311068296E0
4.961838390E0,2.928366280E1,1.942672849E0,4.178466320E0
4.978504327E0,3.345076370E1,9.257532120E0,8.335697174E0
4.995170265E0,4.017399597E1,1.776042747E1,1.431775379E1
5.011836202E0,4.443711090E1,2.795415115E1,1.750379753E1
5.028502140E0,3.970111465E1,3.695864105E1,1.512652779E1
5.045168077E0,3.015464973E1,4.258177567E1,1.097318554E1
5.061834015E0,2.528316307E1,4.352095795E1,5.250451088E0
5.078499952E0,2.250988007E1,4.131477356E1,1.622632861E0
5.095165890E0,2.178246307E1,3.728884888E1,4.275076866E0
5.111831827E0,2.254786682E1,3.300210953E1,9.757930756E0
5.128497765E0,2.413251305E1,2.956362343E1,1.208704472E1
5.145163702E0,3.067628479E1,2.554577446E1,1.238195992E1
5.161829640E0,3.993860245E1,2.045624161E1,1.313779259E1
5.178495577E0,4.610460663E1,1.656252098E1,1.266042423E1
5.195161515E0,5.060550690E1,1.611236954E1,8.129315376E0
5.211827452E0,5.407838821E1,1.688375664E1,5.875874996E0
5.228493390E0,5.419085312E1,1.223360443E1,1.069172955E1
5.245159327E0,4.560660172E1,2.495414972E0,2.239382935E1
5.261825265E0,3.437200165E1,-7.766803265E0,2.837678337E1
5.278491202E0,2.765115929E1,-1.843819427E1,2.095335007E1
5.295157140E0,1.987089729E1,-2.635305214E1,4.381557465E0
5.311823077E0,1.443111324E1,-3.172194862E1,5.461617708E-1
5.328489015E0,1.460489178E1,-4.193840408E1,1.255872917E1
5.345154952E0,1.110509014E1,-4.915066910E1,2.213031960E1
5.361820890E0,5.966802597E0,-5.133980560E1,1.806132507E1
5.378486827E0,1.359422326E0,-5.193053436E1,7.376772881E0
5.395152765E0,-1.383051515E0,-4.810739899E1,8.796614408E-1
5.411818702E0,1.190548897E1,-4.491387939E1,2.857030153E0
5.428484640E0,3.388177109E1,-3.950640106E1,6.992724895E0
5.445150577E0,4.668785858E1,-3.058087158E1,6.183053493E0
5.461816515E0,4.783073044E1,-2.432812691E1,6.765407085E0
5.478482452E0,4.600919342E1,-1.976381683E1,5.364708424E0
5.495148390E0,5.518088150E1,-1.730578995E1,1.841576099E0
5.511814327E0,7.600950623E1,-1.190997601E1,1.155494022E1
5.528480265E0,7.817800140E1,7.191329479E0,3.057608604E1
5.545146202E0,6.817720032E1,2.058515358E1,2.566750908E1
5.561812140E0,5.359085083E1,2.800380135E1,1.609143257E1
5.578478077E0,3.801297760E1,3.446232986E1,9.864111900E0
5.595144015E0,2.438495636E1,4.467848587E1,1.131535912E1
5.611809952E0,1.448016644E1,5.705386353E1,2.717857742E1
5.628475890E0,8.011170387E0,5.853532028E1,3.959343719E1
5.645141827E0,1.037886813E-1,5.092405319E1,3.486940765E1
5.661807765E0,-1.749751568E0,4.228715897E1,2.411277199E1
5.678473702E0,5.330311775E0,3.487150192E1,2.091416740E1
5.695139640E0,1.437518120E1,2.884637451E1,2.136700821E1
5.711805577E0,2.302344131E1,2.316162682E1,1.986012840E1
5.728471515E0,3.148416138E1,1.885903168E1,1.922692871E1
5.745137452E0,4.087778473E1,1.706172371E1,1.523270893E1
5.761803390E0,5.095785141E1,1.839362717E1,1.356401443E1
5.778469327E0,6.089344788E1,1.684038734E1,1.890389633E1
5.795135265E0,6.756433868E1,8.282755852E0,2.058485413E1
5.811801202E0,6.984200287E1,-5.126921654E0,1.872114563E1
5.828467140E0,6.397121429E1,-1.994507408E1,1.685683823E1
5.845133077E0,5.124558640E1,-3.787808228E1,1.546840191E1
5.861799015E0,2.923161888E1,-5.274588776E1,8.341080666E0
5.878464952E0,-7.298108935E-2,-5.191617584E1,-1.687538147E0
5.895130890E0,-1.073210907E1,-4.940939331E1,-1.031157017E1
5.911796827E0,-1.116939735E1,-4.656133652E1,-1.110658550E1
5.928462765E0,-4.060619831E0,-4.391188431E1,-9.936494827E0
5.945128702E0,6.616752625E0,-4.006003952E1,-1.431625748E1
5.961794640E0,6.629015923E0,-3.347229767E1,-1.264337540E1
5.978460577E0,7.690532207E0,-2.833879662E1,-3.935894251E0
5.995126515E0,1.567478275E1,-2.370210457E1,2.743969440E0
6.011792452E0,2.985136032E1,-2.005334854E1,4.190729618E0
6.028458390E0,4.328974915E1,-1.522104359E1,1.796411633E0
6.045124327E0,4.734259415E1,-6.448956013E0,2.737688303E0
6.061790265E0,4.741049194E1,-8.024929166E-1,7.030711174E0
6.078456202E0,4.681407928E1,4.119244099E0,1.181366444E1
6.095122140E0,4.204817581E1,8.732905388E0,1.948146439E1
6.111788077E0,3.948396683E1,1.482204056E1,2.197059822E1
6.128454015E0,4.390231323E1,2.234148598E1,1.611266899E1
6.145119952E0,3.649921799E1,2.991536713E1,8.144270897E0
6.161785890E0,2.497000122E1,3.149672508E1,6.302694798E0
6.178451827E0,1.520190144E1,2.998206711E1,9.283254623E0
6.195117765E0,5.356632710E0,2.814737129E1,1.111675453E1
6.211783702E0,-4.832006454E0,2.861367226E1,1.357238960E1
6.228449640E0,-9.841679573E0,3.019203758E1,1.833141518E1
6.245115577E0,-8.091629028E0,2.999193764E1,2.091476631E1
6.261781515E0,-2.631805897E0,2.820928574E1,1.872204208E1
6.278447452E0,4.001397610E0,2.616013145E1,1.437248898E1
6.295113390E0,1.151605701E1,2.275245285E1,9.785747528E0
6.311779327E0,1.786032677E1,2.174447632E1,1.015693378E1
6.328445265E0,2.730001259E1,2.128385925E1,1.554646778E1
6.345111202E0,3.858516312E1,1.826142502E1,2.143939209E1
6.361777140E0,4.472993088E1,1.009801102E1,2.155723763E1
6.378443077E0,4.322155380E1,9.116654396E-1,1.661247063E1
6.395109015E0,4.412574387E1,-4.726422787E0,9.588638306E0
6.411774952E0,4.555395889E1,-8.531310081E0,2.699103832E0
6.428440890E0,4.074199295E1,-1.556082439E1,8.132606149E-1
6.445106827E0,2.734607506E1,-2.397518539E1,8.300103188E0
6.461772765E0,7.339983463E0,-2.754737091E1,1.393280792E1
6.478438702E0,-1.882852316E0,-3.140639496E1,9.209974289E0
6.495104640E0,-4.132703781E0,-3.502344513E1,-3.926921129E0
6.511770577E0,-7.399505138E0,-3.557050323E1,-1.603729630E1
6.528436515E0,-7.878667831E0,-3.275026321E1,-1.981406784E1
6.545102452E0,-2.970988512E0,-2.980499840E1,-1.426570988E1
6.561768390E0,3.709174156E0,-2.709722137E1,-5.053342342E0
6.578434327E0,7.869096279E0,-2.258226395E1,2.573480844E0
6.595100265E0,1.053051376E1,-1.663280869E1,6.632605076E0
6.611766202E0,1.433958817E1,-1.389781284E1,4.287340164E0
6.628432140E0,1.689691734E1,-1.363520050E1,1.730309844E0
6.645098077E0,2.408615303E1,-1.208495045E1,3.142972469E0
6.661764015E0,3.960091400E1,-9.093324661E0,7.147660255E0
6.678429952E0,5.408138275E1,1.806581169E-1,1.391575909E1
6.695095890E0,5.503791046E1,8.985049248E0,2.614966393E1
6.711761827E0,4.162285233E1,1.493869114E1,2.632194710E1
6.728427765E0,3.298625565E1,1.830060577E1,1.337258816E1
6.745093702E0,2.883680344E1,1.968096542E1,1.372283816E0
6.761759640E0,2.235973167E1,1.846750641E1,-2.587538481E0
6.778425577E0,1.041057301E1,1.798146439E1,4.342973232E-1
6.795091515E0,-7.806583643E-1,1.895444489E1,4.493122578E0
6.811757452E0,-8.111668587E0,2.260379982E1,9.343074799E0
6.828423390E0,-9.502796173E0,2.824697304E1,1.629332733E1
6.845089327E0,-6.675376892E0,3.315525055E1,2.108286095E1
6.861755265E0,-8.973085135E-2,3.537608719E1,2.063929176E1
6.878421202E0,6.422336102E0,3.324318695E1,1.436680603E1
6.895087140E0,7.806284904E0,2.890051270E1,6.692724705E0
6.911753077E0,7.012764931E0,2.503251457E1,4.412065983E0
6.928419015E0,1.152114201E1,2.261576271E1,1.208734322E1
6.945084952E0,2.162872314E1,1.965494347E1,2.576352119E1
6.961750890E0,3.700260925E1,1.484237957E1,3.424936676E1
6.978416827E0,5.010331345E1,8.634201050E0,3.188735199E1
6.995082765E0,5.701139069E1,3.095714331E0,2.023281097E1
7.011748702E0,5.479085159E1,-4.080958843E0,6.741777897E0
7.028414640E0,4.352155685E1,-1.447448349E1,2.341675997E0
7.045080577E0,2.290888405E1,-2.162932205E1,1.035314560E1
7.061746515E0,8.432905197E0,-2.498406029E1,1.733869171E1
7.078412452E0,5.883053780E0,-3.288366318E1,9.714262009E0
7.095078390E0,7.295117974E-1,-3.735046768E1,-6.699305058E0
7.111744327E0,-1.643570065E0,-3.757479477E1,-1.519502163E1
7.128410265E0,-7.112665176E-1,-3.585255814E1,-1.378594875E1
7.145076202E0,-1.136889815E0,-3.363142014E1,-6.218048573E0
7.161742140E0,-1.660917997E0,-3.024946594E1,2.817548752E0
7.178408077E0,-5.404788256E-1,-2.515185547E1,8.056035995E0
7.195074015E0,1.290628672E0,-2.257927322E1,3.377768278E0
7.211739952E0,4.576273441E0,-2.181985092E1,-5.840281963E0
7.228405890E0,1.442273808E1,-2.094587135E1,-1.196261787E1
7.245071827E0,2.868874741E1,-1.895444489E1,-1.101087284E1
7.261737765E0,3.874578094E1,-1.512592888E1,-1.057926655E0
7.278403702E0,4.636991119E1,-6.040979862E0,1.612732506E1
7.295069640E0,5.842166138E1,4.455734730E0,3.309991455E1
7.311735577E0,5.788118362E1,1.363849068E1,3.188496017E1
7.328401515E0,4.786781693E1,1.927508354E1,1.881476402E1
7.345067452E0,3.809941864E1,2.291366959E1,6.656533718E0
7.361733390E0,2.414896393E1,2.521018028E1,2.811566591E0
7.378399327E0,1.049312592E1,2.853650284E1,8.499305725E0
7.395065265E0,2.407478571E0,3.263660431E1,1.177179050E1
7.411731202E0,-4.610371113E0,3.719942093E1,1.144576836E1
7.428397140E0,-6.420541286E0,3.900450516E1,1.357388496E1
7.445063077E0,-3.559323788E0,3.962424469E1,2.068056870E1
7.461729015E0,2.082653046E0,3.784488297E1,2.261038017E1
7.478394952E0,9.495018959E0,3.143211746E1,1.692353630E1
7.495060890E0,1.376202011E1,2.249941254E1,1.127916813E1
7.511726827E0,1.564218044E1,1.772004890E1,1.104885864E1
7.528392765E0,2.273690033E1,1.580070496E1,1.478465271E1
7.545058702E0,3.087070274E1,1.300110245E1,1.841665840E1
7.561724640E0,3.656113434E1,7.832605839E0,2.001506424E1
7.578390577E0,4.008037567E1,3.606881142E0,1.669352722E1
7.595056515E0,4.426841354E1,-1.951945066E0,7.696215153E0
7.611722452E0,3.888187408E1,-8.454141617E0,-7.342974544E-1
7.628388390E0,2.869831848E1,-1.640100479E1,1.785943031E0
7.645054327E0,1.284257793E1,-2.066321945E1,1.164168072E1
7.661720265E0,4.618147850E0,-2.563730049E1,1.248694515E1
7.678386202E0,4.623531342E0,-3.419881821E1,9.224331379E-1
7.695052140E0,9.846464992E-1,-3.770041656E1,-1.493061543E1
7.711718077E0,-1.598704576E0,-3.465046310E1,-2.611466789E1
7.728384015E0,6.598208547E-1,-2.965335464E1,-2.476810646E1
7.745049952E0,6.410970211E0,-2.722882652E1,-1.207507992E1
7.761715890E0,9.996614456E0,-2.351337051E1,4.137489319E0
7.778381827E0,1.170000553E1,-1.604895973E1,1.469731522E1
7.795047765E0,1.380060482E1,-1.456690598E1,6.825825691E0
7.811713702E0,1.344616795E1,-1.473619843E1,-4.274777889E0
7.828379640E0,1.836521339E1,-1.659243011E1,-9.694820404E0
7.845045577E0,3.708725357E1,-1.411017609E1,-6.865606308E0
7.861711515E0,7.007201385E1,-1.096511006E0,1.333520031E1
7.878377452E0,7.639505005E1,1.631785393E1,3.822743607E1
7.895043390E0,5.382654572E1,2.262025070E1,4.261796570E1
7.911709327E0,2.979183769E1,2.275125694E1,1.967737770E1
7.928375265E0,1.930050659E1,2.150040817E1,-7.837690353E0
7.945041202E0,1.064357376E1,1.898166466E1,-1.729352760E1
7.961707140E0,8.189435601E-1,1.806371689E1,-7.653742313E0
7.978373077E0,-5.543870926E0,2.102992058E1,2.918047190E0
7.995039015E0,-9.068498611E0,2.673141861E1,8.881559372E0
8.011704952E0,-9.029315948E0,3.199383354E1,1.102822018E1
8.028370890E0,-5.985047817E0,3.599851990E1,1.235623741E1
8.045036827E0,-3.451646566E-1,3.728944778E1,1.416939831E1
8.061702765E0,4.356731892E0,3.486611938E1,1.663789368E1
8.078368702E0,5.984150410E0,2.942932510E1,1.839362717E1
8.095034640E0,8.710771561E0,2.360758781E1,2.063600159E1
8.111700577E0,1.461536026E1,1.884587097E1,2.377359009E1
8.128366515E0,2.106282043E1,1.541994762E1,2.722194672E1
8.145032452E0,2.925076103E1,1.318804169E1,2.701855659E1
8.161698390E0,3.778984833E1,9.629914284E0,2.433111763E1
8.178364327E0,4.302085876E1,8.062914848E0,1.678116417E1
8.195030265E0,5.000550842E1,4.856532574E0,5.589633465E0
8.211696202E0,4.942584610E1,-3.326322556E0,-1.670190215E0
8.228362140E0,3.571168137E1,-1.388913918E1,6.302694798E0
8.245028077E0,1.476670647E1,-1.858116531E1,1.938246155E1
8.261694015E0,9.286844254E0,-2.559243393E1,1.837657928E1
8.278359952E0,1.141226864E1,-3.791218185E1,1.530509233E0
8.295025890E0,6.872186661E0,-4.258805466E1,-2.179502487E1
8.311691827E0,2.627618313E0,-3.892165375E1,-3.324318695E1
8.328357765E0,5.629115105E-1,-3.563840103E1,-2.671197701E1
8.345023702E0,-6.747759581E-1,-3.322853088E1,-1.208764267E1
8.361689640E0,-1.587637782E0,-2.715883636E1,2.499602318E0
8.378355577E0,6.804589629E-1,-2.114417648E1,5.878866196E0
8.395021515E0,5.277370453E0,-1.983949089E1,-2.153540373E0
8.411687452E0,1.219113255E1,-1.944347954E1,-9.751350403E0
8.428353390E0,2.287897301E1,-1.686700630E1,-8.732007980E0
8.445019327E0,4.502993011E1,-9.245866776E0,3.008974552E0
8.461685265E0,7.413771820E1,6.233303070E0,2.694916534E1
8.478351202E0,7.614350128E1,2.225534439E1,4.421786880E1
8.495017140E0,5.346283722E1,2.650948334E1,3.767080688E1
8.511683077E0,2.982055283E1,2.335125732E1,1.169103241E1
8.528349015E0,1.464885998E1,2.020768547E1,-1.164676476E1
8.545014952E0,4.206582069E0,1.933221245E1,-1.319402409E1
8.561680890E0,-1.953440547E0,2.119921303E1,-2.736790895E0
8.578346827E0,-4.285844326E0,2.586132812E1,4.864309311E0
8.595012765E0,-6.425027847E0,3.054138947E1,4.127319813E0
8.611678702E0,-9.681659698E0,3.413182068E1,1.049551845E0
8.628344640E0,-9.715159416E0,3.757090378E1,4.990231514E0
8.645010577E0,-3.715156317E0,3.749283981E1,1.551954842E1
8.661676515E0,4.793421745E0,3.264168930E1,2.464098930E1
8.678342452E0,1.124387360E1,2.664497757E1,2.649572563E1
8.695008390E0,1.539811325E1,2.179532433E1,2.185843468E1
8.711674327E0,1.831047630E1,1.837059593E1,1.742453384E1
8.728340265E0,2.459612274E1,1.502752399E1,1.776042747E1
8.745006202E0,3.511736298E1,1.018774128E1,1.741287041E1
8.761672140E0,4.502544403E1,7.583752155E0,1.337228966E1
8.778338077E0,5.100690460E1,1.925624013E0,1.331037521E1
8.795004015E0,3.928536224E1,-7.431210041E0,1.960947990E1
8.811669952E0,2.157757759E1,-1.391097355E1,2.360310173E1
8.828335890E0,1.906302071E1,-2.203281212E1,1.525424480E1
8.845001827E0,2.071227264E1,-3.376930618E1,-2.370389938E0
8.861667765E0,1.404198074E1,-3.749463272E1,-2.154766655E1
8.878333702E0,5.513362408E0,-3.525345612E1,-3.127508926E1
8.894999640E0,1.602592945E0,-3.531208038E1,-2.816471863E1
8.911665577E0,-3.655036688E0,-3.353839874E1,-1.485284805E1
8.928331515E0,-8.937491417E0,-2.708615494E1,-1.519442320E0
8.944997452E0,-1.036780167E1,-1.901605988E1,2.836392164E0
8.961663390E0,-6.313462734E0,-1.126540947E1,-2.272284269E0
8.978329327E0,6.860521793E0,-3.381955624E0,-1.110209846E1
8.994995265E0,3.066282654E1,9.990333557E0,-1.263350582E1
9.011661202E0,6.055157471E1,3.324827194E1,1.132223892E1
9.028327140E0,6.478806305E1,4.922215652E1,4.618327332E1
9.044993077E0,4.740002060E1,4.556921387E1,4.265684891E1
9.061659015E0,2.189791679E1,2.964438057E1,2.020140409E0
9.078324952E0,-2.820539713E0,2.536601448E1,-3.465913773E1
9.094990890E0,-5.369792938E0,2.461317253E1,-2.984537697E1
9.111656827E0,-5.176871777E0,2.338086891E1,-8.071887970E0
9.128322765E0,-8.216354847E-1,2.332643127E1,7.188039303E0
9.144988702E0,4.550849438E0,2.003211212E1,1.269691563E1
9.161654640E0,-6.433702111E-1,1.340160179E1,6.891329288E0
9.178320577E0,-7.996813297E0,7.368697166E0,1.033699393E0
9.194986515E0,-1.097946644E1,4.462016106E0,-1.754238129E0
9.211652452E0,-6.239583969E0,3.294916868E0,4.824528694E-1
9.228318390E0,1.720828247E1,4.597210586E-1,3.273381472E0
9.244984327E0,4.342195511E1,-7.527521133E0,1.679163337E0
9.261650265E0,3.462444305E1,-1.082692432E1,1.004297543E1
9.278316202E0,1.482293797E1,-8.145168304E0,2.898994446E1
9.294982140E0,5.430212021E0,-3.557828188E0,3.953122330E1
9.311648077E0,3.218346357E0,-3.282653570E0,2.903151894E1
9.328314015E0,6.755237579E0,-4.029214382E0,1.166231823E1
9.344979952E0,1.001755238E1,-3.488735437E0,-5.797510147E0
9.361645890E0,2.870489836E0,-2.442473650E0,-1.211426258E1
9.378311827E0,-3.346063375E0,-3.243770123E0,-1.185823059E1
9.394977765E0,-5.851647854E0,-6.395715714E0,-1.065972614E1
9.411643702E0,-1.101715374E1,-5.420640469E0,-5.798706532E0
9.428309640E0,-5.433202744E0,-4.478765965E0,3.034996510E0
9.444975577E0,1.621825218E1,-2.332702875E0,1.308814144E1
9.461641515E0,3.116472054E1,8.581260443E-1,1.819951057E1
9.478307452E0,2.951247597E1,3.490231037E0,1.214536953E1
9.494973390E0,1.946232224E1,2.862114906E0,-2.919243574E-1
9.511639327E0,6.853941441E0,-3.490529954E-1,-8.834600449E0
9.528305265E0,-2.486441851E0,-3.700500250E0,-7.698308468E0
9.544971202E0,-3.020041227E0,-7.463811874E0,-5.036592484E0
9.561637140E0,4.528716087E0,-1.081167030E1,-4.433601379E0
9.578303077E0,1.417597866E1,-1.253539944E1,-2.229512453E0
9.594969015E0,2.045534325E1,-1.016740227E1,-1.549352705E-1
9.611634952E0,3.160709381E1,-4.055834293E0,-1.968993902E0
9.628300890E0,4.479214478E1,1.170389414E0,-2.150549293E-1
9.644966827E0,4.653950500E1,4.378267288E0,1.447687626E1
9.661632765E0,3.424727249E1,7.838587761E0,1.742124367E1
9.678298702E0,1.712513161E1,9.076275826E0,4.417748928E0
9.694964640E0,9.807881355E0,8.096414566E0,-1.150229836E1
9.711630577E0,7.687541008E0,6.272186279E0,-1.759831238E1
9.728296515E0,7.458428383E0,3.273680449E0,-1.410778332E1
9.744962452E0,6.972385883E0,-1.563111424E0,-5.622535229E0
9.761628390E0,2.895016193E0,-6.879364967E0,6.587141514E0
9.778294327E0,-3.698705673E0,-5.360819817E0,1.807568169E1
9.794960265E0,-2.434397936E0,-2.660519600E0,1.917338943E1
9.811626202E0,1.028913784E1,-3.458526134E0,1.011655521E1
9.828292140E0,2.310419846E1,-4.445565224E0,-3.809074640E0
9.844958077E0,1.926401711E1,1.854437590E-2,-1.183729362E1
9.861624015E0,1.004806042E1,2.837289333E0,-7.363612652E0
9.878289952E0,6.339484692E0,1.418644667E0,-4.797609329E0
9.894955890E0,7.269993305E0,4.256233275E-1,-2.117348909E0
9.911621827E0,1.407009602E1,4.624129832E-1,1.229312643E-1
9.928287765E0,2.435594368E1,2.129612207E0,-2.602493763E0
9.944953702E0,2.858017349E1,5.226223946E0,-1.128215909E0
9.961619640E0,2.182254219E1,5.966802597E0,6.750751019E0
9.978285577E0,9.265906334E0,6.559923172E0,1.486361599E1
9.994951515E0,2.369492531E0,6.807879448E0,1.487797260E1
1.001161745E1,1.861017823E0,5.309374332E0,7.337889671E0
1.002828339E1,3.895216227E0,4.429413795E0,-7.695915699E-1
1.004494933E1,4.031008720E0,5.730212212E0,-5.270192027E-1
1.006161526E1,1.651346684E0,8.382954597E0,8.667402267E0
1.007828120E1,1.039681435E0,9.635597229E0,1.755942917E1
1.009494714E1,4.603790760E0,8.150551796E0,1.995673943E1
1.011161308E1,1.163210869E1,4.990829945E0,1.526889992E1
1.012827902E1,1.910250092E1,1.622034669E0,5.176572800E0
1.014494495E1,2.030280113E1,1.516451359E0,1.642074585E-1
1.016161089E1,1.920718765E1,1.514357686E0,5.021039009E0
1.017827683E1,1.908724785E1,1.828415632E0,1.555035591E1
1.019494276E1,2.604856682E1,1.305284739E0,2.065723801E1
1.021160870E1,4.095973969E1,-4.366003990E0,1.952393723E1
1.022827464E1,4.276871490E1,-1.227458191E1,1.770060730E1
1.024494058E1,3.088805008E1,-2.525355148E1,1.440090370E1
1.026160652E1,1.386850071E1,-3.227588654E1,3.050549746E0
1.027827245E1,5.108377457E0,-2.712114906E1,-7.222734928E0
1.029493839E1,8.587840080E0,-2.827748108E1,-2.751746029E-2
1.031160433E1,1.362024593E1,-2.869353294E1,1.698096466E1
1.032827026E1,2.591367149E1,-2.483301163E1,2.171695900E1
1.034493620E1,2.703620338E1,-1.945843315E1,1.411197090E1
1.036160214E1,2.437388992E1,-1.768714714E1,1.964208245E0
1.037826808E1,2.088904190E1,-1.565773392E1,-1.002233791E1
1.039493402E1,2.522543526E1,-1.352064419E1,-2.025344849E1
1.041159995E1,3.454607773E1,-8.934201241E0,-2.701706123E1
1.042826589E1,2.606082916E1,-2.307578325E0,-2.349602318E1
1.044493183E1,1.403001690E1,1.527219057E0,-1.467189121E1
1.046159776E1,1.069083214E1,1.990230203E0,-1.276331615E1
1.047826370E1,1.400279808E1,1.718046665E0,-1.492194080E1
1.049492964E1,1.919073677E1,4.151547432E0,-1.468894005E1
1.051159558E1,2.318017006E1,8.682954788E0,-7.449155807E0
1.052826152E1,2.391446686E1,1.669831276E1,7.756035328E0
1.054492745E1,2.551287270E1,2.334677124E1,1.688016701E1
1.056159339E1,2.438914299E1,2.511117744E1,6.736692905E0
1.057825933E1,1.756421471E1,2.596481705E1,-5.357829094E0
1.059492526E1,1.254197979E1,2.728655243E1,-2.364706993E0
1.061159120E1,1.630588913E1,2.898725128E1,1.014975548E1
1.062825714E1,2.612992287E1,2.926840782E1,2.092672920E1
1.064492308E1,3.190709305E1,2.832444000E1,2.112593269E1
1.066158902E1,3.263481140E1,2.697668266E1,1.187677479E1
1.067825495E1,3.549842072E1,2.655674171E1,7.937591076E0
1.069492089E1,4.211248398E1,2.448485756E1,1.373480225E1
1.071158683E1,4.618327332E1,2.159492493E1,1.904896164E1
1.072825276E1,4.864877701E1,1.969023895E1,2.011287117E1
1.074491870E1,5.112056351E1,1.850369835E1,1.872323990E1
1.076158464E1,5.549045563E1,1.848305893E1,1.443231010E1
1.077825058E1,5.913741684E1,1.662742615E1,1.421934891E1
1.079491652E1,5.738616943E1,1.264038467E1,1.505444336E1
1.081158245E1,5.069792938E1,4.738985062E0,2.157099724E1
1.082824839E1,3.976003647E1,-4.295714855E0,3.374837112E1
1.084491433E1,3.184069252E1,-1.592423439E1,3.197708321E1
1.086158026E1,3.260280609E1,-2.739093971E1,2.689383125E1
1.087824620E1,2.997219658E1,-4.254677963E1,3.762175369E1
1.089491214E1,1.443141270E1,-4.950481033E1,4.440480804E1
1.091157808E1,7.607680321E0,-5.260501099E1,3.154188919E1
1.092824402E1,7.570292473E0,-5.290411377E1,1.354008579E1
1.094490995E1,1.120140076E1,-5.282574844E1,3.815953970E0
1.096157589E1,2.519253349E1,-5.212584686E1,2.081755698E-1
1.097824183E1,4.010669708E1,-4.503591156E1,-1.580758452E0
1.099490776E1,5.033810806E1,-3.438725281E1,-2.029412746E0
1.101157370E1,5.319813156E1,-2.575155640E1,-3.530011654E0
1.102823964E1,5.271059418E1,-2.278625107E1,-4.373780727E0
1.104490558E1,5.538696671E1,-2.334348106E1,-3.180360317E0
1.106157152E1,7.332984161E1,-1.976471519E1,8.192725182E0
1.107823745E1,7.839544678E1,-4.080061913E0,2.949094009E1
1.109490339E1,7.230571747E1,1.200120163E1,3.255614853E1
1.111156933E1,5.616822052E1,2.011077690E1,2.007966995E1
1.112823526E1,4.707250595E1,2.872643471E1,1.108534908E1
1.114490120E1,3.665534973E1,3.610739517E1,1.048176003E1
1.116156714E1,1.734676743E1,4.922006226E1,1.775085640E1
1.117823308E1,8.834898949E0,5.879374695E1,2.924986458E1
1.119489902E1,5.233402252E0,5.669763184E1,3.461098480E1
1.121156495E1,-9.693922997E-1,4.635286331E1,2.881885719E1
1.122823089E1,-1.538584948E0,3.807638931E1,1.992623138E1
1.124489683E1,7.409375191E0,3.256212997E1,1.843879128E1
1.126156276E1,1.854437637E1,3.007389259E1,1.969771576E1
1.127822870E1,2.848685265E1,2.885385132E1,2.134188461E1
1.129489464E1,3.839822388E1,2.847997284E1,2.030399704E1
1.131156058E1,5.066114044E1,2.728296471E1,1.769312859E1
1.132822652E1,6.307540131E1,2.599233437E1,1.807747650E1
1.134489245E1,7.539754486E1,1.977847290E1,1.954277992E1
1.136155839E1,7.756962585E1,5.635396481E0,2.123241234E1
1.137822433E1,7.022396088E1,-1.089182949E1,2.027378845E1
1.139489026E1,5.844080353E1,-2.801457024E1,1.935374832E1
1.141155620E1,4.049104691E1,-4.585694885E1,2.118096733E1
1.142822214E1,1.704766464E1,-5.796044540E1,1.965644073E1
1.144488808E1,2.051845312E0,-6.496035004E1,1.011565781E1
1.146155402E1,-7.490731239E0,-6.648128510E1,-5.002494812E0
1.147821995E1,-1.266580868E1,-6.337749863E1,-9.675079346E0
1.149488589E1,-3.632005692E0,-5.906951904E1,-6.478268147E0
1.151155183E1,1.649372673E1,-5.281797028E1,3.460619748E-1
1.152821776E1,2.687319374E1,-4.128785706E1,6.801000118E0
1.154488370E1,3.471955872E1,-3.058595657E1,9.015557289E0
1.156154964E1,4.739852524E1,-2.315354919E1,6.672086716E0
1.157821558E1,5.508636475E1,-1.682453346E1,1.769492388E0
1.159488152E1,5.330700302E1,-1.118435192E1,-1.182353497E0
1.161154745E1,5.800142288E1,-5.063810825E0,6.962216377E0
1.162821339E1,6.358238220E1,2.753540754E0,2.390040970E1
1.164487933E1,5.363063431E1,1.078056335E1,2.671556664E1
1.166154526E1,3.775634766E1,1.505952835E1,1.282283783E1
1.167821120E1,3.067628479E1,1.895923042E1,3.850350618E0
1.169487714E1,2.396591377E1,2.249372864E1,1.300917816E1
1.171154308E1,1.557129383E1,2.746212578E1,3.041965485E1
1.172820902E1,1.258505058E1,3.657070541E1,3.612803268E1
1.174487495E1,1.185763264E1,3.834767532E1,2.683819771E1
1.176154089E1,5.109274387E0,3.253072357E1,1.268046474E1
1.177820683E1,-5.327320576E0,2.969582558E1,3.879961967E0
1.179487277E1,-8.525327682E0,2.815365219E1,7.095018387E0
1.181153870E1,-4.139284134E0,2.855205727E1,1.448375511E1
1.182820464E1,7.216454029E0,3.127179909E1,2.213181496E1
1.184487058E1,1.940638924E1,2.984388161E1,2.273570251E1
1.186153652E1,2.457668114E1,2.464906502E1,1.722144318E1
1.187820245E1,2.963241577E1,2.149711800E1,1.391545963E1
1.189486839E1,4.165007019E1,1.715773392E1,1.879980850E1
1.191153433E1,5.436822128E1,7.068397999E0,2.432304192E1
1.192820027E1,6.132385635E1,-4.032205105E0,2.217458725E1
1.194486620E1,6.195496368E1,-8.896514893E0,1.535145283E1
1.196153214E1,5.560949707E1,-2.022503471E1,1.122532940E1
1.197819808E1,3.562464142E1,-3.153231812E1,1.059332466E1
1.199486402E1,9.541081429E0,-3.717010880E1,9.407083511E0
1.201152995E1,-4.686044216E0,-3.832374573E1,5.230710506E0
1.202819589E1,-5.265705109E0,-3.958745575E1,-5.177470207E0
1.204486183E1,-6.012565136E0,-3.886332703E1,-1.548395538E1
1.206152777E1,-6.057430744E0,-3.458316803E1,-2.054776573E1
1.207819370E1,1.854437590E-1,-2.972813034E1,-1.881117439E1
1.209485964E1,8.391329765E0,-2.516950226E1,-1.076411247E1
1.211152558E1,1.301336575E1,-1.943929100E1,-7.567301393E-1
1.212819152E1,1.402702522E1,-1.328854084E1,6.078666687E0
1.214485745E1,1.770928001E1,-1.071386337E1,3.889234066E0
1.216152339E1,2.018525314E1,-8.279166222E0,9.311071038E-1
1.217818933E1,2.271745872E1,-4.235595226E0,-1.323829174E0
1.219485527E1,3.618276978E1,1.811665893E0,-2.386840582E-1
1.221152120E1,5.372126007E1,8.373682976E0,5.695815086E0
1.222818714E1,5.400929642E1,1.405334663E1,1.943001938E1
1.224485308E1,3.837758636E1,1.586441422E1,2.831038284E1
1.226151902E1,2.358246422E1,1.676770401E1,2.402812767E1
1.227818495E1,1.424866104E1,1.566371632E1,1.054756260E1
1.229485089E1,6.615855694E0,1.504547024E1,7.336992621E-1
1.231151683E1,8.814560175E-1,1.447867107E1,-8.500502706E-1
1.232818277E1,-1.206580877E0,1.495932865E1,1.470688581E0
1.234484870E1,-1.825125456E0,1.870140457E1,3.537788391E0
1.236151464E1,-4.498506546E0,2.389711952E1,5.869594097E0
1.237818058E1,-8.736793518E0,2.886880684E1,9.288937569E0
1.239484652E1,-7.116852760E0,3.084737206E1,1.427318668E1
1.241151245E1,-1.380359530E0,2.885624504E1,1.737847328E1
1.242817839E1,3.684049606E0,2.352025032E1,1.480259895E1
1.244484433E1,7.161119938E0,1.892962074E1,1.044437218E1
1.246151027E1,1.150618649E1,1.601276970E1,1.017966557E1
1.247817620E1,2.217548370E1,1.081167030E1,1.327597809E1
1.249484214E1,3.358236694E1,2.243271112E0,1.591466331E1
1.251150808E1,3.978157425E1,-1.434198022E0,1.623410606E1
1.252817402E1,4.415684891E1,-5.728417397E0,1.644048691E1
1.254483995E1,3.832344818E1,-1.434317684E1,1.424148178E1
1.256150589E1,2.127697945E1,-1.796232224E1,9.716953278E0
1.257817183E1,8.332107544E0,-1.932114601E1,5.045864582E0
1.259483777E1,3.502793312E0,-2.233460617E1,-1.420140266E0
1.261150370E1,-1.282552958E0,-2.379931259E1,-1.163569832E1
1.262816964E1,-4.728217602E0,-2.315444756E1,-1.796890259E1
1.264483558E1,-4.313362122E0,-2.359771729E1,-1.837867165E1
1.266150152E1,-8.350951076E-1,-2.471696091E1,-1.226710415E1
1.267816745E1,1.406381488E0,-2.413819695E1,-4.275674820E0
1.269483339E1,2.916252613E-1,-2.016910172E1,7.890332937E-1
1.271149933E1,-7.028916478E-2,-1.542443371E1,2.608475685E0
1.272816527E1,2.990430117E0,-9.559925079E0,9.358927608E-1
1.274483120E1,1.501017666E1,-2.460419893E0,-3.465405464E0
1.276149714E1,3.448834991E1,2.346760750E0,-1.799402595E0
1.277816308E1,4.222285080E1,1.110688496E1,8.863912582E0
1.279482902E1,4.439732742E1,2.584996223E1,2.903809929E1
1.281149495E1,4.049044800E1,2.943291473E1,4.205654907E1
1.282816089E1,3.296472168E1,2.794188690E1,3.402803040E1
1.284482683E1,2.016730690E1,2.425993156E1,3.017947674E-1
1.286149277E1,1.114277649E1,2.510519600E1,-2.841297340E1
1.287815870E1,9.225827217E0,2.593969345E1,-2.344996071E1
1.289482464E1,3.693022728E0,2.708106995E1,-6.418148518E0
1.291149058E1,1.390229940E0,2.667518616E1,5.579763412E0
1.292815652E1,1.642971873E0,2.203011894E1,1.144158077E1
1.294482245E1,2.940180898E-1,1.453041553E1,8.621937752E0
1.296148839E1,-1.167398334E0,8.038987160E0,3.794119358E0
1.297815433E1,-1.258624673E0,3.985545158E0,-8.742775917E-1
1.299482027E1,5.668596745E0,-1.237089276E0,-3.957130313E-1
1.301148620E1,1.798924065E1,-9.384052277E0,8.204988480E0
1.302815214E1,2.981098175E1,-1.998724747E1,2.397309113E1
1.304481808E1,3.167349434E1,-2.576890564E1,3.604817200E1
1.306148402E1,1.871755600E1,-1.676202202E1,3.823700714E1
1.307814995E1,1.567149258E1,-1.131446171E1,3.905415726E1
1.309481589E1,1.410897923E1,-9.464810371E0,3.103879738E1
1.311148183E1,1.200060368E1,-8.117053032E0,1.233470154E1
1.312814777E1,1.202782249E1,-5.589035511E0,-7.638488293E0
1.314481370E1,9.484550476E0,-2.517548561E0,-1.858206177E1
1.316147964E1,6.011368752E0,-1.774577141E0,-2.239083862E1
1.317814558E1,-6.110670567E-1,-6.092724800E-1,-2.138345909E1
1.319481152E1,-3.022135019E0,4.127618968E-1,-9.612865448E0
1.321147745E1,3.712165117E0,-8.910273314E-1,6.748358250E0
1.322814339E1,2.150639153E1,-3.243171930E0,1.257458210E1
1.324480933E1,2.898396111E1,-7.998009682E0,4.760520458E0
1.326147527E1,1.499761391E1,-9.181859016E0,-4.433601379E0
1.327814120E1,-3.320041299E-2,-9.837192535E0,-9.700503349E0
1.329480714E1,-3.967299938E0,-1.078833961E1,-8.913264275E0
1.331147308E1,-2.256431818E0,-1.230808163E1,-5.481657505E0
1.332813902E1,8.706883430E0,-1.666182137E1,-2.048854351E0
1.334480495E1,1.780020714E1,-2.089891243E1,-2.021037817E0
1.336147089E1,2.283979034E1,-2.443221474E1,-1.628315806E0
1.337813683E1,2.667937469E1,-2.106282043E1,5.614758492E0
1.339480277E1,3.324378586E1,-1.462941837E1,1.650748444E1
1.341146870E1,3.251457214E1,-1.045902824E1,2.067308998E1
1.342813464E1,3.125684357E1,-5.261518002E0,1.374945831E1
1.344480058E1,2.648286438E1,2.052443504E0,6.855137825E0
1.346146652E1,1.815494347E1,5.448158264E0,2.935993433E0
1.347813245E1,1.427079391E1,6.373282909E0,-2.106282234E0
1.349479839E1,1.268046474E1,5.834599018E0,-5.069792747E0
1.351146433E1,1.494317722E1,6.204289913E0,-4.059423447E0
1.352813027E1,1.647308922E1,5.584249973E0,-3.693920076E-1
1.354479620E1,1.179541969E1,5.770890236E0,5.659923077E0
1.356146214E1,1.003430176E1,8.843573570E0,9.242876053E0
1.357812808E1,1.388375473E1,1.202542973E1,7.185945511E0
1.359479402E1,1.892782593E1,1.277886963E1,4.851447940E-1
1.361145995E1,1.923201370E1,1.449093437E1,-8.324031830E0
1.362812589E1,1.507956791E1,1.566700649E1,-1.161954689E1
1.364479183E1,8.213064194E0,1.611565971E1,-9.990931511E0
1.366145777E1,2.128714800E0,1.328614807E1,-7.337291718E0
1.367812370E1,1.800599098E-1,8.468797684E0,-2.415853500E0
1.369478964E1,4.866403043E-1,4.655236244E0,5.322235584E0
1.371145558E1,3.486342669E0,1.753939033E0,1.175025463E1
1.372812152E1,9.166305542E0,-1.854437590E-1,1.471585941E1
1.374478745E1,1.641087532E1,1.929811478E0,1.785703659E1
1.376145339E1,2.990101051E1,7.214659214E0,2.581556511E1
1.377811933E1,5.075715256E1,8.709276199E0,3.606222916E1
1.379478527E1,6.590969849E1,5.452345371E0,3.685455322E1
1.381145120E1,6.311069870E1,-2.653341293E0,3.670529938E1
1.382811714E1,4.843192673E1,-1.298584843E1,3.486791229E1
1.384478308E1,3.831267929E1,-2.012902260E1,2.888286400E1
1.386144902E1,3.171417236E1,-2.455933380E1,1.959243202E1
1.387811495E1,2.063540268E1,-2.462094879E1,1.372253895E1
1.389478089E1,9.753444672E0,-2.677718163E1,1.317129230E1
1.391144683E1,1.828415632E0,-3.265365601E1,1.493151283E1
1.392811277E1,-5.577669621E0,-3.686203003E1,1.513998699E1
1.394477870E1,-9.803094864E0,-3.850918961E1,7.652545929E0
1.396144464E1,-4.403391838E0,-3.791188049E1,-1.859522343E0
1.397811058E1,1.275553894E1,-3.622225189E1,-9.924231529E0
1.399477652E1,2.615056038E1,-3.134986496E1,-1.146311569E1
1.401144245E1,3.079652405E1,-2.539083862E1,-5.503791332E0
1.402810839E1,3.492384338E1,-2.030968094E1,2.420041084E0
1.404477433E1,3.439951706E1,-1.802902222E1,-6.713961124E0
1.406144027E1,3.762205124E1,-1.441855145E1,-2.299053955E1
1.407810620E1,3.369004440E1,-7.184749126E0,-3.222264862E1
1.409477214E1,2.431735992E1,-2.211865425E0,-3.031048203E1
1.411143808E1,2.179023933E1,1.624128371E-1,-1.468923950E1
1.412810402E1,2.513630295E1,4.175774574E0,1.698604941E0
1.414476995E1,2.882154846E1,9.459127426E0,7.686942577E0
1.416143589E1,2.737060165E1,1.455613804E1,7.114161015E0
1.417810183E1,2.318286133E1,1.782951927E1,5.414658546E0
1.419476777E1,1.902353859E1,1.921675873E1,3.416053534E0
1.421143370E1,1.459980774E1,2.069552231E1,2.585444927E0
1.422809964E1,1.025414276E1,2.360250282E1,5.416453362E0
1.424476558E1,1.108235836E1,2.634108925E1,8.238488197E0
1.426143152E1,1.770210266E1,2.712922478E1,8.286046028E0
1.427809745E1,2.444567490E1,2.640150833E1,4.555634975E0
1.429476339E1,2.644009209E1,2.506601334E1,3.641277790E0
1.431142933E1,2.650170708E1,2.357498550E1,5.996712685E0
1.432809527E1,2.915444946E1,2.174298096E1,7.979465485E0
1.434476120E1,3.408127213E1,1.993161392E1,9.876974106E0
1.436142714E1,3.849214172E1,1.823121452E1,1.189143085E1
1.437809308E1,4.058436584E1,1.708595085E1,1.569721603E1
1.439475902E1,4.416761780E1,1.708206177E1,1.932503319E1
1.441142495E1,5.220720291E1,1.469043541E1,2.221885300E1
1.442809089E1,5.532026672E1,1.158754253E1,2.107957077E1
1.444475683E1,5.491946793E1,1.045513916E1,1.784896088E1
1.446142277E1,5.245874786E1,6.856633186E0,1.777358818E1
1.447808870E1,4.523601151E1,-4.666004181E-1,2.002672958E1
1.449475464E1,3.750959015E1,-1.042642593E1,2.655076027E1
1.451142058E1,3.309662628E1,-2.548954391E1,2.777289391E1
1.452808652E1,3.007628441E1,-4.125465393E1,2.742683220E1
1.454475245E1,1.936601067E1,-5.398686600E1,2.829961395E1
1.456141839E1,4.365705013E0,-5.996413422E1,2.562623405E1
1.457808433E1,-4.747958183E0,-6.145067596E1,1.738265991E1
1.459475026E1,-9.352945685E-1,-6.135167313E1,1.058405304E1
1.461141620E1,2.040299988E1,-6.088118362E1,6.166004658E0
1.462808214E1,4.499643326E1,-5.536363602E1,2.099402666E0
1.464474808E1,5.527838898E1,-4.358377075E1,1.584945917E0
1.466141402E1,5.895017624E1,-3.349533081E1,3.470789194E0
1.467807995E1,6.397360992E1,-2.576800728E1,1.148554921E0
1.469474589E1,6.640172577E1,-1.964597130E1,-2.207678080E0
1.471141183E1,7.158248901E1,-1.536401463E1,5.449354649E0
1.472807776E1,7.796205139E1,-8.246563911E0,2.145015907E1
1.474474370E1,6.791728210E1,3.954139471E0,2.923789978E1
1.476140964E1,5.697191238E1,1.289013577E1,2.149831581E1
1.477807558E1,4.973601532E1,1.941416740E1,1.024217796E1
1.479474152E1,4.193152618E1,2.366681099E1,7.141379356E0
1.481140745E1,3.266621780E1,2.803610420E1,1.097498035E1
1.482807339E1,1.797966957E1,3.418805313E1,1.866491318E1
1.484473933E1,4.402793884E0,4.068217087E1,2.787608528E1
1.486140526E1,-2.674577475E0,4.278277206E1,3.075823975E1
1.487807120E1,-5.189135075E0,4.227339935E1,2.725993347E1
1.489473714E1,-3.916452408E0,3.912444305E1,1.902862358E1
1.491140308E1,1.512562990E0,3.449193954E1,1.653590012E1
1.492806902E1,8.574081421E0,2.968625450E1,2.138286209E1
1.494473495E1,1.652513313E1,2.703470802E1,2.313949203E1
1.496140089E1,2.517787743E1,2.604198647E1,1.864607048E1
1.497806683E1,3.425654602E1,2.537229538E1,1.339322662E1
1.499473276E1,4.342733765E1,2.609971237E1,1.221027470E1
1.501139870E1,5.598935699E1,2.781506729E1,1.913091660E1
1.502806464E1,6.947710419E1,2.402184486E1,2.698236465E1
1.504473058E1,7.740272522E1,1.245105267E1,2.773730087E1
1.506139652E1,7.587730408E1,-4.140779495E0,2.108076668E1
1.507806245E1,6.304160309E1,-1.768475342E1,1.249860954E1
1.509472839E1,4.586592484E1,-3.388565826E1,1.176371479E1
1.511139433E1,2.575724030E1,-5.055286407E1,1.640997696E1
1.512806026E1,5.924329758E0,-6.000600815E1,1.650688744E1
1.514472620E1,-1.823330879E0,-6.648667145E1,2.171486616E0
1.516139214E1,-1.031157017E1,-6.582475281E1,-1.406411457E1
1.517805808E1,-1.257368469E1,-6.135436630E1,-1.731625938E1
1.519472402E1,7.500601768E0,-5.786264038E1,-8.988339424E0
1.521138995E1,2.730240631E1,-4.866073990E1,1.298704505E0
1.522805589E1,3.247987366E1,-3.487808228E1,1.208644581E1
1.524472183E1,3.914837265E1,-2.656930351E1,1.295504093E1
1.526138776E1,4.672165680E1,-2.232892418E1,5.116153717E0
1.527805370E1,5.230859756E1,-1.822134399E1,-4.103690624E0
1.529471964E1,6.521757507E1,-1.093998528E1,-3.487838030E0
1.531138558E1,7.759983826E1,1.782054663E0,1.513849163E1
1.532805152E1,6.662335968E1,1.506192112E1,3.176771164E1
1.534471745E1,4.669324112E1,2.061386871E1,3.230849075E1
1.536138339E1,3.325604630E1,2.249731827E1,1.802931976E1
1.537804933E1,2.400001144E1,2.281287193E1,8.051548958E0
1.539471526E1,1.422533035E1,2.534417915E1,7.833503246E0
1.541138120E1,6.665207386E0,3.088625526E1,1.410897923E1
1.542804714E1,3.999004841E0,3.428735352E1,1.857159424E1
1.544471308E1,2.594418049E0,3.208356476E1,1.563290882E1
1.546137902E1,-2.352443695E0,2.964378166E1,7.372585773E0
1.547804495E1,-8.250153542E0,2.908445930E1,6.784848690E0
1.549471089E1,-8.259724617E0,2.956122971E1,1.343240929E1
1.551137683E1,1.212862015E0,3.214069366E1,2.144866371E1
1.552804276E1,1.565743542E1,3.458884811E1,2.585803795E1
1.554470870E1,2.701616478E1,3.158675385E1,2.324836540E1
1.556137464E1,3.091407204E1,2.541416931E1,1.840858269E1
1.557804058E1,3.545056534E1,2.141606140E1,1.792493439E1
1.559470652E1,4.779603577E1,1.719243050E1,2.132603264E1
1.561137245E1,6.045047760E1,8.156833649E0,2.463590431E1
1.562803839E1,6.523761749E1,-2.374577284E0,2.274527550E1
1.564470433E1,6.465197754E1,-1.017428207E1,1.739103508E1
1.566137026E1,5.510850143E1,-1.992742729E1,1.158784199E1
1.567803620E1,3.516881180E1,-2.959054184E1,8.549256325E0
1.569470214E1,1.308784294E1,-3.803870010E1,8.369794846E0
1.571136808E1,-2.883949518E0,-4.414727783E1,6.984350204E0
1.572803402E1,-9.470193863E0,-4.758875656E1,-1.990529299E0
1.574469995E1,-1.389482212E1,-4.857220459E1,-1.212562847E1
1.576136589E1,-1.579891014E1,-4.500480652E1,-1.693011665E1
1.577803183E1,-6.137290955E0,-4.235924149E1,-1.280489159E1
1.579469776E1,1.000319481E1,-4.019523239E1,2.392822644E-3
1.581136370E1,1.794557190E1,-3.315225983E1,1.386790276E1
1.582802964E1,1.945275116E1,-2.645235443E1,1.457707596E1
1.584469558E1,2.471935272E1,-2.324866486E1,5.659324646E0
1.586136152E1,3.181616592E1,-2.018136597E1,1.208375469E-1
1.587802745E1,4.170390701E1,-1.551326752E1,6.341877460E0
1.589469339E1,5.293671417E1,-7.416553974E0,1.472782326E1
1.591135933E1,6.375855255E1,5.162814140E0,2.054208374E1
1.592802526E1,6.038616943E1,1.710688782E1,2.494068909E1
1.594469120E1,4.615096664E1,2.201486588E1,1.951376724E1
1.596135714E1,2.979512787E1,2.122254181E1,7.232007504E0
1.597802308E1,1.469910908E1,2.072752762E1,9.023932219E-1
1.599468902E1,7.188338280E0,2.172653008E1,2.795115948E0
1.601135495E1,7.649554729E0,2.386421776E1,5.220241547E0
1.602802089E1,9.465408325E0,2.370629120E1,5.355436325E0
1.604468683E1,3.207877874E0,2.376611328E1,4.981557846E0
1.606135277E1,-3.276372433E0,2.641975212E1,6.333203316E0
1.607801870E1,-1.067198873E0,2.980798912E1,8.302795410E0
1.609468464E1,6.078666687E0,3.049173927E1,8.332705498E0
1.611135058E1,1.032173920E1,2.675115967E1,4.726722240E0
1.612801652E1,9.803992271E0,2.095753670E1,3.475574851E-1
1.614468245E1,1.058495045E1,1.521595955E1,-1.733300924E0
1.616134839E1,1.539392567E1,8.840881348E0,-2.257328987E0
1.617801433E1,2.408076859E1,-1.057328463E0,-2.865405083E0
1.619468027E1,3.395594788E1,-1.202243805E1,-2.521436930E0
1.621134620E1,3.799204254E1,-1.689272881E1,3.555435419E0
1.622801214E1,4.111587143E1,-1.865863228E1,1.661127472E1
1.624467808E1,3.810001755E1,-2.409482765E1,2.279402924E1
1.626134402E1,2.132603264E1,-2.720489883E1,1.337288761E1
1.627800995E1,3.620639801E0,-2.391028023E1,1.876571178E0
1.629467589E1,-6.081657887E0,-1.847109604E1,-4.805087090E0
1.631134183E1,-9.275776863E0,-1.320628738E1,-8.801998138E0
1.632800777E1,-1.175683498E1,-8.849256516E0,-1.259671593E1
1.634467370E1,-1.101266670E1,-8.153543472E0,-1.255753326E1
1.636133964E1,-6.700501442E0,-1.039113140E1,-9.799206734E0
1.637800558E1,-7.409076214E0,-1.156511021E1,-4.548755646E0
1.639467152E1,-8.254939079E0,-1.564726543E1,-4.405784607E-1
1.641133745E1,-8.391031265E0,-1.658734512E1,2.706581593E0
1.642800339E1,8.818149567E0,-1.077458096E1,1.704138374E1
1.644466933E1,4.186512375E1,2.826820850E0,4.364927292E1
1.646133527E1,5.212195969E1,1.371775341E1,4.987749100E1
1.647800120E1,4.056432724E1,1.326311684E1,2.413460732E1
1.649466714E1,2.115943146E1,1.263141155E1,-1.424088383E1
1.651133308E1,6.653243542E0,1.082841969E1,-2.315863419E1
1.652799902E1,-2.435594320E0,1.015214825E1,-4.435994148E0
1.654466495E1,-3.842574120E0,9.644869804E0,1.897209287E0
1.656133089E1,-4.408775866E-1,5.646163940E0,-5.964110374E0
1.657799683E1,2.426621199E0,2.405683994E0,-1.215374470E1
1.659466277E1,6.343970895E-1,-3.092723191E-1,-7.603193760E0
1.661132870E1,4.645066857E-1,-4.202693939E0,-4.130610228E-1
1.662799464E1,6.315556049E0,-6.697211266E0,5.697908998E-1
1.664466058E1,2.228854561E1,-9.093324661E0,-1.872981906E0
1.666132652E1,4.167309952E1,-8.201100349E0,1.025922745E-1
1.667799245E1,3.296053314E1,-2.637189627E0,1.272951698E1
1.669465839E1,1.270588779E1,5.440680385E-1,1.779631996E1
1.671132433E1,8.381160736E0,1.274178028E-1,7.039684296E0
1.672799027E1,8.863314629E0,-3.506980658E0,-6.935895443E0
1.674465620E1,3.759722471E0,-5.336592674E0,-1.493629837E1
1.676132214E1,2.070688963E0,-7.529614449E0,-1.540768433E1
1.677798808E1,4.766502857E0,-1.166351509E1,-1.143350506E1
1.679465402E1,6.352644920E0,-1.199641609E1,-1.934896231E0
1.681131995E1,5.797510147E0,-6.543173313E0,1.130040359E1
1.682798589E1,1.163031483E1,-2.396112680E0,1.927149391E1
1.684465183E1,1.910519409E1,2.694916487E0,1.939173317E1
1.686131777E1,2.255684090E1,5.879464149E0,1.481306744E1
1.687798370E1,1.997588158E1,6.943971157E0,5.810670853E0
1.689464964E1,1.513340664E1,7.587939739E0,-2.679064035E0
1.691131558E1,1.156331539E1,7.059724331E0,-4.885545731E0
1.692798152E1,9.062217712E0,5.574678421E0,-2.883052111E0
1.694464745E1,1.064806080E1,3.629313707E0,-4.606183469E-1
1.696131339E1,1.650090408E1,1.090828061E0,8.476574421E-1
1.697797933E1,2.009761620E1,-3.241377354E0,1.549053550E0
1.699464527E1,1.889133453E1,-8.163414001E0,4.537389874E-1
1.701131120E1,1.775115395E1,-1.009083176E1,-2.126621008E0
1.702797714E1,1.780170250E1,-1.075125122E1,-4.968397141E0
1.704464308E1,1.608993721E1,-1.272473145E1,-3.270689487E0
1.706130902E1,1.136022472E1,-1.656401634E1,2.020439625E0
1.707797495E1,5.018048286E0,-1.878455544E1,6.834499836E0
1.709464089E1,-5.479564071E-1,-1.832483482E1,6.777071953E0
1.711130683E1,-3.306282759E0,-1.735962868E1,1.231705427E0
1.712797277E1,-4.158725739E0,-1.734587097E1,-5.417350292E0
1.714463870E1,-8.479565382E-1,-1.842533302E1,-9.130413055E0
1.716130464E1,5.740381718E0,-2.067727852E1,-8.922237396E0
1.717797058E1,1.131745243E1,-2.260888290E1,-4.902295470E-1
1.719463652E1,1.394148159E1,-1.979223251E1,1.567089462E1
1.721130245E1,1.987897301E1,-1.529492188E1,2.399103737E1
1.722796839E1,3.176711273E1,-1.075543880E1,2.008894157E1
1.724463433E1,4.490221405E1,-3.346362352E0,1.333789253E1
1.726130027E1,4.780799866E1,3.466003656E0,6.185147285E0
1.727796620E1,3.925216293E1,6.940382004E0,5.451447964E0
1.729463214E1,2.845843697E1,8.118248940E0,8.198707581E0
1.731129808E1,2.266990089E1,1.155494022E1,5.817550182E0
1.732796402E1,2.394557381E1,1.445623779E1,1.064806104E0
1.734462995E1,2.665215683E1,1.657358742E1,-1.735693693E0
1.736129589E1,2.424108887E1,1.891257095E1,-1.641177177E0
1.737796183E1,2.044337845E1,1.952782631E1,-2.418844700E0
1.739462777E1,1.848305893E1,1.865145493E1,-6.749554634E0
1.741129370E1,1.702792358E1,1.755823326E1,-8.411968231E0
1.742795964E1,1.676800346E1,1.719003868E1,-5.784947872E0
1.744462558E1,1.777717590E1,1.600379562E1,-4.205385685E0
1.746129152E1,1.853630066E1,1.448046494E1,-2.179562330E0
1.747795745E1,1.943809509E1,1.270409393E1,-2.781656384E-2
1.749462339E1,2.054956055E1,1.034836006E1,-3.472583890E-1
1.751128933E1,2.362343979E1,9.940682411E0,3.421736360E-1
1.752795527E1,2.625584412E1,9.754042625E0,3.091526747E0
1.754462120E1,2.769183731E1,1.041326523E1,6.127121449E0
1.756128714E1,2.975803947E1,1.014885807E1,1.037378311E1
1.757795308E1,3.057638550E1,7.133303165E0,1.347548008E1
1.759461902E1,2.838306427E1,1.088435173E0,1.381107330E1
1.761128495E1,2.255504608E1,-6.550053120E0,1.073809052E1
1.762795089E1,1.619940948E1,-1.612971878E1,4.660919189E0
1.764461683E1,8.136195183E0,-2.209053802E1,4.534398913E-1
1.766128277E1,1.887338907E-1,-2.213929176E1,-1.001396298E0
1.767794870E1,-8.790631890E-1,-2.308535385E1,7.022934556E-1
1.769461464E1,1.907079697E0,-2.425993156E1,2.625823736E0
1.771128058E1,2.472383976E0,-2.260978127E1,4.853840828E0
1.772794652E1,1.641476393E0,-1.951137543E1,5.301597595E0
1.774461245E1,2.572284341E-1,-1.658016777E1,3.457030535E0
1.776127839E1,-7.235297561E-1,-1.484746456E1,9.212367237E-2
1.777794433E1,2.027618170E0,-1.454267883E1,-1.947458506E0
1.779461027E1,1.098305607E1,-1.366002655E1,-5.231607437E0
1.781127620E1,2.380738831E1,-8.748458862E0,-3.723232031E0
1.782794214E1,3.567877960E1,6.822535396E-1,2.374577284E0
1.784460808E1,4.289732742E1,1.094865894E1,5.683851242E0
1.786127402E1,4.525186539E1,1.505534077E1,2.882753134E0
1.787793995E1,4.010580063E1,1.086191940E1,4.361218452E0
1.789460589E1,2.746780968E1,8.369794846E0,1.037827015E1
1.791127183E1,2.027588272E1,1.015214825E1,1.604148293E1
1.792793776E1,2.148964119E1,1.032473087E1,1.434885979E1
1.794460370E1,2.287359047E1,1.012373352E1,7.476673603E0
1.796126964E1,2.073620033E1,9.334999084E0,4.423730969E-1
1.797793558E1,1.456421375E1,8.459525108E0,-1.093519926E0
1.799460152E1,1.021675491E1,6.993622303E0,8.015955687E-1
1.801126745E1,8.900103569E0,5.351547718E0,5.987440586E0
1.802793339E1,7.797909737E0,4.722235680E0,1.298046494E1
1.804459933E1,4.423730850E0,4.629214287E0,1.686760521E1
1.806126526E1,-3.035893738E-1,4.840680122E0,1.660289955E1
1.807793120E1,-4.229014874E0,5.067399979E0,1.324666595E1
1.809459714E1,-6.823133945E0,5.699105263E0,9.098708153E0
1.811126308E1,-7.750352383E0,6.843173504E0,5.584548950E0
1.812792902E1,-6.329614162E0,8.652446747E0,2.203789711E0
1.814459495E1,-4.449154377E0,1.081615639E1,-3.242274821E-1
1.816126089E1,-2.909971476E0,1.513191128E1,-1.690230131E0
1.817792683E1,-2.061416626E0,1.920539284E1,-6.038886309E-1
1.819459276E1,-3.416950703E0,2.145285225E1,4.876871586E0
1.821125870E1,-4.363611221E0,2.182463646E1,8.834300995E0
1.822792464E1,-1.955235243E0,2.074308014E1,5.988337994E0
1.824459058E1,2.459821701E0,1.970070648E1,1.332503080E0
1.826125652E1,6.650551319E0,1.878096581E1,-7.229315639E-1
1.827792245E1,9.786943436E0,1.909651947E1,7.947162390E-1
1.829458839E1,1.159053421E1,1.982423592E1,3.990629911E0
1.831125433E1,1.329841137E1,2.229751778E1,9.814760208E0
1.832792026E1,1.703540230E1,2.874138832E1,1.549681664E1
1.834458620E1,2.781088066E1,3.324617767E1,1.690708733E1
1.836125214E1,3.951028824E1,2.975115967E1,1.366899967E1
1.837791808E1,3.920789337E1,2.176421738E1,1.007976532E1
1.839458402E1,3.202793121E1,1.192403316E1,6.190232277E0
1.841124995E1,2.702902603E1,2.494517565E-1,2.642274380E0
1.842791589E1,2.051875305E1,-1.005553818E1,1.791326880E0
1.844458183E1,1.199103260E1,-1.725255013E1,3.352045536E0
1.846124776E1,7.832306862E0,-2.472653198E1,4.212863445E0
1.847791370E1,6.606583118E0,-3.306312561E1,4.097708687E-2
1.849457964E1,4.161417484E0,-3.882474518E1,-8.140980721E0
1.851124558E1,2.165504545E-1,-4.172753525E1,-1.419362545E1
1.852791152E1,-2.239681959E0,-4.165275955E1,-1.176610756E1
1.854457745E1,7.184450030E-1,-4.055266190E1,-3.206681490E0
1.856124339E1,1.078714371E1,-3.839941788E1,6.857829571E0
1.857790933E1,2.528824615E1,-3.441746521E1,1.032203865E1
1.859457526E1,3.598386383E1,-2.916342354E1,2.575873613E0
1.861124120E1,4.224528503E1,-2.175883293E1,-3.960121393E0
1.862790714E1,4.887759018E1,-9.938289642E0,-5.127819061E0
1.864457308E1,6.683213806E1,3.436691463E-1,7.166503668E-1
1.866123902E1,7.819684601E1,1.212772274E1,1.866790581E1
1.867790495E1,7.367829895E1,2.476362038E1,3.412793350E1
1.869457089E1,4.633282471E1,3.196452141E1,2.909821892E1
1.871123683E1,2.243420792E1,3.373820114E1,1.067767239E1
1.872790276E1,3.724428415E0,4.125465393E1,2.446063042E0
1.874456870E1,-2.419741899E-1,4.564817810E1,6.384948254E0
1.876123464E1,1.553540111E0,4.213252258E1,1.688854218E1
1.877790058E1,-3.168695450E0,3.535216141E1,2.765175819E1
1.879456652E1,-8.633603096E0,3.114408302E1,2.813361168E1
1.881123245E1,2.273181528E-1,3.132533836E1,1.789741516E1
1.882789839E1,1.958316040E1,3.208266830E1,5.585147381E0
1.884456433E1,3.416532135E1,3.260938644E1,2.104487419E0
1.886123026E1,3.786552048E1,3.418296814E1,1.059960651E1
1.887789620E1,4.440660095E1,3.717040634E1,1.787229156E1
1.889456214E1,6.300511551E1,3.462205124E1,1.732433510E1
1.891122808E1,7.455496979E1,2.358904457E1,1.574357700E1
1.892789402E1,7.118527985E1,7.607381344E0,1.243729401E1
1.894455995E1,5.977420425E1,-7.421040535E0,8.027321815E0
1.896122589E1,4.793182755E1,-2.387707901E1,6.243771553E0
1.897789183E1,3.144886780E1,-3.712464142E1,3.729513168E0
1.899455776E1,1.380927849E1,-4.386283112E1,1.712064624E0
1.901122370E1,-4.752743840E-1,-4.384159470E1,2.931207657E0
1.902788964E1,-5.598906040E0,-4.527040863E1,4.232304990E-1
1.904455558E1,-6.536593437E0,-4.560720062E1,-2.921935558E0
1.906122152E1,-6.505486488E0,-4.344618225E1,-7.040282249E0
1.907788745E1,-3.681656837E0,-3.984737778E1,-1.098574829E1
1.909455339E1,6.538387775E0,-3.772733688E1,-9.212067604E0
1.911121933E1,1.804098511E1,-3.502733612E1,-3.774677753E0
1.912788526E1,2.729343224E1,-2.994916725E1,1.199402332E0
1.914455120E1,3.360629654E1,-2.373979187E1,6.313462734E0
1.916121714E1,3.697987747E1,-1.718196297E1,1.000678444E1
1.917788308E1,4.100191498E1,-1.121486092E1,9.524331093E0
1.919454902E1,5.183721161E1,-3.842274904E0,8.947661400E0
1.921121495E1,6.819394684E1,4.093820572E0,8.594719887E0
1.922788089E1,6.182455444E1,9.000303268E0,1.370578861E1
1.924454683E1,3.769622803E1,1.062981510E1,1.948086739E1
1.926121276E1,2.421685982E1,1.292931843E1,2.060459518E1
1.927787870E1,2.278984070E1,1.444666672E1,1.564636803E1
1.929454464E1,1.900529289E1,1.457647705E1,8.865707397E0
1.931121058E1,1.110269737E1,1.646830368E1,5.507978439E0
1.932787652E1,5.434698582E0,1.857966995E1,5.268995285E0
1.934454245E1,2.245065928E0,1.924068642E1,7.395018578E0
1.936120839E1,6.777670383E-1,1.853869247E1,9.841679573E0
1.937787433E1,-9.990034252E-2,1.827817345E1,8.545666695E0
1.939454026E1,-3.102892876E0,2.054477501E1,6.736393929E0
1.941120620E1,-4.423730850E0,2.574138832E1,8.301300049E0
1.942787214E1,-1.914856315E0,3.215145874E1,1.412572956E1
1.944453808E1,5.817550182E0,3.544667816E1,1.927059746E1
1.946120402E1,1.358285809E1,3.338137054E1,1.812682724E1
1.947786995E1,1.686581039E1,2.947538757E1,1.300259781E1
1.949453589E1,2.018106651E1,2.493829727E1,8.292924881E0
1.951120183E1,2.575275421E1,2.234866524E1,7.881359577E0
1.952786776E1,3.727299881E1,1.888415718E1,1.476461315E1
1.954453370E1,5.382923889E1,1.251476192E1,2.309253311E1
1.956119964E1,6.643731689E1,7.789834023E0,2.123630142E1
1.957786558E1,7.007710266E1,4.435695112E-1,1.528864098E1
1.959453152E1,5.769753265E1,-9.754940033E0,1.153280735E1
1.961119745E1,3.793610764E1,-1.651346779E1,1.071535873E1
1.962786339E1,2.325913429E1,-2.185753822E1,1.077787113E1
1.964452933E1,1.137817097E1,-2.546710968E1,8.303094864E0
1.966119526E1,4.782654285E0,-2.733829689E1,4.337888241E0
1.967786120E1,1.836790442E0,-2.913261604E1,-1.544566989E0
1.969452714E1,-1.718644857E0,-2.939732170E1,-7.350750923E0
1.971119308E1,-4.989633560E0,-2.747708130E1,-8.949156761E0
1.972785902E1,-6.198307991E0,-2.524906540E1,-6.390930176E0
1.974452495E1,-5.900102615E0,-2.339941216E1,-2.703590393E0
1.976119089E1,-3.616751432E0,-2.199333000E1,1.787737608E0
1.977785683E1,1.399801224E-1,-2.100629044E1,4.784748077E0
1.979452276E1,4.194318771E0,-1.977697754E1,4.318147659E0
1.981118870E1,8.285148621E0,-1.830449486E1,1.953440547E0
1.982785464E1,8.047960281E0,-1.587219048E1,-4.622334957E0
1.984452058E1,7.978269100E0,-1.574208069E1,-8.835796356E0
1.986118652E1,8.579465866E0,-1.635374641E1,-7.783852100E0
1.987785245E1,1.752682686E1,-1.775982857E1,-4.138685703E0
1.989451839E1,4.758456802E1,-1.445713520E1,5.378467083E0
1.991118433E1,7.723762512E1,-1.313061416E-1,2.603989220E1
1.992785026E1,7.272805023E1,1.302891922E1,3.614807129E1
1.994451620E1,4.566941452E1,1.446820259E1,3.154517937E1
1.996118214E1,2.948136902E1,1.179272747E1,1.468535042E1
1.997784808E1,1.836072540E1,1.125344467E1,-1.504188180E0
1.999451402E1,1.009202862E1,9.965806961E0,-6.774380207E0
2.001117995E1,4.059124470E0,9.381061554E0,-3.362813234E0
2.002784589E1,7.806583643E-1,9.163015366E0,-1.040578723E0
2.004451183E1,-3.442673683E0,1.003250694E1,-2.197508574E0
2.006117776E1,-6.217749596E0,1.189561844E1,-4.178167343E0
2.007784370E1,-5.181059361E0,1.491536045E1,-5.165505886E0
2.009450964E1,-2.159522474E-1,2.029951096E1,-3.629014730E0
2.011117558E1,5.887839317E0,2.565704155E1,-6.466603279E-1
2.012784152E1,9.464211464E0,2.926900673E1,2.264507532E0
2.014450745E1,8.989236832E0,2.818505859E1,3.894917011E0
2.016117339E1,4.819144726E0,2.320858574E1,5.994917870E0
2.017783933E1,-2.285145670E-1,1.815225220E1,7.469794273E0
2.019450526E1,-1.699801445E0,1.452204037E1,9.478269577E0
2.021117120E1,4.459623098E-1,1.138265705E1,1.221595764E1
2.022783714E1,4.910969257E0,8.779266357E0,1.883869362E1
2.024450308E1,1.746940041E1,6.004788399E0,2.635335159E1
2.026116902E1,3.518346405E1,4.514358997E0,3.483949661E1
2.027783495E1,5.554937744E1,9.538987160E0,3.137199783E1
2.029450089E1,7.015217590E1,6.523731709E0,2.828645325E1
2.031116683E1,6.064399719E1,-3.179762125E0,2.973441124E1
2.032783276E1,4.278875351E1,-1.109043407E1,2.430748940E1
2.034449870E1,3.617050552E1,-1.484237957E1,1.021944618E1
2.036116464E1,3.481287766E1,-1.842114449E1,-3.101098061E0
2.037783058E1,2.756591415E1,-2.028605080E1,-1.115384388E1
2.039449652E1,2.044098663E1,-2.113640022E1,-1.111585712E1
2.041116245E1,1.630469322E1,-2.414477730E1,-7.968996525E0
2.042782839E1,9.711569786E0,-2.625375175E1,-7.619943619E0
2.044449433E1,2.149353027E0,-2.619901466E1,-1.118554878E1
2.046116026E1,-3.803690672E0,-2.574647331E1,-1.639143372E1
2.047782620E1,-6.198606968E0,-2.606023216E1,-1.706142426E1
2.049449214E1,-5.986842155E0,-2.739752007E1,-1.280160141E1
2.051115808E1,-7.630412102E0,-2.672693253E1,-7.176374435E0
2.052782402E1,-1.027298546E1,-2.517847633E1,-4.024428368E0
2.054448995E1,-1.106351471E1,-2.330220413E1,-1.669292927E0
2.056115589E1,-8.979664803E0,-2.143131638E1,-7.567301393E-1
2.057782183E1,-1.889133453E0,-2.022353935E1,-1.991725802E0
2.059448776E1,9.206684113E0,-2.089412689E1,-6.366104603E0
2.061115370E1,2.770110893E1,-1.949731636E1,-7.072585583E0
2.062781964E1,5.619992447E1,-9.300303459E0,6.909873486E0
2.064448558E1,6.927640533E1,3.157329559E0,3.032095146E1
2.066115152E1,5.905396652E1,9.184849739E0,4.543820572E1
2.067781745E1,4.207389832E1,1.173978615E1,4.364927292E1
2.069448339E1,2.882782936E1,1.190070343E1,2.089921188E1
2.071114933E1,2.128176498E1,1.141107178E1,-2.937189937E-1
2.072781526E1,1.359631729E1,1.035643578E1,-7.638188839E0
2.074448120E1,7.159026146E0,9.567401886E0,-3.019443035E0
2.076114714E1,3.144168854E0,9.618249893E0,4.169194221E0
2.077781308E1,-7.941179872E-1,1.132403278E1,8.346165657E0
2.079447902E1,-4.225724697E0,1.375514126E1,8.169096947E0
2.081114495E1,-6.495915413E0,1.705723572E1,6.525526524E0
2.082781089E1,-6.608676910E0,2.101975060E1,5.394020557E0
2.084447683E1,-2.837289333E0,2.319991112E1,5.169394016E0
2.086114276E1,2.095813513E0,2.384178543E1,6.505785465E0
2.087780870E1,4.444668293E0,2.235733795E1,8.619544983E0
2.089447464E1,4.699802876E0,1.930050659E1,1.024307537E1
2.091114058E1,5.548656464E0,1.560030651E1,9.967003822E0
2.092780652E1,7.966903210E0,1.261167049E1,8.276473999E0
2.094447245E1,1.195454216E1,1.014556789E1,7.597510815E0
2.096113839E1,1.694148254E1,7.980063438E0,1.056820011E1
2.097780433E1,2.640479851E1,5.485845089E0,1.901845360E1
2.099447026E1,4.295176315E1,4.245465755E0,2.474776840E1
2.101113620E1,5.983342743E1,2.539682150E0,2.347927284E1
2.102780214E1,6.090391541E1,-3.761218071E0,2.050768661E1
2.104446808E1,4.643332291E1,-1.232931805E1,1.885514259E1
2.106113402E1,3.174198914E1,-1.627119446E1,1.465035534E1
2.107779995E1,2.566661263E1,-1.770539284E1,8.178966522E0
2.109446589E1,2.261516571E1,-1.812264061E1,1.594517231E0
2.111113183E1,1.749243164E1,-1.753281021E1,-2.558824778E0
2.112779776E1,1.184477139E1,-1.668694687E1,-3.486043453E0
2.114446370E1,8.316255569E0,-1.627358627E1,-3.134896755E0
2.116112964E1,6.518647194E0,-1.672553062E1,-3.582952738E0
2.117779558E1,4.607978344E0,-1.811396599E1,-5.219045162E0
2.119446152E1,7.184450030E-1,-1.896222305E1,-7.534400463E0
2.121112745E1,-4.258028030E0,-2.023011971E1,-9.164510727E0
2.122779339E1,-8.112266541E0,-2.114866447E1,-8.233104706E0
2.124445933E1,-1.093131161E1,-2.168106651E1,-3.907180309E0
2.126112526E1,-1.299631691E1,-2.144088745E1,7.067800164E-1
2.127779120E1,-1.414756393E1,-2.046491432E1,4.121038914E0
2.129445714E1,-1.344856071E1,-1.951795578E1,5.762515068E0
2.131112308E1,-1.105543900E1,-1.859013748E1,4.759623528E0
2.132778902E1,-1.792224169E0,-2.069552231E1,9.583254457E-1
2.134445495E1,1.689901161E1,-2.091267204E1,-9.344271660E0
2.136112089E1,4.589912415E1,-5.818148136E0,-1.450947857E1
2.137778683E1,7.614231110E1,6.377769470E0,-8.450551987E0
2.139445276E1,7.464739227E1,1.220070362E1,1.182473087E1
2.141111870E1,5.085495758E1,1.687747574E1,3.553042603E1
2.142778464E1,2.772264481E1,1.689332771E1,2.604976273E1
2.144445058E1,1.567268944E1,1.326281738E1,3.740580082E0
2.146111652E1,8.197212219E0,1.158365440E1,-8.411968231E0
2.147778245E1,3.408874989E0,1.039412212E1,-9.125926018E0
2.149444839E1,9.981061220E-1,8.914161682E0,-4.906183720E0
2.151111433E1,-1.498505175E-1,7.743772507E0,1.033699393E0
2.152778026E1,-1.454237938E0,7.823931694E0,5.705386639E0
2.154444620E1,-4.324728012E0,7.485646725E0,4.484149456E0
2.156111214E1,-7.504789352E0,6.787241459E0,2.321037948E-1
2.157777808E1,-9.712167740E0,6.284150600E0,-3.097209692E0
2.159444402E1,-1.131625652E1,6.380760670E0,-5.279763222E0
2.161110995E1,-1.256231880E1,6.173183441E0,-7.541578770E0
2.162777589E1,-1.381316662E1,5.786144257E0,-8.927920341E0
2.164444183E1,-1.522403526E1,5.493920803E0,-9.786644936E0
2.166110776E1,-1.718495369E1,5.860022545E0,-8.660821915E0
2.167777370E1,-1.932623100E1,7.163213730E0,-4.731208801E0
2.169443964E1,-1.574058533E1,7.715058327E0,1.498804331E0
2.171110558E1,1.450439358E1,6.490531445E0,6.912266254E0
2.172777152E1,5.042634583E1,6.290730953E0,1.271545982E1
2.174443745E1,5.087559509E1,1.113021469E1,2.006351852E1
2.176110339E1,4.173860168E1,1.627418518E1,2.873092079E1
2.177776933E1,4.961637497E1,9.098408699E0,2.829213715E1
2.179443526E1,4.830690002E1,2.123630047E-1,2.175225258E1
2.181110120E1,3.310829163E1,-4.926223755E0,1.271964741E1
2.182776714E1,2.263311195E1,-8.811569214E0,4.330410957E0
2.184443308E1,1.848634911E1,-1.072582722E1,-2.910569668E0
2.186109902E1,1.563769436E1,-1.111525917E1,-8.637491226E0
2.187776495E1,1.269841099E1,-1.102851963E1,-1.140120125E1
2.189443089E1,9.299406052E0,-1.153669548E1,-1.213669586E1
2.191109683E1,5.443671703E0,-1.176012516E1,-1.151216888E1
2.192776276E1,1.817348838E0,-1.124656582E1,-1.004656506E1
2.194442870E1,-7.746763229E-1,-1.080838013E1,-8.948259354E0
2.196109464E1,-2.916252613E0,-1.025115108E1,-8.778069496E0
2.197776058E1,-4.327419758E0,-9.905986786E0,-8.528019905E0
2.199442652E1,-5.480760098E0,-9.324830055E0,-7.915158272E0
2.201109245E1,-5.871986866E0,-8.610273361E0,-6.224329948E0
2.202775839E1,-5.445466042E0,-8.006683350E0,-3.283550978E0
2.204442433E1,-4.546362877E0,-8.104190826E0,-1.079761237E-1
2.206109026E1,-7.010970116E-1,-7.330711365E0,2.687139750E0
2.207775620E1,7.088438034E0,-9.606884003E0,4.875376225E-1
2.209442214E1,1.529342651E1,-7.288836956E0,-3.339782238E0
2.211108808E1,3.186521912E1,5.826523304E0,3.908974886E0
2.212775402E1,5.639823151E1,9.744471550E0,1.969292998E0
2.214441995E1,5.898218155E1,8.624032021E0,-5.445466042E0
2.216108589E1,3.819872284E1,7.509574890E0,-4.000799656E0
2.217775183E1,1.688405609E1,4.374977112E0,-6.903293133E-1
2.219441776E1,4.634897232E0,4.389034748E0,1.231107235E0
2.221108370E1,4.342973232E-1,4.544269085E0,1.286142170E-1
2.222774964E1,-7.250252366E-1,4.403990269E0,-1.255932808E0
2.224441558E1,-1.889133453E0,4.477569580E0,-7.920243144E-1
2.226108152E1,-2.701496840E0,4.569394112E0,6.538388133E-1
2.227774745E1,-2.990430117E0,4.587938309E0,1.261316657E0
2.229441339E1,-2.549253464E0,4.344169617E0,-3.421736360E-1
2.231107933E1,-2.440978289E0,3.590430260E0,-4.736891747E0
2.232774526E1,-1.491625786E0,2.910868645E0,-1.027627563E1
2.234441120E1,-1.141376376E0,3.132802963E0,-1.468026638E1
2.236107714E1,-1.374975681E0,3.554538012E0,-1.626820374E1
2.237774308E1,-2.326720953E0,3.277568817E0,-1.558146286E1
2.239440902E1,-3.554239035E0,2.823829889E0,-1.268764305E1
2.241107495E1,-4.682155609E0,2.433799744E0,-9.701101303E0
2.242774089E1,-4.427021027E0,1.241874933E0,-8.603095055E0
2.244440683E1,3.951148391E-1,-1.663310885E0,-1.027268696E1
2.246107276E1,9.174081802E0,-6.733702183E0,-1.355593872E1
2.247773870E1,1.740868187E1,-1.368365574E1,-1.274836063E1
2.249440464E1,2.068206406E1,-1.505115318E1,-5.785246849E0
2.251107058E1,1.911835289E1,-1.534906006E1,-1.292124242E-1
2.252773652E1,1.577707577E1,-1.918505287E1,2.213061810E0
2.254440245E1,1.378564930E1,-2.534208488E1,4.423730969E-1
2.256106839E1,1.365195084E1,-2.993809891E1,-4.774279594E0
2.257773433E1,1.457647705E1,-3.159243774E1,-1.120319557E1
2.259440026E1,1.241665554E1,-3.083780098E1,-1.164497089E1
2.261106620E1,6.344868183E0,-2.863251495E1,-6.344270229E0
2.262773214E1,2.561217546E0,-2.751087952E1,-2.021636009E0
2.264439808E1,3.448954821E0,-2.629981232E1,-3.332005441E-1
2.266106402E1,9.143872261E0,-2.498705101E1,-4.067798555E-1
2.267772995E1,1.493629837E1,-2.182134628E1,4.178466499E-1
2.269439589E1,1.831556129E1,-1.560987759E1,2.550150633E0
2.271106183E1,1.935284996E1,-8.842078209E0,3.447160006E0
2.272772776E1,1.501137257E1,-4.987838745E0,3.452543974E0
2.274439370E1,9.623035431E0,-4.206881523E0,6.973283291E0
2.276105964E1,6.317949295E0,-3.395116329E0,1.232602787E1
2.277772558E1,3.991228104E0,-3.136990547E0,1.376052475E1
2.279439152E1,2.833101988E0,-2.936890602E0,1.101416302E1
2.281105745E1,4.795814991E0,-3.476173162E0,8.775078773E0
2.282772339E1,8.348856926E0,-7.138986588E0,9.213862419E0
2.284438933E1,6.375077724E0,-7.002595425E0,1.177508068E1
2.286105526E1,4.832604408E0,-6.013163090E0,1.502004719E1
2.287772120E1,4.004986763E0,-6.615257263E0,1.483789349E1
2.289438714E1,6.975975513E0,-9.944272041E0,9.798908234E0
2.291105308E1,1.240499115E1,-1.265294743E1,3.263510942E0
2.292771902E1,1.707099533E1,-1.417268848E1,-1.296311617E0
2.294438495E1,1.711406517E1,-1.555394554E1,-3.068794966E0
2.296105089E1,1.337318707E1,-1.535893059E1,-3.182155132E0
2.297771683E1,9.629017830E0,-1.432403469E1,-1.328315616E0
2.299438276E1,6.233004093E0,-1.294158173E1,-1.809572101E0
2.301104870E1,5.963212967E0,-1.021107197E1,-4.265206337E0
2.302771464E1,8.165207863E0,-6.960721016E0,-5.443073273E0
2.304438058E1,1.078774166E1,-4.206881523E0,-7.027122021E0
2.306104652E1,1.213609695E1,-2.234597206E0,-8.100302696E0
2.307771245E1,1.058046341E1,-8.506484628E-1,-7.899006844E0
2.309437839E1,8.047660828E0,1.382453322E0,-6.514160633E0
2.311104433E1,5.895017624E0,2.652743101E0,-7.769794464E0
2.312771026E1,4.159024715E0,2.809173822E0,-1.155135155E1
2.314437620E1,3.782753468E0,3.416352510E0,-1.008096218E1
2.316104214E1,4.438984871E0,3.804588079E0,-4.556831837E0
2.317770808E1,4.658825874E0,3.573680639E0,-8.763712645E-1
2.319437402E1,5.329713345E0,7.387840152E-1,2.973082066E-1
2.321103995E1,7.170093060E0,-4.967798710E0,-1.734796464E-1
2.322770589E1,9.673882484E0,-1.065224838E1,3.247060299E0
2.324437183E1,1.636092567E1,-1.105424213E1,1.231346512E1
2.326103776E1,2.998476028E1,-1.184207916E1,1.820459557E1
2.327770370E1,4.044558334E1,-1.653410530E1,1.420200062E1
2.329436964E1,3.931228256E1,-1.929871368E1,5.485845089E0
2.331103558E1,3.011427116E1,-2.169931221E1,-6.798607111E-1
2.332770152E1,1.929003906E1,-2.133650017E1,-2.669492722E0
2.334436745E1,1.253121185E1,-1.863739586E1,-2.167598248E0
2.336103339E1,9.090332985E0,-1.605583954E1,3.876372576E-1
2.337769933E1,6.744170666E0,-1.417209053E1,1.302293777E0
2.339436526E1,4.511068821E0,-1.297597790E1,-4.914259613E-1
2.341103120E1,2.352144718E0,-1.163928795E1,-2.801696301E0
2.342769714E1,-1.914258115E-2,-1.047966576E1,-4.885246754E0
2.344436308E1,-2.770290375E0,-9.100203514E0,-6.698108673E0
2.346102902E1,-5.007579803E0,-7.654639721E0,-7.414759159E0
2.347769495E1,-6.266503334E0,-6.506383896E0,-7.220641613E0
2.349436089E1,-6.812664986E0,-5.824728489E0,-6.879664421E0
2.351102683E1,-6.476473808E0,-5.471487999E0,-6.509075642E0
2.352769276E1,-5.865705490E0,-5.002494812E0,-5.211866856E0
2.354435870E1,-5.013561726E0,-5.061418056E0,-3.935595036E0
2.356102464E1,-4.063910007E0,-5.377569675E0,-2.650051117E0
2.357769058E1,-2.562114954E0,-5.974878311E0,-1.151545882E0
2.359435652E1,1.630409479E0,-9.497711182E0,-8.623134494E-1
2.361102245E1,9.035597801E0,-1.603520203E1,-6.427719593E-1
2.362768839E1,1.609442329E1,-1.855783463E1,1.738385677E0
2.364435433E1,2.615893555E1,-1.249831104E1,8.525627136E0
2.366102026E1,4.290002060E1,-8.439785004E0,1.021615601E1
2.367768620E1,5.158776093E1,-8.248059273E0,5.906383514E0
2.369435214E1,3.689373779E1,-6.373881340E0,7.077072144E0
2.371101808E1,1.814417648E1,-5.053043365E0,9.836296082E0
2.372768402E1,8.107182503E0,-1.976471543E0,1.092233849E1
2.374434995E1,5.417051315E0,1.537388563E-1,7.549654484E0
2.376101589E1,5.392225742E0,1.439282775E0,2.303989172E0
2.377768183E1,6.089434624E0,2.268994093E0,-1.722533226E0
2.379434776E1,6.046662807E0,2.737987280E0,-3.710071564E0
2.381101370E1,4.511667252E0,2.841476917E0,-3.270091295E0
2.382767964E1,2.675175667E0,3.033500910E0,-1.704287887E0
2.384434558E1,2.022832394E0,3.489931822E0,2.461616248E-1
2.386101152E1,1.284646630E0,4.545166492E0,2.809472799E0
2.387767745E1,3.756731451E-1,5.691029549E0,5.493322372E0
2.389434339E1,-3.505485058E-1,6.768397808E0,6.409175396E0
2.391100933E1,-4.749752879E-1,6.982256413E0,5.012664318E0
2.392767526E1,-1.032203913E0,7.039085865E0,2.675175667E0
2.394434120E1,-2.350050926E0,6.797410965E0,5.817549825E-1
2.396100714E1,-2.889632463E0,6.147460461E0,-4.968098104E-1
2.397767308E1,-1.462014675E0,4.552045822E0,-8.733802289E-2
2.399433902E1,3.073580742E0,2.392523527E0,2.969193697E0
2.401100495E1,1.417896938E1,-4.432703853E-1,9.286844254E0
2.402767089E1,3.089822006E1,-1.004387259E0,1.522582912E1
2.404433683E1,4.369922256E1,-5.291129351E-1,1.721755600E1
2.406100276E1,4.194289017E1,-1.117448211E0,1.440927887E1
2.407766870E1,3.252593613E1,-6.313761711E0,1.176042461E1
2.409433464E1,2.065095711E1,-8.678169250E0,9.958030701E0
2.411100058E1,1.360469246E1,-8.399405479E0,7.291827679E0
2.412766652E1,1.117537880E1,-8.012665749E0,3.661616802E0
2.414433245E1,9.462716103E0,-7.851150036E0,4.648058116E-1
2.416099839E1,8.297710419E0,-7.465008259E0,-1.833799481E0
2.417766433E1,7.925925732E0,-6.532106876E0,-3.033201694E0
2.419433026E1,6.672086716E0,-5.460421085E0,-3.841377735E0
2.421099620E1,5.184648514E0,-4.229014874E0,-4.468297005E0
2.422766214E1,3.812663794E0,-3.306282759E0,-4.529314041E0
2.424432808E1,2.305484533E0,-2.458625317E0,-4.143471718E0
2.426099402E1,1.429711580E0,-1.788335800E0,-3.757329702E0
2.427765995E1,1.953440547E0,-1.317847013E0,-3.166003466E0
2.429432589E1,1.983949065E0,-4.375874400E-1,-2.169991016E0
2.431099183E1,1.671386600E0,-4.115654826E-1,-1.175474167E0
2.432765776E1,1.861316919E0,-6.789634228E-1,-5.383851007E-3
2.434432370E1,4.061816216E0,-6.843472719E-1,3.455834150E0
2.436098964E1,9.760024071E0,-4.780859470E0,7.503592491E0
2.437765558E1,1.215583801E1,-5.438586712E0,1.243938732E1
2.439432152E1,1.201974678E1,-6.613163352E-1,1.602144241E1
2.441098745E1,1.227577877E1,5.264209956E-2,1.869931030E1
2.442765339E1,1.391486168E1,-1.241874933E0,2.108854485E1
2.444431933E1,1.412991714E1,-2.349751949E0,1.828325844E1
2.446098526E1,1.131147099E1,-1.220040441E0,1.156152058E1
2.447765120E1,9.417850494E0,-1.968096644E-1,6.272784710E0
2.449431714E1,7.184749126E0,-1.313061416E-1,3.931108475E0
2.451098308E1,3.684049606E0,-6.822535396E-1,4.581956387E0
2.452764902E1,2.868396044E-1,-7.911269665E-1,7.916354656E0
2.454431495E1,-9.373882413E-1,-2.093719840E-1,8.268697739E0
2.456098089E1,-4.905286431E-2,1.199701428E0,7.296015263E0
2.457764683E1,1.847857237E0,1.026221752E0,5.583950520E0
2.459431276E1,3.294916868E0,1.298704505E0,5.457130909E0
2.461097870E1,1.200000525E0,4.797609448E-1,6.015556335E0
2.462764464E1,2.997010350E-1,6.278168559E-1,6.044569016E0
2.464431058E1,-7.112665176E-1,9.948160052E-1,6.795915604E0
2.466097652E1,-2.338685036E0,9.361918271E-2,7.678268909E0
2.467764245E1,-1.569990754E0,-1.713859290E-1,7.583154202E0
2.469430839E1,-1.507478207E-1,-3.807578981E-1,6.573382854E0
2.471097433E1,-3.385843933E-1,-7.483552694E-1,5.453242779E0
2.472764026E1,-1.351645708E0,-8.557332158E-1,4.714159489E0
2.474430620E1,-1.574477315E0,1.362413406E0,7.140481949E0
2.476097214E1,6.879365072E-3,2.749054193E0,9.320044518E0
2.477763808E1,2.934198678E-1,1.727617979E0,1.740718651E1
2.479430402E1,-1.369891018E-1,-3.825525343E-1,8.554639816E0
2.481096995E1,1.540080428E0,-1.680957973E-1,1.315065384E1
2.482763589E1,2.793022156E0,2.197209358E0,1.039113140E1
2.484430183E1,2.833700180E0,6.119644046E-1,1.281296730E1
2.486096776E1,2.478964329E0,1.249950767E0,1.540349674E1
2.487763370E1,8.183453679E-1,7.986045480E-1,1.590419483E1
2.489429964E1,-1.743470430E0,1.782652885E-1,1.530389500E1
2.491096558E1,-1.627418518E0,2.742772996E-1,1.494437408E1
2.492763152E1,9.098708034E-1,-4.139583111E-1,1.470210075E1
2.494429745E1,1.703390598E0,-2.751746029E-2,1.227757263E1
2.496096339E1,1.330708504E0,6.625127792E-1,9.938887596E0
2.497762933E1,-2.849253654E0,1.351944804E0,8.604888916E0
2.499429526E1,-5.218447208E0,1.105484009E0,8.239385605E0
2.501096120E1,-3.579961777E0,7.298108935E-1,9.793225288E0
2.502762714E1,-1.280758262E0,1.184746265E0,9.985548019E0
2.504429308E1,-1.704287887E0,1.313061476E0,8.952147484E0
2.506095902E1,-2.090130568E0,8.862416744E-1,6.776772976E0
2.507762495E1,-2.955435038E0,1.060319543E0,4.722534657E0
2.509429089E1,-2.927319288E0,1.201496124E0,4.135694981E0
2.511095683E1,-2.277069807E0,1.689033628E0,5.177170753E0
2.512762276E1,-2.226521492E0,2.445763826E0,8.108079910E0
2.514428870E1,-2.430509567E0,2.377269268E0,9.984351158E0
2.516095464E1,-2.037189484E0,2.171486616E0,9.493225098E0
2.517762058E1,-1.823629975E0,1.388435364E0,8.453244209E0
2.519428652E1,-2.715554714E0,2.019841433E0,8.996713638E0
2.521095245E1,-2.089831591E0,2.392822742E0,1.184836006E1
2.522761839E1,-2.461018085E0,2.737688303E0,1.337946796E1
2.524428433E1,-3.850649834E0,2.717648268E0,1.090588760E1
2.526095026E1,-4.321437836E0,2.659024239E0,7.086045265E0
2.527761620E1,-2.803191662E0,2.821436882E0,1.069113159E1
2.529428214E1,-2.471486807E0,2.868994236E0,1.076411247E1
2.531094808E1,-3.697509289E0,2.498705149E0,9.874281883E0
