"Time (s)","Linear Acceleration x (m/s^2)","Linear Acceleration y (m/s^2)","Linear Acceleration z (m/s^2)"
3.983151500E-2,0.000000000E0,0.000000000E0,0.000000000E0
5.649745200E-2,-3.330206871E-2,3.639626503E-2,1.086453915E0
7.316339000E-2,-6.600570679E-2,2.995572090E-1,9.092979431E-1
8.982932700E-2,5.669558048E-1,3.208336830E-1,2.831406593E-1
1.064952650E-1,1.313936949E0,2.409663200E-1,-3.105764389E-1
1.231612020E-1,1.363500357E0,7.830810547E-2,3.397998810E-1
1.398271400E-1,4.223127365E-1,1.731014252E-2,1.490974426E0
1.564930770E-1,-2.175476551E-1,-1.473469734E-1,2.165286064E0
1.731590150E-1,-3.408910036E-1,-3.400423527E-1,1.970455170E0
1.898249520E-1,-6.805443764E-2,-4.663621187E-1,1.050556183E0
2.064908900E-1,3.517622948E-1,-2.538766861E-1,-1.611347198E-1
2.231568270E-1,7.310028076E-1,1.919312477E-1,-1.261949062E0
2.398227650E-1,-1.103594303E-1,5.915803909E-1,-2.646193981E0
2.564887020E-1,3.870506287E-1,-8.687462807E-1,-2.238208771E0
2.731546400E-1,2.500452995E-1,-8.854016662E-1,-1.150446892E0
2.898205770E-1,1.235662222E0,-2.284724712E-1,2.913494110E-1
3.064865150E-1,3.831350327E0,-2.226099491E0,-5.895733833E-1
3.231524520E-1,2.907168388E0,5.430090427E-2,-6.433391571E-1
3.398183900E-1,5.773637295E-1,1.960522175E0,5.052967072E-1
3.564843270E-1,1.184095383E0,-5.820977092E-1,3.831243515E-1
3.731502650E-1,4.203863144E-1,-5.376970172E-1,5.667309761E-1
3.898162020E-1,-1.687386751E0,2.152623177E0,-3.302718639E0
4.064821400E-1,-2.793880939E0,5.601515293E0,-3.357158899E0
4.231480770E-1,-4.934430122E-1,4.439143658E0,2.161471844E0
4.398140150E-1,-2.146559715E0,6.082793236E0,1.279230118E1
4.564799520E-1,-3.228579521E0,7.697645187E0,2.005255890E1
4.731458900E-1,-4.493778706E0,8.834052086E0,1.593518639E1
4.898118270E-1,-3.382881165E0,8.681808472E0,5.290745735E0
5.064777650E-1,-5.872535706E-1,8.164636612E0,2.411693573E0
5.231437020E-1,1.543202400E0,4.718040943E0,1.011938286E1
5.398096400E-1,3.646073341E-1,5.319476128E-1,1.860745239E1
5.564755770E-1,2.959842682E-1,-2.731417894E0,1.720210457E1
5.731415150E-1,1.082016468E0,-4.392667770E0,6.972844124E0
5.898074520E-1,1.109592915E0,-4.999488354E0,-9.742226601E-1
6.064733900E-1,-8.133506775E-2,-6.245457172E0,-2.791912079E0
6.231393270E-1,-2.469224691E0,-7.086764336E0,-1.148235321E0
6.398052650E-1,-4.660765648E0,-6.879582405E0,-2.355356216E-1
6.564712020E-1,-6.340672970E0,-6.471376896E0,-2.440657616E-1
6.731371400E-1,-6.831852913E0,-7.169424057E0,-1.867037773E0
6.898030770E-1,-4.672224045E0,-8.355539322E0,-6.211909294E0
7.064690150E-1,-2.077503204E0,-8.997011185E0,-1.052895546E1
7.231349520E-1,3.248882294E-1,-8.353671074E0,-1.234780693E1
7.398008900E-1,5.810985565E-1,-8.165144920E0,-1.072616768E1
7.564668270E-1,-3.464889526E-2,-7.969021320E0,-5.774242401E0
7.731327650E-1,7.787866592E-1,-7.111378670E0,-1.251903772E0
7.897987020E-1,3.356705189E0,-7.248553276E0,-3.119168282E-1
8.064646400E-1,5.952910900E0,-8.322060585E0,-8.570563793E-1
8.231305770E-1,6.081243515E0,-8.037650108E0,-5.456037521E-1
8.397965150E-1,7.379483223E0,-6.553606987E0,2.309548378E0
8.564624520E-1,1.051090813E1,-5.384307384E0,5.987527847E0
8.731283900E-1,1.321630955E1,-2.971513748E0,9.433860779E0
8.897943270E-1,1.576784229E1,-4.261083603E-1,1.009720802E1
9.064602650E-1,1.649877548E1,1.662540436E-1,8.578172684E0
9.231262020E-1,1.349380398E1,-6.421647072E-1,7.443544865E0
9.397921400E-1,6.855900764E0,-1.688951731E0,8.189074516E0
9.564580770E-1,1.415131569E0,-1.908714056E0,9.573104858E0
9.731240150E-1,-4.093432426E-1,-1.906481743E0,9.201387405E0
9.897899520E-1,-1.127459049E0,-1.300632954E0,6.095462322E0
1.006455890E0,-2.139480114E0,-1.466650963E-1,2.462882042E0
1.023121827E0,-1.206052303E0,1.221326828E0,-5.837991238E-1
1.039787765E0,9.838933945E-1,2.956722736E0,-1.682493091E0
1.056453702E0,1.435630798E0,4.880613327E0,-4.755558968E-1
1.073119640E0,2.117396355E0,6.331638813E0,2.437500477E0
1.089785577E0,2.188829422E0,6.880307674E0,4.627524376E0
1.106451515E0,3.155231476E-1,5.597043991E0,3.280072451E0
1.123117452E0,-1.577961922E0,2.924965858E0,9.143275023E-1
1.139783390E0,-3.120743275E0,-2.131938934E-2,5.425274968E-1
1.156449327E0,-3.864136219E0,-2.704337597E0,1.185820818E0
1.173115265E0,-3.364135265E0,-4.341681957E0,3.182489395E0
1.189781202E0,-2.280140400E0,-5.643288612E0,5.446123123E0
1.206447140E0,-3.033043146E-1,-7.039066315E0,7.992246628E0
1.223113077E0,1.081254601E0,-8.476839066E0,9.934488297E0
1.239779015E0,2.268740416E0,-9.463488579E0,9.203012466E0
1.256444952E0,2.802601814E0,-8.090945244E0,7.893756866E0
1.273110890E0,3.508799314E0,-4.081289291E0,6.601920128E0
1.289776827E0,8.553975105E0,-9.586658478E-1,6.545329094E0
1.306442765E0,1.599086857E1,1.415447235E0,9.299343109E0
1.323108702E0,2.218207169E1,4.863865852E0,1.227593994E1
1.339774640E0,2.275211525E1,5.024818420E0,1.247450733E1
1.356440577E0,1.873997688E1,4.325613022E0,1.125181389E1
1.373106515E0,1.227989388E1,2.152533531E0,6.814797401E0
1.389772452E0,6.185037136E0,5.487756729E-1,2.427414894E0
1.406438390E0,1.278235793E0,-3.260202408E-1,-1.726254225E0
1.423104327E0,-1.606386542E0,-4.142618179E-1,-4.540714741E0
1.439770265E0,-3.060502529E0,-7.778005600E-1,-5.186334610E0
1.456436202E0,-3.348495722E0,-1.684546471E0,-3.922810555E0
1.473102140E0,-3.201932430E0,-2.455995560E0,-1.173786640E0
1.489768077E0,-2.045388699E0,-2.970311642E0,2.421657562E0
1.506434015E0,-3.499199748E-1,-2.791582584E0,5.860523224E0
1.523099952E0,1.798944473E0,-3.145641804E0,6.905028343E0
1.539765890E0,4.713967800E0,-3.535363674E0,5.545710564E0
1.556431827E0,7.183299541E0,-3.797364712E0,4.144268513E0
1.573097765E0,9.295163155E0,-3.752809048E0,4.658335209E0
1.589763702E0,1.031571674E1,-3.472780704E0,5.586276531E0
1.606429640E0,1.078127098E1,-3.184636593E0,5.443244934E0
1.623095577E0,1.065037632E1,-3.188608646E0,4.667292118E0
1.639761515E0,1.022557640E1,-3.463529587E0,4.722314835E0
1.656427452E0,9.292713165E0,-4.200444221E0,5.352839947E0
1.673093390E0,7.856278896E0,-4.742147923E0,5.946388245E0
1.689759327E0,6.422265053E0,-4.666781425E0,5.772212505E0
1.706425265E0,5.095312119E0,-4.257813931E0,4.722243309E0
1.723091202E0,4.526844025E0,-4.091684818E0,3.052663326E0
1.739757140E0,4.198704243E0,-4.165138721E0,1.139631271E0
1.756423077E0,3.617300034E0,-4.028768539E0,1.421809196E-3
1.773089015E0,2.841827393E0,-3.467403412E0,-2.641038895E-1
1.789754952E0,2.323050261E0,-2.148044109E0,6.199547052E-1
1.806420890E0,3.331854582E0,-1.262620449E0,3.393760622E-1
1.823086827E0,4.413437843E0,-1.046876431E0,-2.260076284E0
1.839752765E0,5.386980534E0,-8.212409019E-1,-3.261335611E0
1.856418702E0,7.604740620E0,6.024198532E-1,-2.754006386E0
1.873084640E0,9.800756454E0,1.967603683E0,-2.796852350E0
1.889750577E0,8.105594635E0,2.326396465E0,-1.607386470E0
1.906416515E0,4.692324162E0,2.449041367E0,1.700425148E-2
1.923082452E0,3.112082005E0,1.807036877E0,1.069782734E0
1.939748390E0,7.014682293E0,1.072935104E0,1.472854137E0
1.956414327E0,1.097960472E1,1.797641277E0,1.507569313E0
1.973080265E0,9.293563843E0,2.135192394E0,6.980066299E-1
1.989746202E0,4.629684925E0,1.851851463E0,-1.269873619E0
2.006412140E0,1.607549191E0,1.186726093E0,-1.907156944E0
2.023078077E0,7.730684280E-1,6.045470238E-1,-1.022740841E0
2.039744015E0,4.386329651E-2,5.728244781E-2,-1.007390022E-1
2.056409952E0,4.107656479E-1,-4.138360023E-1,4.860925674E-1
2.073075890E0,2.604282379E0,-2.289309502E-1,1.184311390E0
2.089741827E0,2.476565838E0,-9.733057022E-2,2.877230644E-1
2.106407765E0,5.108957291E-1,-6.884570122E-1,-1.640575409E0
2.123073702E0,-5.813999176E-1,-1.203512192E0,-3.288966417E0
2.139739640E0,-9.293539524E-1,-1.346010208E0,-3.854248524E0
2.156405577E0,-8.926997185E-1,-1.090923786E0,-2.534569025E0
2.173071515E0,-2.884349823E-1,-9.519443512E-1,-1.160418034E0
2.189737452E0,3.329315186E-1,-6.224622726E-1,1.501255035E-1
2.206403390E0,4.776592255E-1,-3.451123238E-1,1.351438046E0
2.223069327E0,6.425313950E-1,-2.824892998E-1,2.420060635E0
2.239735265E0,7.071676254E-1,-6.473436356E-1,2.859478951E0
2.256401202E0,4.187641144E-1,-1.210584164E0,2.969033241E0
2.273067140E0,-3.063583374E-2,-1.917116165E0,2.407811642E0
2.289733077E0,-7.660503387E-1,-2.607473135E0,1.390627861E0
2.306399015E0,-1.661904097E0,-3.300873518E0,6.500897408E-1
2.323064952E0,-2.172260284E0,-3.751010656E0,3.467469215E-1
2.339730890E0,-2.263756990E0,-3.817005396E0,5.530180931E-1
2.356396827E0,-2.348582745E0,-3.318906307E0,1.137638092E0
2.373062765E0,-1.918975353E0,-2.636967182E0,1.383298874E0
2.389728702E0,7.571125031E-2,-1.397879601E0,2.415606022E0
2.406394640E0,2.063999176E0,-3.697423935E-1,5.109412670E0
2.423060577E0,3.210758209E0,2.066473961E-1,8.201663017E0
2.439726515E0,3.997997284E0,7.558012009E-2,9.180732727E0
2.456392452E0,4.052470684E0,4.899311066E-2,8.138258934E0
2.473058390E0,3.374804974E0,1.037006378E-1,5.542618752E0
2.489724327E0,2.671237946E0,-3.554224968E-1,2.587728024E0
2.506390265E0,1.594113350E0,-8.016562462E-1,1.035828590E-1
2.523056202E0,1.229591370E-1,-1.354288340E0,-1.526127338E0
2.539722140E0,-1.249421120E0,-1.663148165E0,-2.127981186E0
2.556388077E0,-1.879647970E0,-1.796219826E0,-2.024725437E0
2.573054015E0,-1.630309105E0,-1.807848930E0,-1.442114353E0
2.589719952E0,-1.159474373E0,-1.546797514E0,-7.324395180E-1
2.606385890E0,-7.740373611E-1,-1.789592028E0,-8.730096817E-1
2.623051827E0,-4.815449715E-1,-1.657942057E0,-1.496560574E0
2.639717765E0,-2.834615707E-1,-1.475137472E0,-2.167882442E0
2.656383702E0,-8.170890808E-2,-1.182216883E0,-2.322319508E0
2.673049640E0,2.667551041E-1,-9.887676239E-1,-1.537946701E0
2.689715577E0,8.842844963E-1,-7.139439583E-1,-2.047348022E-2
2.706381515E0,1.471733570E0,-5.752465725E-1,1.342302799E0
2.723047452E0,1.453123569E0,-7.294459343E-1,1.636722088E0
2.739713390E0,9.647669792E-1,-8.093116283E-1,1.104811192E0
2.756379327E0,5.731463432E-1,-8.973429203E-1,3.325519562E-1
2.773045265E0,5.919232368E-1,-9.624788761E-1,-1.199970245E-1
2.789711202E0,9.015908241E-1,-1.002365351E0,-2.118058205E-1
2.806377140E0,1.387119770E0,-1.089317799E0,1.687927246E-1
2.823043077E0,1.890046597E0,-9.778959751E-1,6.341500282E-1
2.839709015E0,2.105317593E0,-9.307496548E-1,6.567697525E-1
2.856374952E0,2.250967503E0,-1.189080954E0,1.691474915E-1
2.873040890E0,2.321948528E0,-1.358547211E0,-4.823832512E-1
2.889706827E0,2.619210720E0,-1.402551651E0,-5.081973076E-1
2.906372765E0,3.025050163E0,-1.071203470E0,7.898755074E-1
2.923038702E0,3.182270527E0,-8.280653954E-1,2.639774799E0
2.939704640E0,3.017918110E0,-6.703965664E-1,3.738406181E0
2.956370577E0,2.785601616E0,-8.952910900E-1,3.227347851E0
2.973036515E0,2.135854244E0,-1.161312819E0,1.658869743E0
2.989702452E0,1.216079235E0,-1.342499018E0,-4.523072243E-1
3.006368390E0,8.725352287E-1,-1.493998766E0,-2.428439617E0
3.023034327E0,1.219889641E0,-1.455952168E0,-3.901165247E0
3.039700265E0,1.753339767E0,-1.372457981E0,-4.660366058E0
3.056366202E0,1.881987095E0,-1.305847645E0,-4.614210129E0
3.073032140E0,1.364958763E0,-1.208170652E0,-3.667077541E0
3.089698077E0,8.465151787E-1,-9.830815792E-1,-2.096694946E0
3.106364015E0,6.154832840E-1,-7.979962826E-1,-6.690468788E-1
3.123029952E0,8.806085587E-1,-7.072999477E-1,3.415679932E-2
3.139695890E0,8.101520538E-1,-7.691915035E-1,5.961327553E-1
3.156361827E0,5.522069931E-1,-6.966326237E-1,4.010848999E-1
3.173027765E0,8.537664413E-1,-5.467841625E-1,-1.939139366E-1
3.189693702E0,1.246076107E0,-6.390092373E-1,-8.058242798E-1
3.206359640E0,1.208444118E0,-6.144449711E-1,-9.730176926E-1
3.223025577E0,1.240140438E0,-8.093404770E-1,-9.085388184E-1
3.239691515E0,7.952122688E-1,-1.120207548E0,-8.934102058E-1
3.256357452E0,8.125543594E-1,-1.110801220E0,-1.065546036E0
3.273023390E0,7.131466866E-1,-1.193718195E0,-1.748151302E0
3.289689327E0,5.997695923E-1,-1.427503347E0,-2.476608276E0
3.306355265E0,4.065489769E-1,-1.233382225E0,-1.263669014E0
3.323021202E0,6.217908859E-1,-1.442255020E0,-1.801400185E-1
3.339687140E0,3.327121735E-1,-1.487518549E0,8.013401031E-1
3.356353077E0,-7.111835480E-2,-1.005166292E0,1.692447662E-1
3.373019015E0,7.891702652E-2,-1.422564983E0,-7.143526077E-1
3.389684952E0,4.022121429E-3,-1.570644140E0,-2.544929981E0
3.406350890E0,-4.123299122E-1,-3.364586830E-1,-1.785969734E0
3.423016827E0,5.460641384E-1,-7.507965565E-1,-5.658316612E-1
3.439682765E0,9.559762478E-1,-1.020615339E0,-7.989215851E-2
3.456348702E0,1.180215836E0,-8.443968296E-1,6.347742081E-1
3.473014640E0,1.347647667E0,-9.892261028E-1,5.397710800E-1
3.489680577E0,1.078817368E0,-9.132173061E-1,6.495056152E-1
3.506346515E0,9.412264824E-1,-8.143615723E-1,1.786304474E0
3.523012452E0,2.019160271E0,-4.093079567E-1,3.254818916E0
3.539678390E0,3.097413301E0,-5.349776745E-1,3.341404915E0
3.556344327E0,3.022401094E0,-9.348967075E-1,2.634507179E0
3.573010265E0,2.482391119E0,-1.539373875E0,2.017410278E0
3.589676202E0,2.212305307E0,-1.892823935E0,1.730782509E0
3.606342140E0,2.057593107E0,-2.092233658E0,1.376907349E0
3.623008077E0,1.961078167E0,-2.141277552E0,6.667404175E-1
3.639674015E0,1.758950472E0,-2.254832506E0,1.191282272E-1
3.656339952E0,1.483004570E0,-2.525055408E0,2.992105484E-1
3.673005890E0,9.285931587E-1,-2.775699139E0,8.372545242E-1
3.689671827E0,8.136572838E-1,-3.008240700E0,8.040637970E-1
3.706337765E0,4.365882874E-1,-2.435235023E0,1.513004303E-2
3.723003702E0,7.107005119E-1,-2.413339138E0,-5.628199577E-1
3.739669640E0,9.589662552E-1,-2.465536356E0,-7.560272217E-1
3.756335577E0,1.582766533E0,-2.359184504E0,-6.170010567E-1
3.773001515E0,2.287365913E0,-2.093326330E0,-5.896835327E-1
3.789667452E0,2.350199223E0,-2.142500639E0,8.900022507E-2
3.806333390E0,1.871435642E0,-2.217910528E0,5.885486603E-1
3.822999327E0,1.311140060E0,-2.364693880E0,9.902310371E-1
3.839665265E0,7.296342850E-1,-2.279734373E0,1.417639732E0
3.856331202E0,4.339084625E-1,-2.491678715E0,1.063749790E0
3.872997140E0,4.481644630E-1,-2.138637304E0,1.753405571E0
3.889663077E0,3.688726425E-1,-1.967034101E0,1.573926449E0
3.906329015E0,1.064286232E-1,-1.967665434E0,7.613334656E-1
3.922994952E0,-1.078367233E-1,-1.801094055E0,3.687152863E-1
3.939660890E0,3.055334091E-2,-1.616738319E0,4.274883270E-1
3.956326827E0,-1.368322372E-1,-1.619827032E0,9.809956551E-1
3.972992765E0,-4.111757278E-1,-1.462131262E0,1.586015224E0
3.989658702E0,-4.855866432E-1,-1.120733500E0,2.391618252E0
4.006324640E0,-2.456083298E-1,-7.967391014E-1,2.878391266E0
4.022990577E0,1.060209274E-1,-4.399843216E-1,2.217182159E0
4.039656515E0,8.092975616E-2,-2.741193771E-2,1.194509029E0
4.056322452E0,-3.928709030E-1,-4.500627518E-2,2.913684845E-1
4.072988390E0,-1.150229454E0,-1.758031845E-1,-1.753320694E-1
4.089654327E0,-2.114858389E0,-3.201951981E-1,-8.199315071E-1
4.106320265E0,-2.802899599E0,-1.608290672E-1,-1.256301880E0
4.122986202E0,-2.317581892E0,2.038321495E-1,-1.792263985E0
4.139652140E0,-1.954209328E0,2.897620201E-1,-2.455679655E0
4.156318077E0,-2.327803850E0,2.242360115E-1,-1.720433712E0
4.172984015E0,-3.898285151E0,1.802253246E0,2.730803490E-1
4.189649952E0,-4.555296421E0,2.340307713E0,1.312546253E0
4.206315890E0,-3.111125231E0,1.649598122E0,1.065988541E0
4.222981827E0,-1.627670288E0,2.092173576E0,6.212725639E-1
4.239647765E0,-1.038236618E-1,2.287514687E0,2.491655350E-1
4.256313702E0,-1.668846607E0,3.253335953E0,-9.253687859E-1
4.272979640E0,-2.618571281E0,2.848693848E0,5.510048866E-1
4.289645577E0,-1.379819870E0,1.422206879E0,1.581323147E0
4.306311515E0,-1.632873058E0,1.199522972E0,1.450014114E0
4.322977452E0,-1.909829617E0,1.196152210E0,1.017854214E0
4.339643390E0,-1.658547878E0,1.094618797E0,1.254672050E0
4.356309327E0,-8.914413452E-1,1.277611732E0,2.466751575E0
4.372975265E0,-3.695912361E-1,1.556993008E0,1.961270809E0
4.389641202E0,-2.478957176E-1,1.565356731E0,8.861413002E-1
4.406307140E0,-9.314346313E-2,1.544437885E0,6.017637253E-2
4.422973077E0,-1.694812775E-1,1.269834518E0,-2.584505081E-1
4.439639015E0,-5.560317039E-1,8.757820129E-1,2.284512520E-1
4.456304952E0,-1.003468513E0,6.020493507E-1,7.611951828E-1
4.472970890E0,-1.251510143E0,2.804684639E-1,8.662858009E-1
4.489636827E0,-1.769311428E0,-8.256435394E-3,3.872990608E-1
4.506302765E0,-1.956704855E0,8.910417557E-2,-3.627619743E-1
4.522968702E0,-1.633137226E0,-7.351589203E-2,-1.376195431E0
4.539634640E0,-1.514120579E0,-1.748342514E-1,-1.340444565E0
4.556300577E0,-1.580168724E0,-1.892786026E-1,-3.584394455E-1
4.572966515E0,-1.753245831E0,-4.032096863E-1,7.312626839E-1
4.589632452E0,-9.135174751E-1,-4.896674156E-1,1.532588959E0
4.606298390E0,-6.422448158E-1,-1.009946346E0,1.191562653E0
4.622964327E0,-1.480977058E0,-1.820180893E0,1.999030113E-1
4.639630265E0,-1.756195545E0,-2.809972048E0,-5.415830612E-1
4.656296202E0,-1.722097397E0,-3.740081787E0,-8.741521835E-1
4.672962140E0,-1.817483425E0,-4.720711231E0,-8.709015846E-1
4.689628077E0,-2.336739063E0,-5.804521561E0,-1.376319170E0
4.706294015E0,-2.881134510E0,-7.331437588E0,-2.727730274E0
4.722959952E0,-2.773268700E0,-8.974436760E0,-3.324499130E0
4.739625890E0,-2.695550919E0,-1.065333843E1,-3.560968637E0
4.756291827E0,-3.338986874E0,-1.155005264E1,-2.633091450E0
4.772957765E0,-2.414026737E0,-1.273792458E1,-3.791124344E0
4.789623702E0,-1.962019444E0,-1.348996925E1,-6.023455620E0
4.806289640E0,-9.231138229E-1,-1.381068802E1,-5.864304066E0
4.822955577E0,1.107150078E0,-1.309244728E1,-3.644885540E0
4.839621515E0,3.745253563E0,-1.212491322E1,-1.535127997E0
4.856287452E0,3.222783089E0,-1.071717739E1,2.243256569E-1
4.872953390E0,1.748049736E0,-1.020999050E1,-8.592679501E-1
4.889619327E0,2.731756210E0,-9.435468674E0,-6.922535896E-1
4.906285265E0,4.290252686E0,-8.412773132E0,8.483135700E-1
4.922951202E0,7.725137711E0,-6.726289272E0,2.174588442E0
4.939617140E0,1.375424957E1,-2.509913921E0,2.774638653E0
4.956283077E0,1.881608582E1,3.449248314E0,2.949810743E0
4.972949015E0,2.303379631E1,1.130111504E1,6.543005943E0
4.989614952E0,2.949434662E1,2.009091568E1,1.226809692E1
5.006280890E0,3.573522186E1,3.062744331E1,1.744676971E1
5.022946827E0,3.477763748E1,4.071098709E1,1.662791443E1
5.039612765E0,2.558911514E1,4.767309952E1,1.273792934E1
5.056278702E0,1.868938065E1,5.001390839E1,7.221589565E0
5.072944640E0,1.559143257E1,4.817461014E1,2.173073053E0
5.089610577E0,1.351630974E1,4.407806396E1,2.420957804E0
5.106276515E0,1.365995598E1,3.878794098E1,7.752584934E0
5.122942452E0,1.409143639E1,3.415352631E1,1.091176319E1
5.139608390E0,1.859261322E1,2.921983528E1,1.090684032E1
5.156274327E0,2.726304054E1,2.306160545E1,1.104292488E1
5.172940265E0,3.464741516E1,1.649756622E1,1.085449600E1
5.189606202E0,3.950679016E1,1.329939651E1,7.650990486E0
5.206272140E0,4.413134003E1,1.225069618E1,3.661539793E0
5.222938077E0,4.633482361E1,8.720998764E0,6.279528618E0
5.239604015E0,4.180155182E1,-1.623908520E0,1.640777969E1
5.256269952E0,3.156695175E1,-1.302930927E1,2.615048599E1
5.272935890E0,2.458165359E1,-2.428098297E1,2.415979385E1
5.289601827E0,1.826200104E1,-3.392303467E1,1.042063522E1
5.306267765E0,1.165566730E1,-3.931304932E1,4.284938574E-1
5.322933702E0,1.084299660E1,-4.791742706E1,9.056797028E0
5.339599640E0,8.951209068E0,-5.688460541E1,2.084483528E1
5.356265577E0,3.311738968E0,-5.971332169E1,2.125879478E1
5.372931515E0,-1.707809687E0,-6.058494568E1,1.171411324E1
5.389597452E0,-7.124094009E0,-5.711571121E1,2.915684462E0
5.406263390E0,-1.200986385E0,-5.245386124E1,1.507333755E0
5.422929327E0,1.912777519E1,-4.670825958E1,5.247354031E0
5.439595265E0,3.540095520E1,-3.684347916E1,5.019571304E0
5.456261202E0,3.925256729E1,-2.812706375E1,4.050138474E0
5.472927140E0,3.706677246E1,-2.164635277E1,4.034744263E0
5.489593077E0,4.021361542E1,-1.632167244E1,4.812526703E-2
5.506259015E0,6.156162262E1,-1.193098640E1,3.591174126E0
5.522924952E0,6.953760529E1,5.411460876E0,2.450101089E1
5.539590890E0,6.462539673E1,2.302748108E1,2.757371140E1
5.556256827E0,4.997887039E1,3.234967422E1,1.805878830E1
5.572922765E0,3.565793610E1,3.944366455E1,1.114353943E1
5.589588702E0,2.104063225E1,4.790597534E1,9.469080925E0
5.606254640E0,9.790804863E0,6.086034775E1,2.197519493E1
5.622920577E0,2.875766277E0,6.597871399E1,3.876647949E1
5.639586515E0,-5.250356674E0,6.001392746E1,3.956073761E1
5.656252452E0,-1.043898964E1,5.000771713E1,2.874556160E1
5.672918390E0,-6.269046783E0,4.147656250E1,2.200284004E1
5.689584327E0,2.313603401E0,3.384058762E1,2.195410347E1
5.706250265E0,1.087145996E1,2.699660873E1,2.024038887E1
5.722916202E0,1.881127930E1,2.079517174E1,1.848294258E1
5.739582140E0,2.806039429E1,1.650324249E1,1.545028019E1
5.756248077E0,3.802100372E1,1.561016273E1,1.070035744E1
5.772914015E0,4.862419510E1,1.439476967E1,1.432815170E1
5.789579952E0,5.725631714E1,6.734041214E0,1.740335846E1
5.806245890E0,6.198447037E1,-6.896883488E0,1.628644562E1
5.822911827E0,5.979463577E1,-2.221884918E1,1.437146378E1
5.839577765E0,4.993687057E1,-4.020950317E1,1.341810322E1
5.856243702E0,3.290956116E1,-5.809973907E1,9.345136642E0
5.872909640E0,3.461606503E0,-6.220896530E1,5.189061165E-2
5.889575577E0,-1.334413528E1,-5.946915817E1,-8.933680534E0
5.906241515E0,-1.657281876E1,-5.599977112E1,-1.230446815E1
5.922907452E0,-1.297623920E1,-5.278049088E1,-1.028752995E1
5.939573390E0,-2.520388842E0,-4.887938309E1,-1.293091011E1
5.956239327E0,4.134163857E-1,-4.190967941E1,-1.489125729E1
5.972905265E0,-1.055655479E0,-3.530627823E1,-7.469644070E0
5.989571202E0,3.895077705E0,-2.933015060E1,2.677603364E-1
6.006237140E0,1.585562706E1,-2.389192581E1,3.496789455E0
6.022903077E0,3.043069077E1,-1.923289871E1,1.641460538E0
6.039569015E0,3.725967026E1,-9.718949318E0,1.108736515E0
6.056234952E0,3.771164703E1,-2.167267323E0,4.912499428E0
6.072900890E0,3.741630554E1,3.935047150E0,9.675280571E0
6.089566827E0,3.452136993E1,9.290279388E0,1.648258209E1
6.106232765E0,2.915021706E1,1.610163116E1,2.227909470E1
6.122898702E0,3.382198715E1,2.331744194E1,1.851715469E1
6.139564640E0,3.085890388E1,3.228393555E1,1.059287167E1
6.156230577E0,1.918131256E1,3.565423965E1,6.223969460E0
6.172896515E0,8.849176407E0,3.462278748E1,8.777948380E0
6.189562452E0,-8.436918259E-1,3.195710945E1,1.148661804E1
6.206228390E0,-1.145270061E1,3.083273888E1,1.344680119E1
6.222894327E0,-1.871418381E1,3.169174194E1,1.786567497E1
6.239560265E0,-1.912287903E1,3.142806625E1,2.143351936E1
6.256226202E0,-1.442728424E1,2.913042831E1,2.041235352E1
6.272892140E0,-8.231838226E0,2.646162987E1,1.597108841E1
6.289558077E0,-5.956859589E-1,2.237755013E1,1.068209267E1
6.306224015E0,6.137421608E0,1.919256783E1,8.266222000E0
6.322889952E0,1.452277088E1,1.820622063E1,1.203205776E1
6.339555890E0,2.600685120E1,1.524593544E1,1.802092552E1
6.356221827E0,3.552854919E1,7.617451191E0,2.009173965E1
6.372887765E0,3.635038757E1,-3.033300638E0,1.663195229E1
6.389553702E0,3.638850784E1,-1.119412613E1,1.058909512E1
6.406219640E0,3.947560120E1,-1.532919025E1,3.984493256E0
6.422885577E0,3.693810654E1,-2.149456215E1,-8.588755131E-2
6.439551515E0,2.735626984E1,-3.019491959E1,4.745931149E0
6.456217452E0,8.132429123E0,-3.555002594E1,1.229245758E1
6.472883390E0,-5.601941109E0,-3.856516266E1,1.158312511E1
6.489549327E0,-8.826978683E0,-4.256890869E1,1.052585840E0
6.506215265E0,-1.209243584E1,-4.373459625E1,-1.133163166E1
6.522881202E0,-1.458578491E1,-4.114680481E1,-1.822525597E1
6.539547140E0,-1.206723785E1,-3.705782700E1,-1.522790337E1
6.556213077E0,-5.879071712E0,-3.382789612E1,-7.287364960E0
6.572879015E0,-1.400578976E0,-2.905685997E1,2.891836166E-1
6.589544952E0,1.034379959E0,-2.235411644E1,5.405168533E0
6.606210890E0,4.291573524E0,-1.740812302E1,4.623656750E0
6.622876827E0,7.005998611E0,-1.614275742E1,1.613182783E0
6.639542765E0,1.121369076E1,-1.425618362E1,1.927006006E0
6.656208702E0,2.459924698E1,-1.167862892E1,5.457973003E0
6.672874640E0,4.030089569E1,-3.236979723E0,1.110385227E1
6.689540577E0,4.713743591E1,7.068943501E0,2.211480331E1
6.706206515E0,3.632340240E1,1.411291790E1,2.843627357E1
6.722872452E0,2.489655876E1,1.855817032E1,1.821502686E1
6.739538390E0,2.005569077E1,2.106192589E1,4.593961716E0
6.756204327E0,1.510980511E1,2.028242493E1,-2.331666946E0
6.772870265E0,4.335309029E0,1.925651169E1,-1.049866319E0
6.789536202E0,-7.485515594E0,1.906307411E1,3.243428230E0
6.806202140E0,-1.650613403E1,2.140958977E1,7.638724327E0
6.822868077E0,-1.960580063E1,2.610546112E1,1.445026302E1
6.839534015E0,-1.805608749E1,3.122391319E1,2.032066154E1
6.856199952E0,-1.253789425E1,3.414302444E1,2.163886833E1
6.872865890E0,-5.086615562E0,3.280821609E1,1.682332611E1
6.889531827E0,-1.790388584E0,2.811735535E1,8.804718971E0
6.906197765E0,-2.378451347E0,2.255593872E1,3.931854248E0
6.922863702E0,3.514776230E-1,1.889721870E1,8.323220253E0
6.939529640E0,9.137546539E0,1.530581665E1,2.101437187E1
6.956195577E0,2.351237106E1,1.044603348E1,3.199517632E1
6.972861515E0,3.905005264E1,3.506341457E0,3.381088257E1
6.989527452E0,4.834737778E1,-2.730505466E0,2.523398590E1
7.006193390E0,5.013117981E1,-9.435414314E0,1.186147118E1
7.022859327E0,4.236191177E1,-1.957599640E1,3.841637611E0
7.039525265E0,2.503547668E1,-2.913135338E1,8.183118820E0
7.056191202E0,6.465179443E0,-3.251487732E1,1.742803764E1
7.072857140E0,2.044308662E0,-3.921342850E1,1.558235359E1
7.089523077E0,-1.857388258E0,-4.518527222E1,1.135758400E0
7.106189015E0,-6.082842827E0,-4.595555496E1,-1.031545925E1
7.122854952E0,-5.923570156E0,-4.426167297E1,-1.175218010E1
7.139520890E0,-6.125030041E0,-4.195894623E1,-6.182126522E0
7.156186827E0,-7.650103569E0,-3.871259689E1,1.867261767E0
7.172852765E0,-7.477900982E0,-3.351070023E1,8.598918915E0
7.189518702E0,-6.508112431E0,-2.889780426E1,7.180833817E0
7.206184640E0,-4.412318230E0,-2.711598587E1,-1.264919758E0
7.222850577E0,2.177688599E0,-2.529776001E1,-8.545478821E0
7.239516515E0,1.545830441E1,-2.279521561E1,-1.078138828E1
7.256182452E0,2.738143921E1,-1.924081421E1,-4.039112091E0
7.272848390E0,3.376522446E1,-1.121302223E1,9.846852303E0
7.289514327E0,4.533040619E1,2.978711724E-1,2.930288887E1
7.306180265E0,5.022153473E1,1.087727833E1,3.447801590E1
7.322846202E0,4.121890259E1,1.832238579E1,2.396119308E1
7.339512140E0,3.151906204E1,2.286332130E1,1.025831699E1
7.356178077E0,1.917704201E1,2.554645920E1,2.818974972E0
7.372844015E0,4.234485626E0,2.834636688E1,6.275632381E0
7.389509952E0,-5.170372486E0,3.187862206E1,1.152212334E1
7.406175890E0,-1.272077274E1,3.632566071E1,1.210459518E1
7.422841827E0,-1.643522263E1,3.841211700E1,1.250338745E1
7.439507765E0,-1.483181572E1,3.885094452E1,1.873970604E1
7.456173702E0,-9.927040100E0,3.717911530E1,2.282036972E1
7.472839640E0,-2.511975765E0,3.163454437E1,1.903082657E1
7.489505577E0,3.633598328E0,2.158625031E1,1.182311726E1
7.506171515E0,5.939970970E0,1.386485672E1,9.786099434E0
7.522837452E0,1.170909214E1,1.047366714E1,1.219948673E1
7.539503390E0,2.101981735E1,7.146140575E0,1.644094467E1
7.556169327E0,2.845844078E1,1.945681572E0,1.843405533E1
7.572835265E0,3.291166687E1,-3.756964207E0,1.733733559E1
7.589501202E0,3.874776077E1,-9.041712761E0,1.058696175E1
7.606167140E0,3.685389709E1,-1.554726601E1,1.269692779E0
7.622833077E0,2.890272903E1,-2.340204239E1,-5.115748644E-1
7.639499015E0,1.441297626E1,-2.942488480E1,8.130898476E0
7.656164952E0,2.241947889E0,-3.276261902E1,1.324916744E1
7.672830890E0,8.739492893E-1,-4.079652023E1,5.469313145E0
7.689496827E0,-1.666614771E0,-4.623136139E1,-8.756548882E0
7.706162765E0,-5.748256207E0,-4.457187271E1,-2.170005035E1
7.722828702E0,-5.966055393E0,-3.895910263E1,-2.521914482E1
7.739494640E0,-1.310289383E0,-3.521351624E1,-1.591686535E1
7.756160577E0,2.809097290E0,-3.217115402E1,-1.901252270E0
7.772826515E0,3.956669331E0,-2.419802856E1,1.218308640E1
7.789492452E0,6.017606735E0,-2.019137001E1,9.610969543E0
7.806158390E0,5.677074909E0,-1.939232445E1,-1.658018112E0
7.822824327E0,7.508650780E0,-2.043121719E1,-8.928174019E0
7.839490265E0,1.997949600E1,-1.931695747E1,-9.519094467E0
7.856156202E0,5.064800262E1,-8.744709015E0,4.245629311E0
7.872822140E0,6.834326935E1,9.876087189E0,3.074431229E1
7.889488077E0,5.358059311E1,2.096725655E1,4.301000977E1
7.906154015E0,2.606540298E1,2.220142746E1,2.834880447E1
7.922819952E0,1.177393818E1,2.155180168E1,-6.195803285E-1
7.939485890E0,3.754199028E0,1.912879372E1,-1.787796402E1
7.956151827E0,-6.372776031E0,1.750459290E1,-1.255168533E1
7.972817765E0,-1.386815834E1,1.885315323E1,-1.069772840E0
7.989483702E0,-1.827804565E1,2.395018578E1,6.803316116E0
8.006149640E0,-1.933902931E1,2.927716446E1,1.027653313E1
8.022815577E0,-1.721875381E1,3.340100861E1,1.180527210E1
8.039481515E0,-1.208987904E1,3.541642761E1,1.347576237E1
8.056147452E0,-6.471525192E0,3.354752731E1,1.581885338E1
8.072813390E0,-3.790460110E0,2.803050995E1,1.785824585E1
8.089479327E0,-1.565193176E0,2.098929596E1,1.964900208E1
8.106145265E0,3.995130539E0,1.485602951E1,2.260088539E1
8.122811202E0,1.107584763E1,1.002556801E1,2.610489273E1
8.139477140E0,1.903516388E1,6.629310608E0,2.727926254E1
8.156143077E0,2.894217491E1,2.921252251E0,2.551400185E1
8.172809015E0,3.557314682E1,-5.159091949E-1,2.019606781E1
8.189474952E0,4.306168365E1,-2.528627872E0,1.021329117E1
8.206140890E0,4.600548935E1,-9.309493065E0,6.163078547E-1
8.222806827E0,3.811939240E1,-2.048116684E1,2.557859421E0
8.239472765E0,1.735493088E1,-2.714439964E1,1.598590851E1
8.256138702E0,5.836117744E0,-3.205046082E1,2.043223953E1
8.272804640E0,7.970043182E0,-4.356949615E1,9.331512451E0
8.289470577E0,5.233624935E0,-5.133831787E1,-1.250680065E1
8.306136515E0,-9.629702568E-2,-4.891549301E1,-2.837195015E1
8.322802452E0,-3.016882896E0,-4.467983246E1,-2.765507698E1
8.339468390E0,-4.953430176E0,-4.227390289E1,-1.530575180E1
8.356134327E0,-6.574757099E0,-3.746487427E1,-1.305134177E0
8.372800265E0,-6.154209137E0,-2.982823753E1,6.487704754E0
8.389466202E0,-2.675645590E0,-2.676421165E1,8.103768229E-1
8.406132140E0,2.896087170E0,-2.570021057E1,-7.478019238E0
8.422798077E0,1.127448750E1,-2.353052521E1,-1.016731834E1
8.439464015E0,2.800699234E1,-1.720725441E1,-2.213395834E0
8.456129952E0,5.779858017E1,-2.807580709E0,1.812928963E1
8.472795890E0,6.892818451E1,1.472967720E1,3.979285431E1
8.489461827E0,5.321994781E1,2.443736649E1,4.167840195E1
8.506127765E0,2.691490173E1,2.216362381E1,2.006951714E1
8.522793702E0,9.308997154E0,1.875893784E1,-6.750249863E0
8.539459640E0,-2.633534431E0,1.720073128E1,-1.591370296E1
8.556125577E0,-1.008411026E1,1.793941498E1,-7.414869308E0
8.572791515E0,-1.363248253E1,2.207789040E1,2.373183250E0
8.589457452E0,-1.520177841E1,2.687246132E1,4.599026680E0
8.606123390E0,-1.821970367E1,3.028310585E1,1.678859830E0
8.622789327E0,-1.987285233E1,3.361831284E1,2.795436621E0
8.639455265E0,-1.556591225E1,3.462648010E1,1.239670944E1
8.656121202E0,-6.995634079E0,3.068855667E1,2.261958694E1
8.672787140E0,6.260213852E-1,2.369152069E1,2.734690475E1
8.689453077E0,6.086790085E0,1.764993095E1,2.450048256E1
8.706119015E0,9.419944763E0,1.294273186E1,1.942259407E1
8.722784952E0,1.504660988E1,9.048467636E0,1.847541428E1
8.739450890E0,2.495820236E1,3.933979034E0,1.959232903E1
8.756116827E0,3.624389648E1,-2.789430618E-1,1.607672691E1
8.772782765E0,4.481420898E1,-3.830377102E0,1.405055046E1
8.789448702E0,4.004217529E1,-1.353375340E1,1.801999664E1
8.806114640E0,2.191292000E1,-2.138076210E1,2.388553047E1
8.822780577E0,1.383990955E1,-2.782299423E1,1.994560814E1
8.839446515E0,1.682209778E1,-3.924113464E1,5.907932758E0
8.856112452E0,1.263170624E1,-4.614920425E1,-1.377695656E1
8.872778390E0,3.640946865E0,-4.435274506E1,-2.625285912E1
8.889444327E0,-1.313353300E0,-4.373504639E1,-2.836381531E1
8.906110265E0,-5.839098454E0,-4.300445938E1,-1.814426041E1
8.922776202E0,-1.144842911E1,-3.827780533E1,-5.113381386E0
8.939442140E0,-1.467373657E1,-2.975145721E1,2.506304026E0
8.956108077E0,-1.296273804E1,-2.200138855E1,1.125409231E-1
8.972774015E0,-3.893384933E0,-1.360396194E1,-7.855878353E0
8.989439952E0,1.537835217E1,-2.655323982E0,-1.380040646E1
9.006105890E0,4.479454803E1,1.899867630E1,1.596829295E-1
9.022771827E0,5.987284851E1,3.990847397E1,3.607362747E1
9.039437765E0,4.575554657E1,4.354925156E1,4.746805573E1
9.056103702E0,2.407084656E1,2.762459183E1,1.620002365E1
9.072769640E0,-4.811308861E0,1.929992676E1,-2.555691910E1
9.089435577E0,-1.351990414E1,1.839498138E1,-3.607217407E1
9.106101515E0,-1.278582859E1,1.709860039E1,-1.427641392E1
9.122767452E0,-1.112021828E1,1.703252983E1,1.591499805E0
9.139433390E0,-4.065224648E0,1.524329185E1,1.220674992E1
9.156099327E0,-5.797402382E0,9.082299232E0,9.427968979E0
9.172765265E0,-1.315455818E1,2.228486061E0,4.713739872E0
9.189431202E0,-1.726439857E1,-1.853394032E0,1.734943390E0
9.206097140E0,-1.540241623E1,-3.143384695E0,3.291267395E0
9.222763077E0,1.062747002E0,-4.270088673E0,8.011711121E0
9.239429015E0,3.254828262E1,-1.129582882E1,7.543867588E0
9.256094952E0,3.597771835E1,-1.690928268E1,1.174288177E1
9.272760890E0,1.711467934E1,-1.744091034E1,2.750524902E1
9.289426827E0,3.668288946E0,-1.249771500E1,4.314807510E1
9.306092765E0,-2.530176640E-1,-1.090054607E1,3.820770645E1
9.322758702E0,3.313760757E-1,-1.114887428E1,2.232144165E1
9.339424640E0,5.842267036E0,-1.084913921E1,4.303745747E0
9.356090577E0,9.357390404E-1,-9.097303391E0,-6.235676289E0
9.372756515E0,-6.621191502E0,-9.052307129E0,-6.576662540E0
9.389422452E0,-9.884794235E0,-1.162195587E1,-6.172818661E0
9.406088390E0,-1.465403175E1,-1.217500114E1,-2.890693188E0
9.422754327E0,-1.544965172E1,-1.040468407E1,4.695218086E0
9.439420265E0,2.445123196E0,-8.819396973E0,1.392722511E1
9.456086202E0,2.116371536E1,-5.248219967E0,2.184495926E1
9.472752140E0,2.444730759E1,-1.796345949E0,1.916860771E1
9.489418077E0,1.592290688E1,-7.252166271E-1,8.191740036E0
9.506084015E0,3.517006397E0,-3.249550581E0,-2.908472061E0
9.522749952E0,-7.899410248E0,-6.297252655E0,-5.048337936E0
9.539415890E0,-1.174643993E1,-9.739074707E0,-2.120826006E0
9.556081827E0,-7.211511612E0,-1.265011978E1,-1.354929924E0
9.572747765E0,3.307761192E0,-1.465057182E1,-7.272338867E-2
9.589413702E0,9.396598816E0,-1.322668839E1,2.799068451E0
9.606079640E0,1.858940506E1,-7.527217388E0,2.528046846E0
9.622745577E0,3.224571991E1,-3.755464554E-1,9.316737652E-1
9.639411515E0,3.832596588E1,3.492771149E0,1.268392277E1
9.656077452E0,3.042950821E1,7.151859760E0,2.129972649E1
9.672743390E0,1.266052628E1,9.530599594E0,1.249409962E1
9.689409327E0,1.724648476E0,9.205904961E0,-4.338558674E0
9.706075265E0,-1.167283058E0,7.599008560E0,-1.433314514E1
9.722741202E0,-2.182042599E0,5.046980858E0,-1.334443092E1
9.739407140E0,-2.014555454E0,6.811417341E-1,-6.498486519E0
9.756073077E0,-4.660542965E0,-5.663680553E0,4.832448959E0
9.772739015E0,-1.130192947E1,-6.768652916E0,1.765673828E1
9.789404952E0,-1.323201942E1,-3.639805317E0,2.257960129E1
9.806070890E0,-4.648699284E0,-2.257886648E0,1.644108009E1
9.822736827E0,1.120721054E1,-3.753541946E0,2.834151983E0
9.839402765E0,1.255253029E1,-4.375809431E-1,-9.158472061E0
9.856068702E0,3.160705566E0,4.022308826E0,-7.295927048E0
9.872734640E0,-2.413474083E0,3.082112789E0,-3.427347660E0
9.889400577E0,-2.942146301E0,1.937376499E0,-1.268054247E0
9.906066515E0,1.735617638E0,1.452937961E0,2.497662067E0
9.922732452E0,1.169834995E1,2.694806576E0,7.928227186E-1
9.939398390E0,1.894405746E1,5.417398453E0,2.065043449E-1
9.956064327E0,1.573505402E1,6.881711006E0,6.303942680E0
9.972730265E0,3.787447929E0,6.501761913E0,1.532123661E1
9.989396202E0,-5.753897667E0,6.861530304E0,1.847637749E1
1.000606214E1,-7.875016689E0,5.572009563E0,1.290353966E1
1.002272808E1,-6.172727585E0,4.203212261E0,4.220879078E0
1.003939402E1,-4.819706917E0,4.290247440E0,1.116150260E0
1.005605995E1,-6.684181213E0,6.471326351E0,8.223025322E0
1.007272589E1,-8.276703835E0,8.063454628E0,1.805717087E1
1.008939183E1,-6.228950500E0,7.147275925E0,2.232476997E1
1.010605777E1,-1.190776825E-1,4.368708611E0,2.008023453E1
1.012272370E1,8.093109131E0,4.182100296E-1,1.112285709E1
1.013938964E1,1.160366631E1,-1.254769564E0,3.722340584E0
1.015605558E1,1.082602787E1,-1.308467984E0,5.457270145E0
1.017272152E1,1.057803249E1,-1.828310251E0,1.541724873E1
1.018938745E1,1.328156948E1,-1.225951433E0,2.307903671E1
1.020605339E1,2.802554703E1,-5.250518322E0,2.328790474E1
1.022271933E1,3.523578644E1,-1.194304085E1,2.154590225E1
1.023938527E1,2.665129089E1,-2.309925842E1,1.935290909E1
1.025605120E1,1.076164722E1,-3.427941132E1,1.138694954E1
1.027271714E1,-2.979871273E0,-3.028919220E1,-1.613653898E0
1.028938308E1,-1.735666275E0,-2.824265480E1,-6.645383835E-1
1.030604902E1,1.131347656E0,-2.883346939E1,1.471760750E1
1.032271495E1,1.346775150E1,-2.533180809E1,2.452177429E1
1.033938089E1,1.810389900E1,-1.796577835E1,1.937638474E1
1.035604683E1,1.617545700E1,-1.423079967E1,7.482682228E0
1.037271277E1,1.343536663E1,-1.128495693E1,-5.600010395E0
1.038937870E1,1.367047501E1,-8.051698685E0,-1.769521713E1
1.040604464E1,2.569962120E1,-3.956165314E0,-2.623540115E1
1.042271058E1,2.349804306E1,3.022881508E0,-2.787396431E1
1.043937652E1,1.064343452E1,8.367785454E0,-1.867837143E1
1.045604245E1,4.463912487E0,1.019852924E1,-1.419182491E1
1.047270839E1,6.933895111E0,9.847436905E0,-1.563387108E1
1.048937433E1,1.201688290E1,1.168180752E1,-1.626353836E1
1.050604027E1,1.717140388E1,1.583478928E1,-1.086558819E1
1.052270620E1,1.891435814E1,2.244752884E1,3.092353344E0
1.053937214E1,1.967767143E1,3.042639923E1,1.706921196E1
1.055603808E1,2.032437706E1,3.320301056E1,1.282098770E1
1.057270402E1,1.446244717E1,3.376594543E1,-1.762562633E0
1.058936995E1,7.393204212E0,3.427724457E1,-3.684704781E0
1.060603589E1,7.197139263E0,3.558905792E1,7.026637077E0
1.062270183E1,1.595964336E1,3.545907593E1,1.989382553E1
1.063936777E1,2.261029243E1,3.411595154E1,2.407077217E1
1.065603370E1,2.402935410E1,3.132952499E1,1.651017380E1
1.067269964E1,2.451610565E1,2.945568275E1,9.057605743E0
1.068936558E1,3.027837944E1,2.630056190E1,1.211105728E1
1.070603152E1,3.527872849E1,2.170471573E1,1.883304214E1
1.072269745E1,3.806922150E1,1.761905670E1,2.093013382E1
1.073936339E1,4.106123352E1,1.422695541E1,2.093933296E1
1.075602933E1,4.536550522E1,1.248097038E1,1.733830833E1
1.077269527E1,5.128105927E1,1.000397873E1,1.649374771E1
1.078936120E1,5.278982544E1,5.859832764E0,1.757139587E1
1.080602714E1,4.930854797E1,-1.796952724E0,2.156121445E1
1.082269308E1,4.095446014E1,-1.090564632E1,3.390666199E1
1.083935902E1,3.222121048E1,-2.166252136E1,3.821262741E1
1.085602495E1,3.054390144E1,-3.318338013E1,3.068065453E1
1.087269089E1,3.180417252E1,-4.699480438E1,3.642498779E1
1.088935683E1,1.832407379E1,-5.801451874E1,4.655935287E1
1.090602277E1,6.543561935E0,-6.087801361E1,3.998370743E1
1.092268870E1,4.254313469E0,-6.161769867E1,2.122882080E1
1.093935464E1,4.404810429E0,-6.033575821E1,8.211786270E0
1.095602058E1,1.335638046E1,-5.938334274E1,2.430508614E0
1.097268652E1,2.820340729E1,-5.305939102E1,-9.916754961E-1
1.098935245E1,3.894447327E1,-4.121624374E1,-2.394834757E0
1.100601839E1,4.400279999E1,-2.984371185E1,-4.301250458E0
1.102268433E1,4.374282837E1,-2.358880615E1,-5.999998093E0
1.103935027E1,4.335505295E1,-2.169000053E1,-5.757026672E0
1.105601620E1,5.798861694E1,-1.895853806E1,1.221794724E0
1.107268214E1,6.943118286E1,-5.445564747E0,2.230130768E1
1.108934808E1,6.798086548E1,1.334283638E1,3.382327271E1
1.110601402E1,5.210055161E1,2.449205208E1,2.474591255E1
1.112267995E1,4.218302917E1,3.246663284E1,1.342372513E1
1.113934589E1,3.348436737E1,4.099324036E1,1.065454102E1
1.115601183E1,1.645757675E1,5.138531113E1,1.610604858E1
1.117267777E1,2.787427425E0,6.353660202E1,2.768637848E1
1.118934370E1,-9.249486923E-1,6.486949158E1,3.633721161E1
1.120600964E1,-6.941648006E0,5.489856720E1,3.425143051E1
1.122267558E1,-1.113368034E1,4.464004898E1,2.433335686E1
1.123934152E1,-4.958821297E0,3.696253204E1,2.004713821E1
1.125600745E1,5.418169975E0,3.256151199E1,2.036995506E1
1.127267339E1,1.589800358E1,2.964435768E1,2.150638390E1
1.128933933E1,2.509723282E1,2.770145798E1,2.095481873E1
1.130600527E1,3.690136719E1,2.534229660E1,1.700825882E1
1.132267120E1,4.965911102E1,2.225688934E1,1.636863708E1
1.133933714E1,6.346004868E1,1.721379852E1,1.694483566E1
1.135600308E1,7.050955200E1,3.803222656E0,1.880535126E1
1.137266902E1,6.711853027E1,-1.418934822E1,1.913208580E1
1.138933495E1,5.750853729E1,-3.113092422E1,1.812646103E1
1.140600089E1,4.296683884E1,-4.983641434E1,1.937020111E1
1.142266683E1,2.138757515E1,-6.486721039E1,2.029765320E1
1.143933277E1,2.416375875E0,-7.246378326E1,1.470190430E1
1.145599870E1,-7.921433449E0,-7.602381134E1,-1.721129417E-1
1.147266464E1,-1.606616211E1,-7.318611908E1,-8.261938095E0
1.148933058E1,-1.383582878E1,-6.826986694E1,-7.500489235E0
1.150599652E1,3.470825672E0,-6.173735428E1,-1.705130339E0
1.152266245E1,1.682246780E1,-5.022846603E1,4.381474972E0
1.153932839E1,2.328429413E1,-3.712066650E1,7.652564049E0
1.155599433E1,3.367706299E1,-2.696851540E1,6.440135479E0
1.157266027E1,4.517340088E1,-1.951978493E1,1.535279036E0
1.158932620E1,4.421636963E1,-1.225344086E1,-2.733876705E0
1.160599214E1,4.616048813E1,-5.415581226E0,1.285705209E0
1.162265808E1,5.323637772E1,2.996410847E0,1.732045937E1
1.163932402E1,4.957388306E1,1.222895241E1,2.739469910E1
1.165598995E1,3.289108658E1,1.836035156E1,1.713330269E1
1.167265589E1,2.317326355E1,2.219656181E1,4.537189960E0
1.168932183E1,1.777300262E1,2.650410843E1,8.142630577E0
1.170598777E1,8.829587936E0,3.033563995E1,2.538549232E1
1.172265370E1,4.113779068E0,3.808819199E1,3.726011276E1
1.173931964E1,3.111457825E0,4.342111969E1,3.187728119E1
1.175598558E1,-1.148457527E0,3.792382050E1,1.781189728E1
1.177265152E1,-1.188584995E1,3.282824326E1,6.389655590E0
1.178931745E1,-1.822557831E1,3.025633049E1,5.479080200E0
1.180598339E1,-1.612789917E1,2.850040245E1,1.181095409E1
1.182264933E1,-6.972892761E0,3.020196152E1,1.966196251E1
1.183931527E1,6.285608292E0,2.962797737E1,2.237455750E1
1.185598120E1,1.399345303E1,2.363503838E1,1.783890533E1
1.187264714E1,1.817097092E1,1.831086540E1,1.233457088E1
1.188931308E1,2.879111671E1,1.381536865E1,1.425352764E1
1.190597902E1,4.268375015E1,4.694097042E0,2.050299072E1
1.192264495E1,5.306340790E1,-8.778273582E0,2.155254745E1
1.193931089E1,5.562894440E1,-1.494273186E1,1.553270054E1
1.195597683E1,5.350476837E1,-2.500005341E1,1.069721031E1
1.197264277E1,3.833425903E1,-3.713173676E1,9.206369400E0
1.198930870E1,1.349887276E1,-4.561702728E1,8.642333984E0
1.200597464E1,-6.252715588E0,-4.726890564E1,6.247127533E0
1.202264058E1,-9.973959923E0,-4.818203735E1,-1.814031363E0
1.203930652E1,-1.024969101E1,-4.814832687E1,-1.230975723E1
1.205597245E1,-1.209308052E1,-4.424512100E1,-1.888326836E1
1.207263839E1,-8.503401756E0,-3.859751129E1,-1.928356743E1
1.208930433E1,-9.295811653E-1,-3.333723068E1,-1.354936218E1
1.210597027E1,4.723535061E0,-2.734363174E1,-4.142892838E0
1.212263620E1,5.739500523E0,-2.009400749E1,4.281293392E0
1.213930214E1,8.000549316E0,-1.576866245E1,4.597325325E0
1.215596808E1,1.109569263E1,-1.282291317E1,1.671846032E0
1.217263402E1,1.237471104E1,-9.361698151E0,-7.957711220E-1
1.218929995E1,2.112433052E1,-2.753331661E0,-3.665309548E-1
1.220596589E1,3.954772568E1,4.088380337E0,3.346473694E0
1.222263183E1,4.660674286E1,1.109635544E1,1.467675400E1
1.223929776E1,3.435632706E1,1.388210297E1,2.644364548E1
1.225596370E1,1.774464035E1,1.528458214E1,2.666716576E1
1.227262964E1,7.069738388E0,1.442942429E1,1.475942421E1
1.228929558E1,-9.798717499E-1,1.366962719E1,2.808508158E0
1.230596152E1,-7.569149494E0,1.295619488E1,-1.450810671E0
1.232262745E1,-1.075654984E1,1.269532013E1,1.979514658E-1
1.233929339E1,-1.141208267E1,1.520232582E1,2.424756289E0
1.235595933E1,-1.296130371E1,1.985709381E1,4.684412003E0
1.237262526E1,-1.728091621E1,2.471127701E1,7.277310371E0
1.238929120E1,-1.779005814E1,2.749113846E1,1.187438393E1
1.240595714E1,-1.263120461E1,2.636034393E1,1.610371971E1
1.242262308E1,-6.770239830E0,2.117327118E1,1.533409023E1
1.243928902E1,-2.490917683E0,1.523809242E1,1.085191917E1
1.245595495E1,1.344945908E0,1.130033112E1,9.286239624E0
1.247262089E1,1.003627396E1,6.802130222E0,1.155949497E1
1.248928683E1,2.283827400E1,-1.776364803E0,1.526973820E1
1.250595276E1,3.068914413E1,-7.959862232E0,1.632922554E1
1.252261870E1,3.609503937E1,-1.095158958E1,1.667044449E1
1.253928464E1,3.480776978E1,-1.901274109E1,1.577658272E1
1.255595058E1,2.048990822E1,-2.516351700E1,1.178692722E1
1.257261652E1,4.757450104E0,-2.639146042E1,7.196899414E0
1.258928245E1,-2.024407387E0,-2.868576813E1,2.011564493E0
1.260594839E1,-6.457401752E0,-3.089748764E1,-7.193428993E0
1.262261433E1,-1.096251965E1,-3.025997543E1,-1.527110767E1
1.263928026E1,-1.204878807E1,-2.979506111E1,-1.737670898E1
1.265594620E1,-9.457313538E0,-3.066598892E1,-1.383245087E1
1.267261214E1,-6.454437733E0,-3.052046013E1,-5.841257095E0
1.268927808E1,-6.766033649E0,-2.747294617E1,-2.623417377E-1
1.270594402E1,-8.074877739E0,-2.226329422E1,2.556546211E0
1.272260995E1,-6.435911179E0,-1.676765251E1,1.895913243E0
1.273927589E1,1.323918343E0,-9.255310059E0,-1.960136414E0
1.275594183E1,1.999151802E1,-2.972094536E0,-3.634423018E0
1.277260776E1,3.228350067E1,3.020583391E0,4.477338791E0
1.278927370E1,3.485027313E1,1.875817490E1,2.111457825E1
1.280593964E1,3.313843155E1,2.566191101E1,3.765206909E1
1.282260558E1,2.654365158E1,2.629659843E1,3.788948822E1
1.283927152E1,1.544596386E1,2.178301430E1,1.119020653E1
1.285593745E1,3.378953934E0,2.086458588E1,-2.362637329E1
1.287260339E1,5.470685959E-1,2.206562614E1,-2.891523552E1
1.288926933E1,-3.556798935E0,2.261774826E1,-1.323108292E1
1.290593526E1,-7.849669456E0,2.320156097E1,7.502005100E-1
1.292260120E1,-7.347254276E0,1.952257919E1,9.293575287E0
1.293926714E1,-8.194016457E0,1.208989525E1,9.500869751E0
1.295593308E1,-9.213833809E0,4.420564175E0,6.280293465E0
1.297259902E1,-9.885692596E0,-5.478510857E-1,2.581999540E0
1.298926495E1,-5.107781410E0,-5.155177116E0,1.856016755E0
1.300593089E1,7.116566658E0,-1.246016121E1,8.712199211E0
1.302259683E1,1.968262291E1,-2.266682816E1,2.299242401E1
1.303926276E1,2.845712090E1,-3.282077408E1,3.831501007E1
1.305592870E1,1.764077187E1,-2.743667221E1,4.202600861E1
1.307259464E1,1.092534447E1,-1.988039017E1,4.323495102E1
1.308926058E1,9.820795059E0,-1.730879021E1,3.856124115E1
1.310592652E1,6.854173183E0,-1.558749771E1,2.281538391E1
1.312259245E1,6.599669456E0,-1.312894249E1,2.600556374E0
1.313925839E1,4.811463356E0,-9.663724899E0,-1.169447899E1
1.315592433E1,1.567281246E0,-7.586348057E0,-1.660224152E1
1.317259026E1,-4.211273670E0,-7.279281139E0,-1.824930763E1
1.318925620E1,-9.237463951E0,-5.718223095E0,-1.044880104E1
1.320592214E1,-6.385564804E0,-6.345056534E0,5.093760490E0
1.322258808E1,8.159534454E0,-7.757068157E0,1.547155285E1
1.323925402E1,2.210687256E1,-1.218521023E1,1.115151596E1
1.325591995E1,1.322290421E1,-1.366279602E1,1.353432775E0
1.327258589E1,-3.775177717E0,-1.438737106E1,-5.499144077E0
1.328925183E1,-1.140955353E1,-1.447149563E1,-6.368837357E0
1.330591776E1,-1.168083382E1,-1.526957989E1,-3.721400738E0
1.332258370E1,-4.118347645E0,-1.744712257E1,2.004907131E-1
1.333924964E1,6.858144760E0,-2.158014870E1,1.008465886E0
1.335591558E1,1.235842514E1,-2.423196030E1,6.323471069E-1
1.337258152E1,1.649282646E1,-2.363018990E1,5.539824486E0
1.338924745E1,2.216794014E1,-1.574371338E1,1.628067780E1
1.340591339E1,2.485923004E1,-1.013362312E1,2.367282104E1
1.342257933E1,2.216096497E1,-5.133781910E0,1.904100990E1
1.343924526E1,1.999005508E1,2.908331394E0,1.095245934E1
1.345591120E1,1.155749321E1,7.957340240E0,5.913139820E0
1.347257714E1,6.185673714E0,9.829276085E0,1.119641662E0
1.348924308E1,4.158867836E0,9.952295303E0,-3.313183308E0
1.350590902E1,4.883297920E0,9.933891296E0,-3.405416012E0
1.352257495E1,7.951511383E0,1.014136505E1,-6.822497845E-1
1.353924089E1,4.777437210E0,9.306249619E0,4.978304863E0
1.355590683E1,1.012601852E0,1.153031731E1,1.005999374E1
1.357257276E1,3.513302803E0,1.514086342E1,9.802517891E0
1.358923870E1,8.631481171E0,1.676115036E1,4.319761753E0
1.360590464E1,1.102501678E1,1.781010056E1,-4.644599915E0
1.362257058E1,7.875898361E0,1.915544701E1,-1.043647385E1
1.363923652E1,1.611199379E0,1.956069756E1,-9.744925499E0
1.365590245E1,-5.429463387E0,1.748405457E1,-7.376934052E0
1.367256839E1,-8.972872734E0,1.228700638E1,-3.261597633E0
1.368923433E1,-8.979019165E0,7.462613106E0,3.972867489E0
1.370590026E1,-7.269929886E0,3.984217882E0,1.174766350E1
1.372256620E1,-2.387665272E0,9.081644416E-1,1.583058357E1
1.373923214E1,4.662994385E0,7.896081209E-1,1.868542862E1
1.375589808E1,1.482756042E1,5.471869469E0,2.488211060E1
1.377256402E1,3.457534027E1,8.451003075E0,3.617879868E1
1.378922995E1,5.291528320E1,6.094866276E0,3.987472153E1
1.380589589E1,5.689607239E1,-8.876523972E-1,3.999946976E1
1.382256183E1,4.421558380E1,-1.220938015E1,3.895548248E1
1.383922776E1,3.188461494E1,-2.127676582E1,3.530393600E1
1.385589370E1,2.585938263E1,-2.731236076E1,2.660010529E1
1.387255964E1,1.627947617E1,-2.861622238E1,1.934987259E1
1.388922558E1,4.806886673E0,-2.978491020E1,1.679611206E1
1.390589152E1,-3.990375042E0,-3.452762604E1,1.786033630E1
1.392255745E1,-1.156202412E1,-3.979382324E1,1.911220932E1
1.393922339E1,-1.763399506E1,-4.120614243E1,1.429004288E1
1.395588933E1,-1.649230576E1,-3.971322632E1,4.741669655E0
1.397255526E1,-2.598266125E0,-3.686098480E1,-4.710905075E0
1.398922120E1,1.395913315E1,-3.152732849E1,-9.577693939E0
1.400588714E1,1.999049759E1,-2.382771301E1,-7.793475628E0
1.402255308E1,2.549515915E1,-1.721207619E1,6.978309155E-1
1.403921902E1,2.613040161E1,-1.289198112E1,-2.845001936E0
1.405588495E1,2.915420914E1,-9.543442726E0,-1.937519836E1
1.407255089E1,2.918765831E1,-2.747244835E0,-3.298540115E1
1.408921683E1,2.030993271E1,3.846999168E0,-3.465743637E1
1.410588276E1,1.570894146E1,7.182213306E0,-2.353167915E1
1.412254870E1,1.805376434E1,1.079420090E1,-4.392990112E0
1.413921464E1,2.272138023E1,1.639641762E1,5.954995632E0
1.415588058E1,2.339338875E1,2.169025040E1,7.193923950E0
1.417254652E1,1.958138657E1,2.585012054E1,5.984295368E0
1.418921245E1,1.547560692E1,2.742345047E1,4.345830441E0
1.420587839E1,1.081775284E1,2.864145660E1,2.929557323E0
1.422254433E1,6.072696686E0,3.057861900E1,5.176703453E0
1.423921026E1,4.252323151E0,3.338168716E1,8.527559280E0
1.425587620E1,9.095100403E0,3.460760498E1,1.026376534E1
1.427254214E1,1.605901909E1,3.353992844E1,7.078280449E0
1.428920808E1,1.907160759E1,3.161711502E1,4.801274776E0
1.430587402E1,1.835356522E1,2.918617249E1,6.590434074E0
1.432253995E1,1.935571480E1,2.633866692E1,8.900164604E0
1.433920589E1,2.324477768E1,2.316665649E1,1.056415844E1
1.435587183E1,2.751852989E1,2.001985550E1,1.229120636E1
1.437253776E1,3.048198318E1,1.679771614E1,1.524248505E1
1.438920370E1,3.243244171E1,1.501495075E1,1.885075951E1
1.440586964E1,4.030840302E1,1.187377834E1,2.239520645E1
1.442253558E1,4.646757126E1,6.932778835E0,2.332332230E1
1.443920152E1,4.740610886E1,3.978113174E0,2.077856255E1
1.445586745E1,4.774867249E1,2.304811478E-1,1.994687271E1
1.447253339E1,4.302199173E1,-6.472140312E0,2.174699211E1
1.448919933E1,3.597750092E1,-1.600857925E1,2.735255241E1
1.450586526E1,3.161436462E1,-2.986991882E1,3.100657654E1
1.452253120E1,2.896404839E1,-4.541640091E1,3.055690384E1
1.453919714E1,2.203548813E1,-6.008189011E1,3.043302727E1
1.455586308E1,6.429400444E0,-6.736674500E1,2.975073624E1
1.457252902E1,-5.870579243E0,-7.025487518E1,2.200291824E1
1.458919495E1,-8.480625153E0,-6.917522430E1,1.385016823E1
1.460586089E1,5.779894829E0,-6.788574219E1,8.327205658E0
1.462252683E1,3.054793930E1,-6.299732971E1,3.236643791E0
1.463919276E1,4.487902832E1,-5.063319778E1,3.510098457E-1
1.465585870E1,4.876792145E1,-3.751724625E1,1.392280221E0
1.467252464E1,5.320284271E1,-2.784122658E1,2.515401840E-1
1.468919058E1,5.681006622E1,-1.929833031E1,-3.830427647E0
1.470585652E1,5.953132248E1,-1.270019341E1,-5.062468052E-1
1.472252245E1,6.902341461E1,-6.445722580E0,1.473851109E1
1.473918839E1,6.448323059E1,6.253210545E0,2.723164940E1
1.475585433E1,5.205578995E1,1.734764671E1,2.488646507E1
1.477252026E1,4.478287125E1,2.490985107E1,1.285449886E1
1.478918620E1,3.762108612E1,3.037769508E1,7.202963352E0
1.480585214E1,2.946434212E1,3.430201721E1,9.910243988E0
1.482251808E1,1.668820953E1,3.979109955E1,1.706937599E1
1.483918402E1,1.355958462E0,4.616645050E1,2.738732910E1
1.485584995E1,-7.716484547E0,4.936540222E1,3.305852509E1
1.487251589E1,-1.217961311E1,4.889128113E1,3.167131805E1
1.488918183E1,-1.230390549E1,4.587684250E1,2.410376358E1
1.490584776E1,-8.799448967E0,4.082230377E1,1.809870148E1
1.492251370E1,-2.417158127E0,3.473177338E1,2.122525024E1
1.493917964E1,4.798130035E0,3.013859177E1,2.437378120E1
1.495584558E1,1.277105618E1,2.760998154E1,2.094001770E1
1.497251152E1,2.184493256E1,2.536061287E1,1.450467014E1
1.498917745E1,3.055637360E1,2.401073837E1,1.057098770E1
1.500584339E1,4.230368042E1,2.405615616E1,1.432077789E1
1.502250933E1,5.663851547E1,2.154944992E1,2.242880630E1
1.503917526E1,6.785656738E1,1.083347893E1,2.571334076E1
1.505584120E1,7.082982635E1,-6.656890869E0,2.150676918E1
1.507250714E1,6.243969727E1,-2.185172653E1,1.309959507E1
1.508917308E1,4.691945267E1,-3.755348969E1,9.120141029E0
1.510583902E1,2.938814926E1,-5.524458694E1,1.351874924E1
1.512250495E1,7.494462013E0,-6.676045990E1,1.638869476E1
1.513917089E1,-3.004650116E0,-7.436700439E1,7.229706287E0
1.515583683E1,-1.149941826E1,-7.552690887E1,-9.679081917E0
1.517250276E1,-1.861410141E1,-7.071678925E1,-1.784528160E1
1.518916870E1,-7.289587498E0,-6.595419312E1,-1.265634632E1
1.520583464E1,1.532247734E1,-5.788069153E1,-3.269843102E0
1.522250058E1,2.306328201E1,-4.279308701E1,7.524073124E0
1.523916652E1,2.784689713E1,-3.080389404E1,1.241362190E1
1.525583245E1,3.517060471E1,-2.399383926E1,6.585362434E0
1.527249839E1,4.122313690E1,-1.948955727E1,-3.076359034E0
1.528916433E1,4.999998856E1,-1.118907070E1,-7.321075439E0
1.530583026E1,6.676712799E1,-8.173799515E-2,6.237796307E0
1.532249620E1,6.337662506E1,1.612405586E1,2.679011536E1
1.533916214E1,4.376673508E1,2.426555061E1,3.364566422E1
1.535582808E1,2.825873566E1,2.711732292E1,2.273990250E1
1.537249402E1,1.806180191E1,2.806041718E1,9.680294991E0
1.538915995E1,8.764390945E0,2.953558731E1,6.789876461E0
1.540582589E1,-1.310214996E-1,3.399137115E1,1.194583321E1
1.542249183E1,-4.421976566E0,3.863456726E1,1.834568214E1
1.543915777E1,-5.894771576E0,3.729413605E1,1.827805328E1
1.545582370E1,-9.529160500E0,3.358151245E1,1.053080559E1
1.547248964E1,-1.609818268E1,3.157629585E1,6.594091415E0
1.548915558E1,-1.894930267E1,3.070328903E1,1.131369781E1
1.550582152E1,-1.240222359E1,3.160867119E1,1.884472275E1
1.552248745E1,1.054751396E0,3.402612305E1,2.473474693E1
1.553915339E1,1.440545559E1,3.196991920E1,2.327625847E1
1.555581933E1,2.089058304E1,2.470809937E1,1.772834587E1
1.557248527E1,2.432392883E1,1.861340523E1,1.484937668E1
1.558915120E1,3.475345612E1,1.394952965E1,1.675791359E1
1.560581714E1,4.942304611E1,5.312786102E0,2.059866714E1
1.562248308E1,5.771798706E1,-6.722529888E0,2.097389793E1
1.563914902E1,5.917539215E1,-1.564773655E1,1.667022705E1
1.565581495E1,5.457521820E1,-2.586521339E1,1.151300621E1
1.567248089E1,3.773127365E1,-3.581895447E1,7.903769493E0
1.568914683E1,1.632319450E1,-4.507127380E1,7.402249813E0
1.570581277E1,-2.538053513E0,-5.193282318E1,7.654476643E0
1.572247870E1,-1.137797546E1,-5.613285828E1,1.571292996E0
1.573914464E1,-1.641382790E1,-5.764696121E1,-8.120553017E0
1.575581058E1,-2.038411331E1,-5.469640350E1,-1.470901394E1
1.577247652E1,-1.606167984E1,-5.064638138E1,-1.396073723E1
1.578914245E1,-1.372900486E0,-4.791799164E1,-4.080490112E0
1.580580839E1,9.588306427E0,-4.175645447E1,9.981082916E0
1.582247433E1,1.093943787E1,-3.275365829E1,1.585924053E1
1.583914027E1,1.415651512E1,-2.785246468E1,8.458296776E0
1.585580620E1,2.073715591E1,-2.395325470E1,5.134307146E-1
1.587247214E1,2.876162338E1,-1.874877548E1,2.831436396E0
1.588913808E1,3.976644516E1,-1.113998127E1,1.211713314E1
1.590580402E1,5.127771378E1,1.387030840E0,1.803036499E1
1.592246995E1,5.369832993E1,1.519288826E1,2.375731087E1
1.593913589E1,4.150627899E1,2.313370514E1,2.196642303E1
1.595580183E1,2.548381042E1,2.357765007E1,1.046797371E1
1.597246777E1,9.225542068E0,2.276955605E1,1.109945774E0
1.598913370E1,-1.230362892E0,2.304565048E1,8.537005782E-1
1.600579964E1,-2.892259121E0,2.524604797E1,4.157719612E0
1.602246558E1,-5.716552734E-1,2.560981369E1,4.985885620E0
1.603913152E1,-3.787013531E0,2.473208618E1,4.581668854E0
1.605579745E1,-1.190415573E1,2.604020119E1,5.315636635E0
1.607246339E1,-1.257163239E1,2.908000946E1,7.491272926E0
1.608912933E1,-6.294514656E0,3.046468163E1,8.210329056E0
1.610579526E1,-1.189861298E-1,2.749390602E1,5.763485909E0
1.612246120E1,2.738952637E-1,2.123619652E1,9.740534425E-1
1.613912714E1,3.617115021E-1,1.442678070E1,-1.723146319E0
1.615579308E1,4.113693237E0,7.680827141E0,-2.282553673E0
1.617245902E1,1.173803997E1,-1.572942734E0,-2.506733179E0
1.618912495E1,2.218231201E1,-1.334767532E1,-1.796892166E0
1.620579089E1,2.860046196E1,-2.146693611E1,1.491434336E0
1.622245683E1,3.183877945E1,-2.347680855E1,1.373953533E1
1.623912276E1,3.204277420E1,-2.731008530E1,2.359518242E1
1.625578870E1,1.974830246E1,-3.313150787E1,1.861574745E1
1.627245464E1,6.330356598E-1,-3.105141640E1,6.680535793E0
1.628912058E1,-1.173377323E1,-2.632361794E1,-1.625659585E0
1.630578652E1,-1.642334747E1,-2.056756592E1,-5.911805153E0
1.632245245E1,-1.894006920E1,-1.558371162E1,-1.006368637E1
1.633911839E1,-1.987385941E1,-1.324506378E1,-1.151598263E1
1.635578433E1,-1.560105515E1,-1.516612625E1,-9.647056580E0
1.637245026E1,-1.439035988E1,-1.672189140E1,-5.318472385E0
1.638911620E1,-1.546769142E1,-1.985709381E1,-3.518354297E-1
1.640578214E1,-1.575542450E1,-2.327926636E1,1.794797301E0
1.642244808E1,-8.117816925E0,-1.870013046E1,9.910759926E0
1.643911402E1,2.478792381E1,-7.762020111E0,3.433063889E1
1.645577995E1,4.317975616E1,7.461299419E0,4.906182098E1
1.647244589E1,3.827307892E1,9.320882797E0,3.297757339E1
1.648911183E1,1.871551895E1,8.357584000E0,-4.924861908E0
1.650577776E1,2.629862785E0,6.754092216E0,-2.687170601E1
1.652244370E1,-8.336681366E0,5.592164040E0,-1.417746735E1
1.653910964E1,-1.218069649E1,6.139619827E0,-1.408006907E0
1.655577558E1,-9.636816025E0,3.061863422E0,-6.724634171E0
1.657244152E1,-6.114459515E0,-7.782509327E-1,-1.483312798E1
1.658910745E1,-6.658224583E0,-3.199935675E0,-1.326432514E1
1.660577339E1,-7.925118446E0,-7.365239143E0,-5.184131145E0
1.662243933E1,-4.795103073E0,-1.020237350E1,-1.604145765E0
1.663910526E1,7.499801636E0,-1.241845989E1,-3.340594292E0
1.665577120E1,2.774276543E1,-1.231312561E1,-3.723305225E0
1.667243714E1,3.072818756E1,-7.590495110E0,5.223879814E0
1.668910308E1,9.393258095E0,-2.954946280E0,1.483833313E1
1.670576902E1,-3.125905991E-1,-2.298687935E0,7.859253407E0
1.672243495E1,8.710737228E-1,-5.314623833E0,-6.278334618E0
1.673910089E1,-2.757576942E0,-8.192201614E0,-1.692200470E1
1.675576683E1,-6.424045563E0,-9.785638809E0,-1.967777252E1
1.677243276E1,-4.449205399E0,-1.358598900E1,-1.693734932E1
1.678909870E1,-1.977628231E0,-1.543796921E1,-9.687915802E0
1.680576464E1,-2.443968773E0,-1.122822189E1,2.629131317E0
1.682243058E1,7.144575119E-1,-5.739086151E0,1.347230911E1
1.683909652E1,8.571452141E0,-8.694729805E-1,1.538550377E1
1.685576245E1,1.376339245E1,3.477170706E0,1.214109039E1
1.687242839E1,1.314925098E1,4.956650257E0,4.362114429E0
1.688909433E1,8.261914253E0,5.537408352E0,-5.241360188E0
1.690576026E1,4.333900452E0,5.379164696E0,-9.364147186E0
1.692242620E1,1.327642441E0,4.004883766E0,-8.508300781E0
1.693909214E1,1.134890556E0,2.263898134E0,-5.824628830E0
1.695575808E1,6.219080925E0,-1.506869793E-1,-4.225371838E0
1.697242402E1,1.114748478E1,-3.891084671E0,-3.156467438E0
1.698908995E1,1.124402046E1,-9.601531982E0,-3.227110386E0
1.700575589E1,9.239199638E0,-1.276154137E1,-4.811715126E0
1.702242183E1,9.139765739E0,-1.375856400E1,-7.474118233E0
1.703908776E1,8.148121834E0,-1.483582115E1,-7.422090530E0
1.705575370E1,4.332929611E0,-1.797760010E1,-3.192537308E0
1.707241964E1,-1.614656925E0,-2.082460976E1,2.032930136E0
1.708908558E1,-7.736328125E0,-2.079378319E1,3.807307720E0
1.710575152E1,-1.154865456E1,-1.950864792E1,1.248323917E-1
1.712241745E1,-1.318478394E1,-1.882958031E1,-6.421710968E0
1.713908339E1,-1.162459946E1,-1.893874550E1,-1.099608040E1
1.715574933E1,-5.764086723E0,-2.009542847E1,-1.204325008E1
1.717241526E1,7.053470612E-1,-2.184523010E1,-7.038290977E0
1.718908120E1,3.966402054E0,-2.000587273E1,7.997061253E0
1.720574714E1,7.871052742E0,-1.439167500E1,2.101055145E1
1.722241308E1,1.817945480E1,-9.813138962E0,2.017296791E1
1.723907902E1,3.238939285E1,-1.935350418E0,1.388951588E1
1.725574495E1,3.975451660E1,6.154987335E0,6.122543812E0
1.727241089E1,3.454601669E1,1.144323921E1,2.488983154E0
1.728907683E1,2.370483780E1,1.315373230E1,5.382770061E0
1.730574276E1,1.586577320E1,1.629628181E1,4.671730518E0
1.732240870E1,1.519973755E1,1.975475693E1,1.451523304E-1
1.733907464E1,1.871446800E1,2.212192726E1,-3.909136772E0
1.735574058E1,1.801452827E1,2.431122398E1,-4.894365311E0
1.737240652E1,1.388483238E1,2.529487801E1,-4.907326221E0
1.738907245E1,1.106539631E1,2.429447174E1,-8.651641846E0
1.740573839E1,9.269122124E0,2.237189484E1,-1.211921692E1
1.742240433E1,8.158716202E0,2.118539047E1,-1.042865467E1
1.743907026E1,8.618692398E0,1.940120506E1,-8.444992065E0
1.745573620E1,9.250657082E0,1.687792397E1,-6.804807663E0
1.747240214E1,9.851721764E0,1.395885277E1,-4.490395069E0
1.748906808E1,1.083156013E1,1.032782364E1,-4.049134731E0
1.750573402E1,1.332689953E1,7.639916420E0,-4.111186028E0
1.752239995E1,1.686905670E1,6.233109474E0,-1.919776678E0
1.753906589E1,1.909499359E1,5.164129734E0,1.177852869E0
1.755573183E1,2.156674194E1,4.485515118E0,4.996423244E0
1.757239776E1,2.395532227E1,1.270234108E0,9.009796143E0
1.758906370E1,2.388519669E1,-4.757848740E0,1.047517300E1
1.760572964E1,1.995190048E1,-1.271217632E1,9.394237518E0
1.762239558E1,1.458168411E1,-2.242161942E1,4.472444534E0
1.763906152E1,8.131415367E0,-3.070768738E1,6.337523460E-3
1.765572745E1,-1.100146770E-1,-3.217864990E1,-2.053878784E0
1.767239339E1,-3.498999834E0,-3.226969910E1,-1.427214861E0
1.768905933E1,-1.397713780E0,-3.362800598E1,4.309911728E-1
1.770572526E1,-1.949825287E-1,-3.263387299E1,2.298591614E0
1.772239120E1,-1.212382555E0,-2.955336761E1,3.298403978E0
1.773905714E1,-2.916883945E0,-2.600414658E1,2.237018585E0
1.775572308E1,-4.703211308E0,-2.360128021E1,-1.060944438E0
1.777238902E1,-4.401030540E0,-2.233051682E1,-3.285423756E0
1.778905495E1,2.063292503E0,-2.159702110E1,-6.318247318E0
1.780572089E1,1.311519814E1,-1.760964394E1,-7.117871284E0
1.782238683E1,2.539693069E1,-9.046140671E0,-1.522738457E0
1.783905276E1,3.353274918E1,2.279217720E0,3.746993780E0
1.785571870E1,3.706711960E1,9.743791580E0,2.229544401E0
1.787238464E1,3.450277328E1,8.092660904E0,9.568767548E-1
1.788905058E1,2.331967163E1,4.139747620E0,5.782845974E0
1.790571652E1,1.257015991E1,5.915857315E0,1.184171391E1
1.792238245E1,1.174068832E1,7.142664909E0,1.291597462E1
1.793904839E1,1.339477539E1,7.440670967E0,7.217150688E0
1.795571433E1,1.249584007E1,7.234394550E0,-2.785754204E-1
1.797238026E1,7.170868874E0,6.503247261E0,-3.753575802E0
1.798904620E1,1.585470200E0,5.546957970E0,-2.435481548E0
1.800571214E1,-6.337680817E-1,3.940390348E0,1.581857204E0
1.802237808E1,-1.497147560E0,3.239111423E0,8.861883163E0
1.803904402E1,-4.161437035E0,3.216402054E0,1.451467896E1
1.805570995E1,-8.730545044E0,3.342398167E0,1.595281982E1
1.807237589E1,-1.304195499E1,3.675569534E0,1.390439987E1
1.808904183E1,-1.609485054E1,4.208215714E0,1.004630470E1
1.810570777E1,-1.754623795E1,5.336028576E0,6.544526577E0
1.812237370E1,-1.695200539E1,7.215628147E0,3.369064808E0
1.813903964E1,-1.468814659E1,9.080384254E0,6.842361689E-1
1.815570558E1,-1.334691048E1,1.269097328E1,-9.278268218E-1
1.817237152E1,-1.165791798E1,1.702117348E1,-1.020052195E0
1.818903745E1,-1.247283649E1,1.937730026E1,2.864125013E0
1.820570339E1,-1.372018242E1,1.991849899E1,8.258153915E0
1.822236933E1,-1.246924877E1,1.844500542E1,7.225979328E0
1.823903527E1,-8.094975471E0,1.680760193E1,2.614582539E0
1.825570120E1,-3.418330669E0,1.498468494E1,-8.974448442E-1
1.827236714E1,4.601745605E-1,1.415169907E1,-3.919252455E-1
1.828903308E1,3.117598534E0,1.403384781E1,1.896569848E0
1.830569902E1,5.211455822E0,1.481144333E1,6.654245377E0
1.832236495E1,8.315242767E0,1.942787933E1,1.229689407E1
1.833903089E1,1.700854111E1,2.506782722E1,1.537059307E1
1.835569683E1,3.065090179E1,2.366047859E1,1.280963898E1
1.837236277E1,3.525685501E1,1.615526962E1,9.366302490E0
1.838902870E1,2.961146545E1,6.365878105E0,5.655320168E0
1.840569464E1,2.441516495E1,-5.249495983E0,2.052842855E0
1.842236058E1,1.946266747E1,-1.656108475E1,2.526633739E-1
1.843902652E1,1.130822372E1,-2.469225311E1,1.326635957E0
1.845569245E1,5.495707512E0,-3.163890457E1,3.040585995E0
1.847235839E1,3.816106319E0,-3.991751480E1,1.454093575E0
1.848902433E1,1.485034943E0,-4.634666824E1,-5.501878738E0
1.850569027E1,-2.354345322E0,-4.997644424E1,-1.260793877E1
1.852235620E1,-6.644393444E0,-5.002106094E1,-1.340573502E1
1.853902214E1,-6.610829830E0,-4.836616516E1,-7.103961945E0
1.855568808E1,1.588048935E-1,-4.553648758E1,2.158144474E0
1.857235402E1,1.252148056E1,-4.032728577E1,8.947747231E0
1.858901995E1,2.493033218E1,-3.434759903E1,3.926012993E0
1.860568589E1,3.136947250E1,-2.628083801E1,-4.127462387E0
1.862235183E1,3.637811279E1,-1.398129177E1,-6.810806751E0
1.863901777E1,5.077109528E1,-1.590696335E0,-4.088653088E0
1.865568370E1,6.727845764E1,1.125260448E1,1.058796310E1
1.867234964E1,6.841149902E1,2.463760185E1,2.995098877E1
1.868901558E1,4.696103668E1,3.497642136E1,3.272964478E1
1.870568152E1,2.054300499E1,3.769380569E1,1.632125282E1
1.872234745E1,-1.922416687E-1,4.270380402E1,3.021372080E0
1.873901339E1,-9.399307251E0,4.971837234E1,4.277937412E0
1.875567933E1,-7.688875675E0,4.801087189E1,1.312682915E1
1.877234527E1,-9.939540863E0,4.090976715E1,2.549472237E1
1.878901120E1,-1.726777267E1,3.430062485E1,3.014543533E1
1.880567714E1,-1.408515358E1,3.222406387E1,2.250033951E1
1.882234308E1,3.421471596E0,3.236892700E1,9.186580658E0
1.883900902E1,2.087388229E1,3.168972778E1,1.114115953E0
1.885567495E1,2.777956009E1,3.149040794E1,5.683778286E0
1.887234089E1,3.159992599E1,3.270663834E1,1.409222984E1
1.888900683E1,4.794188690E1,3.178040695E1,1.481727982E1
1.890567277E1,6.479047394E1,2.155844307E1,1.284526157E1
1.892233870E1,6.709584808E1,5.650582314E0,1.023023224E1
1.893900464E1,5.858096313E1,-1.152252388E1,5.865628242E0
1.895567058E1,4.815597153E1,-2.765765762E1,3.591043711E0
1.897233652E1,3.483670807E1,-4.372627640E1,2.123926640E0
1.898900245E1,1.767997932E1,-5.234355164E1,-2.895565033E-1
1.900566839E1,1.885022044E0,-5.399331284E1,4.530622959E-1
1.902233433E1,-6.366082191E0,-5.433162308E1,-3.938958645E-1
1.903900027E1,-8.687481880E0,-5.508522797E1,-3.468816757E0
1.905566620E1,-9.768005371E0,-5.343102646E1,-6.761921883E0
1.907233214E1,-9.647377014E0,-4.923420715E1,-1.099550533E1
1.908899808E1,-3.131631374E0,-4.546008301E1,-1.136004066E1
1.910566402E1,7.563490868E0,-4.211287689E1,-6.995916843E0
1.912232995E1,1.660988045E1,-3.593861008E1,-2.047147989E0
1.913899589E1,2.344725037E1,-2.857781982E1,2.136410236E0
1.915566183E1,2.726173401E1,-2.083362389E1,6.776149750E0
1.917232777E1,3.020812607E1,-1.346119118E1,7.394261360E0
1.918899370E1,3.781330872E1,-6.068210602E0,7.014269829E0
1.920565964E1,5.422137451E1,3.490118980E0,6.302931786E0
1.922232558E1,5.796835327E1,1.006369781E1,9.705943108E0
1.923899152E1,3.585721588E1,1.304244041E1,1.637365341E1
1.925565745E1,1.724160576E1,1.501386642E1,1.941398430E1
1.927232339E1,1.328191662E1,1.760376930E1,1.654291153E1
1.928898933E1,1.152306461E1,1.809734726E1,9.699333191E0
1.930565527E1,4.225988388E0,1.938875008E1,5.139522552E0
1.932232120E1,-2.491671085E0,2.157508087E1,4.422183037E0
1.933898714E1,-6.396987915E0,2.270860291E1,5.997612000E0
1.935565308E1,-8.510931969E0,2.222610092E1,9.358757973E0
1.937231902E1,-9.227331161E0,2.106836700E1,9.537068367E0
1.938898495E1,-1.165402889E1,2.179603577E1,7.604901791E0
1.940565089E1,-1.411521912E1,2.552234268E1,7.947822094E0
1.942231683E1,-1.288670349E1,3.119449043E1,1.251497650E1
1.943898277E1,-7.005803108E0,3.539938736E1,1.813344765E1
1.945564870E1,1.812687874E0,3.404564285E1,1.881024933E1
1.947231464E1,6.295147896E0,2.940652084E1,1.410138035E1
1.948898058E1,9.548829079E0,2.355321121E1,8.629654884E0
1.950564652E1,1.423261929E1,1.911657333E1,6.292214870E0
1.952231245E1,2.418472862E1,1.519143963E1,1.019274902E1
1.953897839E1,4.009727478E1,8.815517426E0,1.946778870E1
1.955564433E1,5.546456146E1,2.001502037E0,2.104907608E1
1.957231027E1,6.347424316E1,-4.412968636E0,1.619964027E1
1.958897620E1,5.717760468E1,-1.509721947E1,1.173652267E1
1.960564214E1,3.884901047E1,-2.394397354E1,1.054073238E1
1.962230808E1,2.300504303E1,-2.959299469E1,1.080229187E1
1.963897402E1,1.099012375E1,-3.438295746E1,9.637958527E0
1.965563995E1,2.503405333E0,-3.631490326E1,6.478976250E0
1.967230589E1,-7.196986675E-1,-3.811417389E1,1.679304600E0
1.968897183E1,-3.970250130E0,-3.890357590E1,-3.922519207E0
1.970563777E1,-7.645405293E0,-3.719508362E1,-6.724162102E0
1.972230370E1,-9.643948555E0,-3.475970459E1,-5.194218636E0
1.973896964E1,-1.032619095E1,-3.241822052E1,-2.046312571E0
1.975563558E1,-9.253736496E0,-3.062944412E1,1.655146241E0
1.977230152E1,-6.687679768E0,-2.886297226E1,4.840231419E0
1.978896745E1,-3.443447590E0,-2.720554924E1,4.739816666E0
1.980563339E1,3.412098885E-1,-2.490658951E1,3.016753435E0
1.982229933E1,9.109711647E-1,-2.207519150E1,-2.254214287E0
1.983896527E1,1.411852837E-1,-2.017499733E1,-7.714347839E0
1.985563120E1,-1.410703659E-1,-2.019229317E1,-7.983627319E0
1.987229714E1,4.204330444E0,-2.021120071E1,-5.070704460E0
1.988896308E1,2.568375778E1,-1.878566170E1,5.537378788E-1
1.990562902E1,6.252809143E1,-6.196599007E0,1.853580856E1
1.992229495E1,6.763208008E1,1.020456791E1,3.416762924E1
1.993896089E1,4.446784592E1,1.474823666E1,3.386902237E1
1.995562683E1,2.382921600E1,1.249298668E1,1.997186089E1
1.997229277E1,1.170496941E1,1.131122589E1,1.882760048E0
1.998895870E1,2.595035553E0,1.026031685E1,-7.548381329E0
2.000562464E1,-4.265337467E0,9.332937241E0,-6.155364513E0
2.002229058E1,-8.159006119E0,8.985811234E0,-2.568903446E0
2.003895652E1,-1.191356564E1,9.337512016E0,-2.760796547E0
2.005562245E1,-1.549037743E1,1.096296787E1,-4.427175045E0
2.007228839E1,-1.596384144E1,1.340705872E1,-5.767284393E0
2.008895433E1,-1.186372471E1,1.824302483E1,-4.415911674E0
2.010562027E1,-5.860371590E0,2.380209541E1,-1.574795842E0
2.012228620E1,-1.050384521E0,2.815996552E1,2.189905167E0
2.013895214E1,-1.478776932E-1,2.851263618E1,4.058119774E0
2.015561808E1,-3.148939610E0,2.382406044E1,6.180945873E0
2.017228402E1,-8.251533508E0,1.768796158E1,7.934648991E0
2.018894995E1,-1.107587624E1,1.297417831E1,1.013341331E1
2.020561589E1,-9.333337784E0,9.104500771E0,1.255247307E1
2.022228183E1,-5.993721008E0,5.731278419E0,1.813032532E1
2.023894777E1,3.893936157E0,2.778203011E0,2.471763229E1
2.025561370E1,2.055651283E1,-3.135690689E-1,3.424865341E1
2.027227964E1,3.969781876E1,3.129128456E0,3.444003677E1
2.028894558E1,5.899977875E1,3.701795578E0,2.983255768E1
2.030561152E1,5.735115814E1,-5.063399315E0,2.959206772E1
2.032227745E1,3.967826080E1,-1.514896965E1,2.739405060E1
2.033894339E1,2.843886185E1,-1.973039436E1,1.521521187E1
2.035560933E1,2.768027496E1,-2.380369949E1,1.068317175E0
2.037227527E1,2.225528145E1,-2.647866440E1,-8.609335899E0
2.038894120E1,1.459327316E1,-2.755866051E1,-1.112659836E1
2.040560714E1,1.020322609E1,-3.007631493E1,-8.378847122E0
2.042227308E1,5.274361610E0,-3.336100769E1,-6.816211700E0
2.043893902E1,-2.057038784E0,-3.407808304E1,-9.194099426E0
2.045560495E1,-8.109774590E0,-3.384867096E1,-1.410720921E1
2.047227089E1,-1.142757320E1,-3.387931061E1,-1.664863968E1
2.048893683E1,-1.115608597E1,-3.534624100E1,-1.402960014E1
2.050560277E1,-1.176115227E1,-3.532639694E1,-8.534421921E0
2.052226870E1,-1.425761890E1,-3.389760971E1,-5.155072212E0
2.053893464E1,-1.594028187E1,-3.181443024E1,-2.881680250E0
2.055560058E1,-1.533175659E1,-2.955209160E1,-1.607043266E0
2.057226652E1,-1.065777588E1,-2.731098938E1,-1.962848186E0
2.058893245E1,-1.509672165E0,-2.648579025E1,-5.106519222E0
2.060559839E1,1.326364803E1,-2.625355721E1,-8.589074135E0
2.062226433E1,3.805677032E1,-1.725083542E1,-4.451245070E-3
2.063893027E1,5.991904068E1,-3.800629616E0,2.163826752E1
2.065559620E1,5.466087723E1,5.476121902E0,3.962532425E1
2.067226214E1,3.875144577E1,9.175025940E0,4.482983780E1
2.068892808E1,2.269448471E1,1.037072945E1,2.748875427E1
2.070559402E1,1.396807861E1,1.019079399E1,4.118559837E0
2.072225995E1,6.397668839E0,9.687614441E0,-8.258720398E0
2.073892589E1,-8.067483902E-1,8.997835159E0,-6.962182999E0
2.075559183E1,-5.343510151E0,8.924892426E0,2.423807383E-1
2.077225777E1,-9.219661713E0,1.024175644E1,5.603100777E0
2.078892370E1,-1.291053581E1,1.269465446E1,7.173861027E0
2.080558964E1,-1.563551331E1,1.561760235E1,5.854633808E0
2.082225558E1,-1.663117599E1,1.988940239E1,5.145686150E0
2.083892152E1,-1.409901810E1,2.279463005E1,4.812654018E0
2.085558745E1,-8.989005089E0,2.409560776E1,5.947276115E0
2.087225339E1,-5.591524124E0,2.314034843E1,7.848408699E0
2.088891933E1,-4.895339966E0,2.018275070E1,9.646559715E0
2.090558527E1,-4.427863121E0,1.615800476E1,1.014252853E1
2.092225120E1,-2.506970406E0,1.247130108E1,8.779243469E0
2.093891714E1,1.026395798E0,9.520019531E0,7.850670338E0
2.095558308E1,5.621312141E0,6.837307453E0,9.315685272E0
2.097224902E1,1.321406841E1,3.822200298E0,1.649937248E1
2.098891495E1,2.736249733E1,1.769751549E0,2.439323235E1
2.100558089E1,4.582966614E1,7.395117283E-1,2.538085175E1
2.102224683E1,5.313432312E1,-3.973731518E0,2.226936531E1
2.103891277E1,4.262265396E1,-1.361134338E1,2.042680359E1
2.105557870E1,2.649059296E1,-1.973084831E1,1.729183960E1
2.107224464E1,1.771321487E1,-2.195778084E1,1.151771164E1
2.108891058E1,1.483950710E1,-2.309627151E1,5.107217789E0
2.110557652E1,1.066505814E1,-2.290085793E1,3.607629538E-1
2.112224245E1,5.113441467E0,-2.234746170E1,-1.180580378E0
2.113890839E1,1.040423393E0,-2.188183212E1,-5.423164368E-1
2.115557433E1,-8.062672615E-1,-2.225183868E1,-3.252336979E-1
2.117224027E1,-2.063537598E0,-2.357289124E1,-1.223923206E0
2.118890620E1,-4.871963978E0,-2.500042152E1,-3.339946747E0
2.120557214E1,-9.123559952E0,-2.623716164E1,-4.982394695E0
2.122223808E1,-1.295719719E1,-2.793227959E1,-5.414711952E0
2.123890402E1,-1.543388081E1,-2.887223816E1,-2.080168962E0
2.125556995E1,-1.745994949E1,-2.925759697E1,2.199348688E0
2.127223589E1,-1.879104996E1,-2.852474976E1,5.607191563E0
2.128890183E1,-1.891232300E1,-2.736694145E1,7.507827759E0
2.130556777E1,-1.778324127E1,-2.592126465E1,7.106221199E0
2.132223370E1,-1.210457611E1,-2.581634331E1,4.548929214E0
2.133889964E1,2.921099186E0,-2.777695465E1,-2.866788149E0
2.135556558E1,2.666533279E1,-1.593564796E1,-1.263302040E1
2.137223152E1,6.131558990E1,-3.155758381E-1,-9.034388542E0
2.138889745E1,6.860431671E1,7.544549942E0,2.728507519E0
2.140556339E1,5.074991608E1,1.249712181E1,3.038838577E1
2.142222933E1,2.480084229E1,1.424585342E1,3.249304962E1
2.143889527E1,9.543312073E0,1.092837524E1,1.144795322E1
2.145556120E1,1.129222870E0,8.613893509E0,-4.157072067E0
2.147222714E1,-4.467513561E0,7.418769836E0,-7.788365364E0
2.148889308E1,-7.587495804E0,6.015476227E0,-4.594180107E0
2.150555902E1,-8.971603394E0,4.516252518E0,8.266108036E-1
2.152222495E1,-9.908916473E0,4.255166054E0,6.728518486E0
2.153889089E1,-1.209814739E1,4.129271030E0,7.997681618E0
2.155555683E1,-1.515037155E1,3.484906435E0,4.729027748E0
2.157222277E1,-1.739425468E1,2.911055803E0,1.558888197E0
2.158888870E1,-1.880512619E1,2.868564606E0,-3.265562057E-1
2.160555464E1,-1.984352112E1,2.840673923E0,-2.107019901E0
2.162222058E1,-2.062707329E1,2.326067209E0,-3.462152481E0
2.163888652E1,-2.176106071E1,1.869241238E0,-4.380416870E0
2.165555245E1,-2.326638794E1,1.738587379E0,-3.992264271E0
2.167221839E1,-2.546893883E1,2.510891914E0,-1.395712852E0
2.168888433E1,-2.593017578E1,3.896083117E0,4.027464390E0
2.170555027E1,-6.330377102E0,3.550868034E0,9.228069305E0
2.172221620E1,3.376055908E1,2.345014811E0,1.471216583E1
2.173888214E1,4.550140381E1,6.063077927E0,2.001247787E1
2.175554808E1,3.477346802E1,1.158740425E1,2.954158020E1
2.177221402E1,3.749633408E1,8.962274551E0,3.184271049E1
2.178887995E1,4.238521957E1,-1.024233103E0,2.697438431E1
2.180554589E1,2.932070923E1,-7.051421165E0,1.809510231E1
2.182221183E1,1.624248505E1,-1.154295731E1,9.198719025E0
2.183887777E1,1.046173859E1,-1.387975883E1,1.621358871E0
2.185554370E1,7.488605499E0,-1.465824032E1,-4.692524910E0
2.187220964E1,4.569490433E0,-1.432801437E1,-8.454433441E0
2.188887558E1,1.314064026E0,-1.465742207E1,-9.805418015E0
2.190554152E1,-2.405667305E0,-1.525460434E1,-9.758687973E0
2.192220745E1,-6.107670784E0,-1.510779190E1,-8.705763817E0
2.193887339E1,-8.979470253E0,-1.486441231E1,-7.575605869E0
2.195553933E1,-1.105835342E1,-1.451887703E1,-7.245697975E0
2.197220527E1,-1.262059975E1,-1.425572014E1,-7.254032612E0
2.198887120E1,-1.370748615E1,-1.382797432E1,-6.752881527E0
2.200553714E1,-1.431578636E1,-1.322696877E1,-5.656607628E0
2.202220308E1,-1.411863708E1,-1.247678566E1,-3.111422539E0
2.203886902E1,-1.326660252E1,-1.224147415E1,1.477928162E-1
2.205553495E1,-1.107808304E1,-1.159266090E1,3.104447603E0
2.207220089E1,-4.173097134E0,-1.214797878E1,3.320209026E0
2.208886683E1,3.990140915E0,-1.323091507E1,-1.171852350E0
2.210553277E1,1.558278656E1,-1.260608673E0,2.975130081E0
2.212219870E1,4.032381821E1,7.326647758E0,6.566558838E0
2.213886464E1,5.237622070E1,6.525295258E0,-1.863491416E0
2.215553058E1,3.645835114E1,6.077142715E0,-3.500438213E0
2.217219652E1,1.386960602E1,2.041950226E0,-1.402016878E-1
2.218886245E1,-1.708887577E0,8.923122883E-1,2.597407341E0
2.220552839E1,-7.951104164E0,1.046392202E0,2.413788319E0
2.222219433E1,-9.514023781E0,9.354438782E-1,7.187553644E-1
2.223886027E1,-1.073174858E1,1.030406475E0,3.695338964E-1
2.225552620E1,-1.161311626E1,1.235421181E0,1.525575161E0
2.227219214E1,-1.225583553E1,1.510995626E0,2.501436472E0
2.228885808E1,-1.190282345E1,1.609022141E0,1.855656147E0
2.230552402E1,-1.174831295E1,1.366364956E0,-1.437937021E0
2.232218995E1,-1.109871292E1,9.136683941E-1,-6.384597778E0
2.233885589E1,-1.025336075E1,1.070875645E0,-1.088898087E1
2.235552183E1,-1.021297455E1,1.838891625E0,-1.306390190E1
2.237218777E1,-1.082574749E1,1.800353885E0,-1.267279816E1
2.238885370E1,-1.176044750E1,1.238674402E0,-1.003053761E1
2.240551964E1,-1.288448524E1,8.844643831E-1,-6.677884579E0
2.242218558E1,-1.330392075E1,2.843366861E-1,-4.472419739E0
2.243885152E1,-9.881628990E0,-1.883538365E0,-4.847786427E0
2.245551745E1,-2.092157364E0,-5.464523315E0,-7.559973240E0
2.247218339E1,7.297434330E0,-1.229544449E1,-8.469859123E0
2.248884933E1,1.256711578E1,-1.559584904E1,-2.513829708E0
2.250551526E1,1.245103073E1,-1.519478703E1,4.216144562E0
2.252218120E1,9.133550644E0,-1.745786095E1,7.655224800E0
2.253884714E1,6.575655937E0,-2.265191460E1,7.024009228E0
2.255551308E1,5.685990810E0,-2.664054108E1,3.008808136E0
2.257217902E1,7.075510025E0,-2.832191849E1,-4.036672592E0
2.258884495E1,6.639214516E0,-2.698120308E1,-6.938380718E0
2.260551089E1,1.775093555E0,-2.442164993E1,-3.195200920E0
2.262217683E1,-3.163346291E0,-2.199373436E1,1.911498308E0
2.263884276E1,-3.206428766E0,-2.018128967E1,4.082849979E0
2.265550870E1,1.977457523E0,-1.817817497E1,4.468350410E0
2.267217464E1,9.348545074E0,-1.554203987E1,4.695518494E0
2.268884058E1,1.410626411E1,-9.590810776E0,6.929107666E0
2.270550652E1,1.693201828E1,-2.834618568E0,8.592889786E0
2.272217245E1,1.463488388E1,2.206857681E0,9.102384567E0
2.273883839E1,8.959941864E0,3.153369904E0,1.152974701E1
2.275550433E1,4.982877254E0,3.323532343E0,1.756977463E1
2.277217026E1,2.653476000E0,3.376223326E0,2.107798958E1
2.278883620E1,9.854868650E-1,3.171846628E0,1.956845093E1
2.280550214E1,1.879383445E0,3.028023958E0,1.668801117E1
2.282216808E1,5.557164669E0,1.503658295E-2,1.641074371E1
2.283883402E1,5.417165756E0,-2.151525497E0,1.836559105E1
2.285549995E1,2.959794998E0,-8.560805321E-1,2.199629211E1
2.287216589E1,1.742985010E0,-1.086019039E0,2.316933250E1
2.288883183E1,3.171604872E0,-3.368297100E0,1.941756630E1
2.290549776E1,7.914721489E0,-6.208533287E0,1.240962887E1
2.292216370E1,1.291008472E1,-7.410428047E0,6.434697628E0
2.293882964E1,1.411145496E1,-8.658420563E0,3.262739420E0
2.295549558E1,1.056943512E1,-8.955315590E0,2.079604149E0
2.297216152E1,5.766506672E0,-7.878061771E0,2.592164516E0
2.298882745E1,1.696012020E0,-6.692932606E0,2.897363186E0
2.300549339E1,-4.291930199E-1,-4.424544811E0,-6.178565025E-1
2.302215933E1,1.103034973E0,-9.977807999E-1,-2.513029814E0
2.303882526E1,3.573199272E0,1.861612797E0,-4.604998589E0
2.305549120E1,5.288571358E0,4.250438690E0,-6.431129456E0
2.307215714E1,4.554529667E0,5.238194942E0,-7.219754219E0
2.308882308E1,1.597949028E0,7.123440742E0,-6.356478691E0
2.310548902E1,-8.665022850E-1,8.390072823E0,-6.840360165E0
2.312215495E1,-3.206060886E0,8.469215393E0,-1.086194038E1
2.313882089E1,-4.154139042E0,8.413645744E0,-1.200353622E1
2.315548683E1,-4.026622772E0,8.562005043E0,-7.159487724E0
2.317215276E1,-3.681309223E0,8.247421265E0,-2.650652409E0
2.318881870E1,-3.584311008E0,6.095554352E0,-6.779884100E-1
2.320548464E1,-2.264682293E0,7.239413261E-1,-7.716741562E-1
2.322215058E1,-1.765966415E-1,-5.909287453E0,7.120727301E-1
2.323881652E1,4.181938171E0,-8.353048325E0,9.043130875E0
2.325548245E1,1.639817047E1,-7.585440159E0,1.779899597E1
2.327214839E1,2.873033142E1,-1.144535923E1,1.719985008E1
2.328881433E1,3.206325531E1,-1.510638428E1,9.476530075E0
2.330548026E1,2.409157944E1,-1.782228279E1,1.500966787E0
2.332214620E1,1.306584072E1,-1.942165184E1,-1.923509121E0
2.333881214E1,4.320433617E0,-1.741968727E1,-2.842420101E0
2.335547808E1,2.032318115E-1,-1.520582867E1,-1.278906345E0
2.337214402E1,-2.454704762E0,-1.317255306E1,3.199031353E-1
2.338880995E1,-4.642858505E0,-1.220840168E1,-8.133214712E-1
2.340547589E1,-6.911181450E0,-1.108961964E1,-2.966332436E0
2.342214183E1,-9.079520226E0,-1.019174767E1,-4.888798237E0
2.343880776E1,-1.183223629E1,-9.089711189E0,-6.631138325E0
2.345547370E1,-1.420232773E1,-7.911581516E0,-7.637810707E0
2.347213964E1,-1.577360249E1,-6.659374714E0,-7.676081657E0
2.348880558E1,-1.646566200E1,-5.963579655E0,-7.260340214E0
2.350547152E1,-1.633844566E1,-5.530641556E0,-7.089697361E0
2.352213745E1,-1.567722607E1,-5.013430595E0,-6.091373920E0
2.353880339E1,-1.487720490E1,-4.795132637E0,-4.756389618E0
2.355546933E1,-1.386652851E1,-4.989743233E0,-3.592810154E0
2.357213526E1,-1.264107227E1,-5.164305210E0,-1.880465746E0
2.358880120E1,-9.568007469E0,-7.264946938E0,-1.118415117E0
2.360546714E1,-3.043300629E0,-1.291695118E1,-7.125579119E-1
2.362213308E1,4.688778877E0,-1.781011963E1,8.015623093E-1
2.363879902E1,1.240651512E1,-1.318209362E1,6.824278355E0
2.365546495E1,2.784199142E1,-6.971424103E0,1.154013634E1
2.367213089E1,4.183392715E1,-5.246122360E0,7.325469494E0
2.368879683E1,3.425712585E1,-4.383265972E0,5.071431160E0
2.370546276E1,1.404025173E1,-2.648316622E0,7.381429195E0
2.372212870E1,1.099905014E0,-8.551084995E-1,8.427933693E0
2.373879464E1,-3.635042667E0,1.936902165E0,6.674316406E0
2.375546058E1,-4.134622574E0,3.159612179E0,1.655354023E0
2.377212652E1,-3.697215557E0,4.179315567E0,-2.564277411E0
2.378879245E1,-3.284584999E0,4.679135323E0,-5.100673199E0
2.380545839E1,-4.406969070E0,4.868314743E0,-5.308379650E0
2.382212433E1,-6.336932182E0,4.905031204E0,-4.006114006E0
2.383879026E1,-7.246381760E0,5.208516598E0,-2.347141743E0
2.385545620E1,-7.836835384E0,6.086905479E0,-2.049258947E-1
2.387212214E1,-8.577438354E0,7.229223251E0,2.424089432E0
2.388878808E1,-9.428447723E0,8.394754410E0,4.071074486E0
2.390545402E1,-9.636298180E0,8.872103691E0,3.336670160E0
2.392211995E1,-9.943342209E0,8.802772522E0,1.256944180E0
2.393878589E1,-1.106944275E1,8.590091705E0,-9.510043859E-1
2.395545183E1,-1.210942650E1,7.892562866E0,-2.314387798E0
2.397211776E1,-1.129469681E1,6.515945435E0,-2.425227165E0
2.398878370E1,-8.273782730E0,4.431884289E0,-3.720575571E-1
2.400544964E1,7.241706848E-1,1.463280916E0,5.126640797E0
2.402211558E1,1.552227116E1,7.974771261E-1,1.209880638E1
2.403878152E1,3.167934036E1,5.578484535E-1,1.589605331E1
2.405544745E1,3.408253860E1,1.559212446E0,1.443286419E1
2.407211339E1,2.659144211E1,-3.364252090E0,1.082065678E1
2.408877933E1,1.466531277E1,-7.438427925E0,8.350716591E0
2.410544526E1,5.723813057E0,-8.008837700E0,5.395770550E0
2.412211120E1,2.381202698E0,-7.646251678E0,1.324359894E0
2.413877714E1,9.127674103E-1,-7.709153175E0,-2.639770031E0
2.415544308E1,-5.273246765E-1,-7.458214760E0,-5.499253750E0
2.417210902E1,-7.558965683E-1,-6.933572769E0,-7.313782692E0
2.418877495E1,-1.649878979E0,-6.023523808E0,-8.253009796E0
2.420544089E1,-3.050554752E0,-5.090109825E0,-9.027135849E0
2.422210683E1,-4.388062954E0,-4.238555908E0,-9.384431839E0
2.423877276E1,-5.661730766E0,-3.649025440E0,-9.185586929E0
2.425543870E1,-6.860587597E0,-2.964106083E0,-9.005059242E0
2.427210464E1,-6.268436432E0,-2.624882698E0,-8.790034294E0
2.428877058E1,-5.776499271E0,-1.965402842E0,-8.192180634E0
2.430543652E1,-5.762707710E0,-1.449663520E0,-7.501311302E0
2.432210245E1,-5.386513233E0,-2.030191183E0,-6.953837395E0
2.433876839E1,-3.839239836E0,-1.685964823E0,-4.748715401E0
2.435543433E1,1.497532368E0,-4.145070076E0,-1.030127048E0
2.437210026E1,6.022460461E0,-7.449259758E0,3.198740482E0
2.438876620E1,6.459810734E0,-2.973322868E0,7.309920311E0
2.440543214E1,6.439295769E0,-7.507329583E-1,9.654558182E0
2.442209808E1,7.781165123E0,-1.472615957E0,1.270377064E1
2.443876402E1,9.146631241E0,-2.906502962E0,1.159533501E1
2.445542995E1,7.180856705E0,-2.520179033E0,5.435300827E0
2.447209589E1,5.075263977E0,-1.297767639E0,-8.540091515E-1
2.448876183E1,3.459940434E0,-9.155102372E-1,-4.359468937E0
2.450542776E1,7.107796669E-1,-1.125300407E0,-4.892811775E0
2.452209370E1,-2.796918392E0,-1.268467069E0,-2.139553547E0
2.453875964E1,-4.487837315E0,-5.497002006E-1,-7.079524994E-1
2.455542558E1,-3.763696432E0,7.178313732E-1,-1.388443470E0
2.457209152E1,-2.371392250E0,1.461754441E0,-3.348372459E0
2.458875745E1,3.660502434E-1,1.251605034E0,-3.802911282E0
2.460542339E1,-6.644139290E-1,1.138611674E0,-3.542054653E0
2.462208933E1,-2.122685671E0,7.379791141E-1,-3.675744534E0
2.463875526E1,-2.089457750E0,1.329631329E0,-2.900880337E0
2.465542120E1,-3.493596554E0,9.432799816E-1,-2.359105587E0
2.467208714E1,-3.032634258E0,2.623244524E-1,-1.796743870E0
2.468875308E1,-9.959143400E-1,1.798875481E-1,-2.776813507E0
2.470541902E1,-5.994193256E-2,-4.017003477E-1,-3.811547756E0
2.472208495E1,-4.485512972E-1,-8.650819659E-1,-5.398091793E0
2.473875089E1,-6.027525663E-1,3.235039711E-1,-2.824546337E0
2.475541683E1,1.006650209E0,1.671781540E0,-2.078483105E0
2.477208276E1,2.252678394E0,1.006117821E0,7.273552895E0
2.478874870E1,1.047906041E0,-2.216854095E0,1.344027519E0
2.480541464E1,2.138246298E0,-3.813906670E0,2.482026100E0
2.482208058E1,3.115567684E0,-1.139365673E0,1.735649109E0
2.483874652E1,3.229204655E0,-2.044734478E0,2.511549950E0
2.485541245E1,2.762795925E0,-2.073033571E0,5.899409294E0
2.487207839E1,2.089776278E0,-1.637054086E0,6.375916481E0
2.488874433E1,-3.529419303E-1,-2.295866966E0,6.174188614E0
2.490541026E1,-1.403916836E0,-2.022135973E0,5.481787682E0
2.492207620E1,1.142027378E0,-2.393502951E0,5.392716408E0
2.493874214E1,2.257608891E0,-2.722095728E0,3.773189545E0
2.495540808E1,2.846851349E0,-1.958032608E0,1.042336464E0
2.497207402E1,-3.952447176E-1,-1.406225801E0,-3.999996185E-1
2.498873995E1,-3.549399376E0,-1.093188882E0,-1.350254059E0
2.500540589E1,-3.062131643E0,-1.519002676E0,-2.149868011E-1
2.502207183E1,-1.700410843E-1,-1.300381899E0,7.235555649E-1
2.503873776E1,1.118049622E-1,-8.477205038E-1,-6.016349792E-2
2.505540370E1,-3.742188215E-1,-1.472413778E0,-1.759995937E0
2.507206964E1,-9.095667601E-1,-1.528555393E0,-4.081349850E0
2.508873558E1,-1.245955467E0,-1.375336885E0,-5.075296402E0
2.510540152E1,-4.571691751E-1,-1.124682069E0,-4.625763416E0
2.512206745E1,-1.894636154E-1,-1.963779926E-1,-2.174039841E0
2.513873339E1,-3.294630051E-1,-1.139588356E-1,4.877643585E-1
2.515539933E1,-3.506268263E-1,-2.758193016E-1,5.646696091E-1
2.517206526E1,2.164131403E-1,-1.205495477E0,-3.951139450E-1
2.518873120E1,-7.419490814E-1,-1.016676545E0,-7.477359772E-1
2.520539714E1,-5.644853115E-1,-4.377205372E-1,1.680729866E0
2.522206308E1,-4.466984272E-1,-6.547331810E-2,3.975755692E0
2.523872902E1,-1.414451599E0,-2.933406830E-2,3.350728989E0
2.525539495E1,-2.740175486E0,-1.820611954E-2,-2.136828899E0
2.527206089E1,-1.197468519E0,-1.712274551E-2,5.147323608E-1
2.528872683E1,-5.693522692E-1,3.777165413E-1,1.751152992E0
2.530539276E1,-1.153555155E0,-5.679798126E-2,1.086917877E0
2.532205870E1,-2.987328053E0,-1.671710014E-1,-1.192069054E0
