"Time (s)","Acceleration x (m/s^2)","Acceleration y (m/s^2)","Acceleration z (m/s^2)"
1.130339700E-2,-3.160918713E0,5.861518383E0,6.933203697E0
2.796933500E-2,-2.717050076E0,5.732604980E0,7.829016685E0
4.463527200E-2,-2.291725874E0,5.425426006E0,8.379066467E0
6.130121000E-2,-2.402693033E0,5.474180222E0,8.521439552E0
7.796714700E-2,-2.614457846E0,5.499902725E0,7.846065521E0
9.463308500E-2,-2.806481838E0,5.665904999E0,7.603493214E0
1.112990220E-1,-2.898605585E0,5.743671417E0,7.765307903E0
1.279649600E-1,-3.018844843E0,5.556134224E0,7.795516968E0
1.446308970E-1,-2.771187782E0,5.556433201E0,7.723732471E0
1.612968350E-1,-2.441277266E0,5.670989513E0,7.629215717E0
1.779627720E-1,-2.475674152E0,5.508576870E0,8.004889488E0
1.946287100E-1,-2.722733021E0,5.539384365E0,8.146065712E0
2.112946470E-1,-2.970689297E0,5.776872158E0,8.345566750E0
2.279605850E-1,-2.932703257E0,5.783153057E0,8.362615585E0
2.446265220E-1,-2.793919563E0,5.879165173E0,8.394021988E0
2.612924600E-1,-2.427817583E0,5.798108578E0,8.348258972E0
2.779583970E-1,-2.368894339E0,5.668596745E0,8.622835159E0
2.946243350E-1,-3.153141975E0,6.584449768E0,9.386445045E0
3.112902720E-1,-3.977469444E0,7.094419956E0,8.968897820E0
3.279562100E-1,-3.241676569E0,6.765706062E0,7.289734364E0
3.446221470E-1,-9.260223508E-1,5.422734261E0,8.230113029E0
3.612880850E-1,-7.537391037E-2,5.395814896E0,8.818149567E0
3.779540220E-1,-5.377869010E-1,5.254339218E0,8.539685249E0
3.946199600E-1,-1.077966571E0,4.978566647E0,7.198507786E0
4.112858970E-1,-1.409073472E0,5.266004562E0,5.581857204E0
4.279518350E-1,-1.304686546E0,5.844768524E0,3.934099436E0
4.446177720E-1,-1.867897153E0,5.986543179E0,4.456333160E0
4.612837100E-1,-2.548954248E0,6.039484501E0,6.684948444E0
4.779496470E-1,-4.890331328E-1,5.300700188E0,6.986742973E0
4.946155850E-1,5.252245665E-1,4.166801453E0,8.431110382E0
5.112815220E-1,-3.696911037E-1,5.462514877E0,6.126523495E0
5.279474600E-1,1.884347796E-1,5.135296345E0,8.264211655E0
5.446133970E-1,6.807580590E-1,4.900201797E0,8.532207489E0
5.612793350E-1,-6.113662124E-1,5.423930645E0,8.903095245E0
5.779452720E-1,-1.388435364E0,5.531009674E0,8.311469078E0
5.946112100E-1,-1.534397453E-1,4.664807796E0,8.460422516E0
6.112771470E-1,1.301097274E-1,4.721338272E0,8.648259163E0
6.279430850E-1,1.393819153E-1,5.018646240E0,9.005088806E0
6.446090220E-1,1.639083475E-1,4.623830795E0,9.301200867E0
6.612749600E-1,-5.288137794E-1,5.063810825E0,8.669795036E0
6.779408970E-1,-4.076771438E-1,5.070092201E0,8.251050949E0
6.946068350E-1,-4.815555736E-2,5.158327579E0,7.802396297E0
7.112727720E-1,5.838487148E-1,5.213063240E0,7.855337620E0
7.279387100E-1,9.269196987E-1,4.825126648E0,7.582555771E0
7.446046470E-1,6.625127792E-1,5.345565796E0,7.511369228E0
7.612705850E-1,6.394818425E-1,5.095814705E0,7.806882858E0
7.779365220E-1,1.172183990E0,5.185545921E0,8.449056625E0
7.946024600E-1,1.703091502E0,5.251049519E0,9.415757179E0
8.112683970E-1,1.884646893E0,5.143372059E0,1.011715317E1
8.279343350E-1,1.244566917E0,5.110770226E0,9.314660072E0
8.446002720E-1,2.727817893E-1,5.463113308E0,8.278866768E0
8.612662100E-1,-2.033899166E-2,5.448756218E0,8.075178146E0
8.779321470E-1,6.131608039E-2,5.251647472E0,8.264211655E0
8.945980850E-1,4.836492836E-1,5.659923077E0,8.609675407E0
9.112640220E-1,1.284945726E0,5.319244862E0,8.736793518E0
9.279299600E-1,1.413560033E0,5.418247700E0,8.461020470E0
9.445958970E-1,1.690828323E0,5.438287735E0,7.941180229E0
9.612618350E-1,1.389033556E0,5.865406513E0,8.369495392E0
9.779277720E-1,6.439684033E-1,5.844170094E0,8.193024635E0
9.945937100E-1,6.789634377E-2,6.236593246E0,8.284251213E0
1.011259647E0,2.048854381E-1,6.161518097E0,8.410472870E0
1.027925585E0,9.385846853E-1,5.920740604E0,9.022735596E0
1.044591522E0,5.279164910E-1,5.718846321E0,9.122037888E0
1.061257460E0,2.117647976E-1,6.106184483E0,8.590532303E0
1.077923397E0,1.237388372E0,5.749354839E0,8.175676346E0
1.094589335E0,7.172485590E-1,5.813961029E0,8.093124390E0
1.111255272E0,9.020941257E-1,5.335994720E0,7.965706348E0
1.127921210E0,1.055832982E0,4.703989983E0,7.731808186E0
1.144587147E0,1.363609791E0,4.328915119E0,8.236693382E0
1.161253085E0,1.052243710E0,4.313661098E0,8.502297401E0
1.177919022E0,-5.174478889E-2,4.902893543E0,9.060722351E0
1.194584960E0,2.111666054E-1,4.625924587E0,8.465507507E0
1.211250897E0,6.029912829E-1,4.402793884E0,8.347960472E0
1.227916835E0,6.729813814E-1,4.462913513E0,8.004590034E0
1.244582772E0,6.496513486E-1,4.941178799E0,7.716254711E0
1.261248710E0,2.503490746E-1,5.010271549E0,8.177471161E0
1.277914647E0,6.490531564E-2,4.867599487E0,8.826225281E0
1.294580585E0,2.542374134E-1,4.941477776E0,9.211171150E0
1.311246522E0,5.688936114E-1,5.262714386E0,8.608778000E0
1.327912460E0,8.620143533E-1,5.627021313E0,7.650452137E0
1.344578397E0,1.484447360E0,6.110371590E0,7.336992264E0
1.361244335E0,1.550848126E0,6.078666687E0,7.708178997E0
1.377910272E0,1.336092353E0,6.535995007E0,7.956135273E0
1.394576210E0,1.165304661E0,6.062216282E0,8.391031265E0
1.411242147E0,4.259224236E-1,6.242575169E0,9.074481010E0
1.427908085E0,6.574280262E-1,6.041877270E0,9.462118149E0
1.444574022E0,1.604387641E0,5.481956482E0,9.516554832E0
1.461239960E0,1.860120535E0,5.314758301E0,9.578767776E0
1.477905897E0,1.397109270E0,5.376672268E0,8.379963875E0
1.494571835E0,7.387840152E-1,5.333900928E0,8.251648903E0
1.511237772E0,6.565307379E-1,4.924129963E0,8.018648148E0
1.527903710E0,1.103390336E0,4.529613495E0,7.720143318E0
1.544569647E0,2.277069807E0,4.759324074E0,8.056933403E0
1.561235585E0,2.678465843E0,5.282454967E0,7.635198116E0
1.577901522E0,2.381456852E0,5.592325687E0,7.309474945E0
1.594567460E0,2.141277075E0,5.659025669E0,6.477969170E0
1.611233397E0,2.586940289E0,5.359324455E0,7.144669533E0
1.627899335E0,2.689233541E0,5.287539959E0,7.841877937E0
1.644565272E0,2.611466885E0,5.566602707E0,7.642675400E0
1.661231210E0,3.166003466E0,5.863312721E0,7.781758308E0
1.677897147E0,4.136891365E0,6.055336952E0,7.979764462E0
1.694563085E0,3.759124279E0,6.073881149E0,7.885846138E0
1.711229022E0,2.770589590E0,5.821438313E0,7.973184109E0
1.727894960E0,2.924029350E0,5.852844238E0,8.040781021E0
1.744560897E0,3.506681681E0,5.993422508E0,7.773084164E0
1.761226835E0,4.122833252E0,6.279065609E0,7.294519901E0
1.777892772E0,4.981856823E0,6.609574318E0,5.846562862E0
1.794558710E0,5.038387299E0,6.786643028E0,4.466203690E0
1.811224647E0,4.692026138E0,6.634698868E0,4.451248169E0
1.827890585E0,4.762614250E0,6.249454498E0,5.152943611E0
1.844556522E0,4.861916542E0,5.982355595E0,5.523232937E0
1.861222460E0,4.964209557E0,5.978467464E0,5.588736534E0
1.877888397E0,5.444269657E0,5.913861275E0,5.561817169E0
1.894554335E0,5.495117188E0,5.780162334E0,5.033003330E0
1.911220272E0,5.255535603E0,5.521737576E0,4.532903194E0
1.927886210E0,5.254937649E0,5.130211830E0,4.763810635E0
1.944552147E0,5.395814896E0,4.672584534E0,5.190032482E0
1.961218085E0,5.600700378E0,4.735096931E0,5.918646812E0
1.977884022E0,6.724429607E0,4.764409065E0,6.583253384E0
1.994549960E0,7.943572998E0,4.832903385E0,6.630212307E0
2.011215897E0,7.569993496E0,4.906782150E0,5.870192051E0
2.027881835E0,6.101996899E0,5.009972572E0,5.222335339E0
2.044547772E0,5.578866005E0,5.041079044E0,4.945964336E0
2.061213710E0,6.176473618E0,4.947759151E0,4.374678135E0
2.077879647E0,6.489335060E0,4.858327389E0,4.058227062E0
2.094545585E0,6.002395630E0,5.055436134E0,3.948157310E0
2.111211522E0,6.000600815E0,5.124528885E0,3.886542082E0
2.127877460E0,6.163013935E0,5.037190914E0,3.859024763E0
2.144543397E0,5.936892033E0,5.167599678E0,3.675973892E0
2.161209335E0,5.761318684E0,5.267499924E0,3.246163130E0
2.177875272E0,5.687440395E0,5.438885689E0,2.644966364E0
2.194541210E0,5.646463394E0,5.723332882E0,1.803889155E0
2.211207147E0,5.752644539E0,6.089733601E0,1.662114382E0
2.227873085E0,5.962913990E0,6.157330990E0,1.756929994E0
2.244539022E0,6.124130249E0,7.017849922E0,2.892922640E0
2.261204960E0,6.691229343E0,7.393522739E0,3.480360508E0
2.277870897E0,7.180860519E0,7.902296543E0,3.610470295E0
2.294536835E0,7.867002487E0,8.628518105E0,3.278167009E0
2.311202772E0,8.866005898E0,9.004490852E0,3.394817114E0
2.327868710E0,9.444171906E0,8.930313110E0,4.143770695E0
2.344534647E0,9.041280746E0,8.836693764E0,4.966602325E0
2.361200585E0,8.356932640E0,8.319246292E0,5.221437931E0
2.377866522E0,7.535297394E0,7.855038643E0,5.172983646E0
2.394532460E0,6.941877365E0,7.473084450E0,4.845166683E0
2.411198397E0,6.547659874E0,7.028916359E0,3.961317778E0
2.427864335E0,6.425326824E0,6.656533718E0,3.375973701E0
2.444530272E0,6.472884178E0,6.447759628E0,3.222832918E0
2.461196210E0,6.565307140E0,6.238387585E0,3.193820000E0
2.477862147E0,6.646663189E0,6.098407745E0,3.302693367E0
2.494528085E0,6.831807613E0,5.892923832E0,3.214458227E0
2.511194022E0,6.988836765E0,5.841478348E0,3.064607620E0
2.527859960E0,6.960422039E0,5.816951752E0,2.603390932E0
2.544525897E0,7.198208809E0,5.851049423E0,2.525026083E0
2.561191835E0,7.672585964E0,5.981757641E0,3.033201694E0
2.577857772E0,8.367700577E0,6.146862507E0,3.536890984E0
2.594523710E0,9.092427254E0,6.196513176E0,3.946960926E0
2.611189647E0,9.543174744E0,6.207580090E0,3.856631994E0
2.627855585E0,9.075676918E0,6.145067692E0,3.479164124E0
2.644521522E0,8.287839890E0,5.894718647E0,3.218346357E0
2.661187460E0,7.717152119E0,5.662614822E0,3.398107290E0
2.677853397E0,7.492526054E0,5.316552639E0,3.730709553E0
2.694519335E0,7.317550659E0,5.153841019E0,3.892225027E0
2.711185272E0,6.963412762E0,5.149952412E0,3.786641836E0
2.727851210E0,6.637989044E0,5.170291424E0,3.436093330E0
2.744517147E0,6.608676910E0,5.072484970E0,3.386442184E0
2.761183085E0,6.850052834E0,5.048556805E0,3.501596928E0
2.777849022E0,7.035496712E0,5.082953453E0,3.486641645E0
2.794514960E0,7.204190731E0,5.201098919E0,3.312862873E0
2.811180897E0,7.428218842E0,5.329414368E0,3.136691332E0
2.827846835E0,7.119245529E0,5.454140186E0,3.067598581E0
2.844512772E0,6.747759819E0,5.521438122E0,3.489333630E0
2.861178710E0,6.652346134E0,5.725127220E0,4.044767380E0
2.877844647E0,6.925426960E0,5.852844238E0,4.269991875E0
2.894510585E0,7.592127323E0,6.004489422E0,4.206283092E0
2.911176522E0,7.469494820E0,6.132804394E0,3.853640795E0
2.927842460E0,6.738487720E0,6.189633846E0,3.828516245E0
2.944508397E0,6.196214199E0,6.149554253E0,3.954737663E0
2.961174335E0,6.375376701E0,6.127719879E0,4.063910007E0
2.977840272E0,6.791728020E0,6.207580090E0,4.077968121E0
2.994506210E0,7.106683254E0,6.273981094E0,4.042674065E0
3.011172147E0,7.040282249E0,6.271887302E0,4.011866093E0
3.027838085E0,6.638587475E0,6.167500496E0,4.011866093E0
3.044504022E0,6.159125328E0,6.088836193E0,3.904787540E0
3.061169960E0,5.865705490E0,6.046363831E0,3.906282902E0
3.077835897E0,6.093322754E0,6.116652966E0,4.115654945E0
3.094501835E0,6.516553402E0,6.057729721E0,4.047758579E0
3.111167772E0,6.695715904E0,6.152245998E0,3.943072557E0
3.127833710E0,6.437889099E0,6.183651924E0,3.800998688E0
3.144499647E0,6.075077534E0,6.233004093E0,3.763012648E0
3.161165585E0,5.962016582E0,6.330212116E0,3.833899975E0
3.177831522E0,6.177670002E0,6.379265308E0,3.704388618E0
3.194497460E0,6.202794552E0,6.262016773E0,3.761816263E0
3.211163397E0,6.508178711E0,6.456433773E0,3.983152390E0
3.227829335E0,6.924529552E0,6.386742592E0,3.734897137E0
3.244495272E0,6.710670948E0,6.459723949E0,3.409772158E0
3.261161210E0,6.421139717E0,6.577570438E0,3.605086327E0
3.277827147E0,6.334100723E0,6.565606117E0,3.863212109E0
3.294493085E0,6.374778748E0,6.532106876E0,4.019941807E0
3.311159022E0,6.435795784E0,6.546762943E0,4.162314892E0
3.327824960E0,6.290431499E0,6.612266064E0,4.144069672E0
3.344490897E0,6.344270229E0,6.477370739E0,3.878765583E0
3.361156835E0,6.527620316E0,6.422934055E0,3.760619879E0
3.377822772E0,6.308078766E0,6.413362980E0,3.713361740E0
3.394488710E0,6.038288116E0,6.475576401E0,3.990031719E0
3.411154647E0,6.077769279E0,6.480361938E0,4.155734539E0
3.427820585E0,6.397211552E0,6.515655994E0,4.147958279E0
3.444486522E0,6.495316982E0,6.537789822E0,3.951148272E0
3.461152460E0,6.465107918E0,6.562615395E0,3.879363775E0
3.477818397E0,6.544669151E0,6.537490368E0,3.760021687E0
3.494484335E0,6.328118801E0,6.439683914E0,3.750151396E0
3.511150272E0,6.073283195E0,6.429813385E0,3.864408493E0
3.527816210E0,6.046961784E0,6.307779789E0,4.116552353E0
3.544482147E0,6.174080849E0,6.327819347E0,4.263411522E0
3.561148085E0,6.597311020E0,6.423233509E0,4.103391647E0
3.577814022E0,6.715456963E0,6.534499645E0,3.873381615E0
3.594479960E0,6.604788780E0,6.406782627E0,3.787240028E0
3.611145897E0,6.334399700E0,6.309873104E0,4.083052635E0
3.627811835E0,6.054439545E0,6.289534092E0,4.270291328E0
3.644477772E0,5.897410393E0,6.375077724E0,4.347758770E0
3.661143710E0,6.177370548E0,6.287440777E0,4.086641788E0
3.677809647E0,6.515357018E0,6.318846226E0,3.849154234E0
3.694475585E0,6.442375660E0,6.357430458E0,3.538685560E0
3.711141522E0,6.065506458E0,6.401099682E0,3.509074450E0
3.727807460E0,5.895616055E0,6.443273067E0,3.564109325E0
3.744473397E0,6.048756599E0,6.421438694E0,3.755535126E0
3.761139335E0,6.346364021E0,6.365506649E0,3.934996843E0
3.777805272E0,6.321238995E0,6.398108482E0,4.148257256E0
3.794471210E0,6.247360706E0,6.414858341E0,4.082155228E0
3.811137147E0,6.316453457E0,6.474977970E0,3.943670750E0
3.827803085E0,6.470790863E0,6.503093719E0,3.920938969E0
3.844469022E0,6.540780544E0,6.541976929E0,4.130311012E0
3.861134960E0,6.648158550E0,6.470192432E0,4.238286972E0
3.877800897E0,6.544070721E0,6.440880299E0,4.306183338E0
3.894466835E0,6.330212116E0,6.418148518E0,4.121636868E0
3.911132772E0,6.278766632E0,6.416054726E0,3.909872293E0
3.927798710E0,6.365207195E0,6.472585201E0,3.588037491E0
3.944464647E0,6.514758587E0,6.429813385E0,3.632603884E0
3.961130585E0,6.608976364E0,6.377171516E0,3.821636915E0
3.977796522E0,6.240182400E0,6.445067883E0,3.308974504E0
3.994462460E0,6.177071571E0,6.324529171E0,3.690928936E0
4.011128397E0,6.215057850E0,6.301797390E0,4.495515347E0
4.027794335E0,6.703492641E0,6.337091446E0,4.879862785E0
4.044460272E0,7.028019428E0,6.225526333E0,4.781158924E0
4.061126210E0,6.540182590E0,6.233303070E0,4.637589455E0
4.077792147E0,6.198606968E0,6.265905380E0,4.428516388E0
4.094458085E0,6.188138485E0,6.198606968E0,4.331906319E0
4.111124022E0,6.193223000E0,6.385845661E0,4.182952881E0
4.127789960E0,6.351747513E0,6.461219311E0,3.960719585E0
4.144455897E0,6.506682873E0,6.469295025E0,4.068696022E0
4.161121835E0,6.391229153E0,6.509674072E0,4.218247414E0
4.177787772E0,6.210870266E0,6.506084919E0,4.331607342E0
4.194453710E0,6.103193283E0,6.558128834E0,4.280460835E0
4.211119647E0,6.100800514E0,6.562914371E0,4.206881523E0
4.227785585E0,6.137889385E0,6.562315941E0,4.260719776E0
4.244451522E0,6.266802311E0,6.524928093E0,4.430909157E0
4.261117460E0,6.249155521E0,6.462116718E0,4.502993107E0
4.277783397E0,6.075974941E0,6.457630157E0,4.452744007E0
4.294449335E0,6.065506458E0,6.481857300E0,4.405784607E0
4.311115272E0,6.147161484E0,6.457031727E0,4.421637058E0
4.327781210E0,5.949454308E0,6.467799664E0,4.408476830E0
4.344447147E0,5.850750446E0,6.375676155E0,4.261617184E0
4.361113085E0,5.749055386E0,6.362216473E0,4.267001152E0
4.377779022E0,5.820540905E0,6.446264267E0,4.232305050E0
4.394444960E0,6.138487339E0,6.501598358E0,4.254737854E0
4.411110897E0,6.371488571E0,6.545566559E0,4.234697819E0
4.427776835E0,6.038886070E0,6.486343861E0,4.224528313E0
4.444442772E0,5.719145298E0,6.348158360E0,4.235894203E0
4.461108710E0,5.700301647E0,6.348756790E0,4.291826725E0
4.477774647E0,6.011966705E0,6.403193474E0,4.221537113E0
4.494440585E0,6.165705681E0,6.479464531E0,4.191029072E0
4.511106522E0,6.310471535E0,6.508776665E0,4.172185421E0
4.527772460E0,6.251847267E0,6.502196312E0,4.132404804E0
4.544438397E0,6.067001820E0,6.524629116E0,4.080360889E0
4.561104335E0,5.970092297E0,6.538088799E0,4.067200184E0
4.577770272E0,6.003890991E0,6.570990086E0,4.190131664E0
4.594436210E0,6.059225082E0,6.587440968E0,4.400700092E0
4.611102147E0,6.207580090E0,6.567699909E0,4.612763882E0
4.627768085E0,6.221039772E0,6.617351055E0,4.596313000E0
4.644434022E0,6.270989895E0,6.654738903E0,4.386343002E0
4.661099960E0,6.302694798E0,6.690032959E0,4.193122387E0
4.677765897E0,6.379564285E0,6.658627033E0,3.938885212E0
4.694431835E0,6.300900459E0,6.598806858E0,3.869194269E0
4.711097772E0,6.034698486E0,6.475875378E0,3.976871252E0
4.727763710E0,5.789733410E0,6.470192432E0,4.119842529E0
4.744429647E0,5.863911152E0,6.472286224E0,4.146462440E0
4.761095585E0,6.133701801E0,6.496812344E0,4.122235298E0
4.777761522E0,6.419045925E0,6.490531445E0,3.887140274E0
4.794427460E0,6.171388626E0,6.494120598E0,3.848556042E0
4.811093397E0,5.904589176E0,6.537490368E0,3.998705626E0
4.827759335E0,6.104988098E0,6.523731709E0,4.115056515E0
4.844425272E0,6.217450619E0,6.520740986E0,4.091726780E0
4.861091210E0,6.116951942E0,6.536593437E0,4.011866093E0
4.877757147E0,6.074479580E0,6.522535324E0,3.961916208E0
4.894423085E0,6.120242119E0,6.498906136E0,3.976273060E0
4.911089022E0,6.052046776E0,6.538088799E0,4.031308174E0
4.927754960E0,5.981458187E0,6.581159592E0,4.080659866E0
4.944420897E0,6.088836193E0,6.634998322E0,4.166801453E0
4.961086835E0,6.090332031E0,6.684350014E0,4.055236340E0
4.977752772E0,5.983551979E0,6.758527756E0,3.797409534E0
4.994418710E0,5.867799282E0,6.714260101E0,3.782454491E0
5.011084647E0,5.670989513E0,6.715755939E0,3.792623997E0
5.027750585E0,5.604887962E0,6.733702183E0,3.843770504E0
5.044416522E0,5.665007591E0,6.771389008E0,3.951746702E0
5.061082460E0,5.926124573E0,6.837490559E0,4.006781578E0
5.077748397E0,5.931508064E0,6.910172462E0,3.961916208E0
5.094414335E0,5.910870075E0,6.875476837E0,3.844069481E0
5.111080272E0,5.653342724E0,6.790232658E0,3.867399693E0
5.127746210E0,5.367101192E0,6.751648426E0,3.832404613E0
5.144412147E0,5.522933960E0,6.683153629E0,3.955036640E0
5.161078085E0,5.802595139E0,6.789933205E0,4.105485439E0
5.177744022E0,6.142076492E0,6.865606308E0,3.970590115E0
5.194409960E0,6.495018005E0,6.937391281E0,3.857529163E0
5.211075897E0,6.818347931E0,6.955935478E0,3.953541279E0
5.227741835E0,6.685247421E0,6.895217419E0,4.378566265E0
5.244407772E0,6.410072803E0,6.810272217E0,4.729712963E0
5.261073710E0,6.440581322E0,6.673283100E0,4.792823792E0
5.277739647E0,6.489634037E0,6.586543560E0,4.430909157E0
5.294405585E0,6.441478729E0,6.524928093E0,3.951148272E0
5.311071522E0,6.241079807E0,6.435795784E0,3.770191193E0
5.327737460E0,5.953641891E0,6.319444656E0,3.916452408E0
5.344403397E0,5.801398277E0,6.172585011E0,4.075575352E0
5.361069335E0,5.924628735E0,6.122036934E0,4.085445404E0
5.377735272E0,5.947061539E0,6.086144447E0,3.840181351E0
5.394401210E0,5.729314804E0,6.106483459E0,3.556033611E0
5.411067147E0,5.550451279E0,6.171089649E0,3.620938778E0
5.427733085E0,5.745765209E0,6.322435856E0,4.007977962E0
5.444399022E0,6.285944939E0,6.398108482E0,4.241876125E0
5.461064960E0,6.584150791E0,6.400202274E0,4.172783375E0
5.477730897E0,6.440581322E0,6.448058605E0,3.957728624E0
5.494396835E0,6.371787548E0,6.475276947E0,3.933202267E0
5.511062772E0,6.389135361E0,6.542575359E0,4.311866283E0
5.527728710E0,6.573981285E0,6.539883614E0,4.528117657E0
5.544394647E0,6.761219501E0,6.454339981E0,4.294817448E0
5.561060585E0,6.405885220E0,6.320342064E0,3.783650875E0
5.577726522E0,5.729912758E0,6.069693565E0,3.452843189E0
5.594392460E0,5.148756027E0,5.828317642E0,3.398705482E0
5.611058397E0,4.578067780E0,5.818148136E0,3.480958700E0
5.627724335E0,4.316951275E0,5.919843197E0,3.329313517E0
5.644390272E0,4.412663937E0,5.997610092E0,3.148954630E0
5.661056210E0,4.857429981E0,6.169294834E0,3.098406315E0
5.677722147E0,4.947759151E0,6.282954216E0,2.951546669E0
5.694388085E0,4.255335808E0,6.474678993E0,2.822334290E0
5.711054022E0,3.390928745E0,6.624529362E0,2.906382322E0
5.727719960E0,2.836691141E0,6.947261333E0,2.893819809E0
5.744385897E0,2.903690338E0,7.258029461E0,2.843570709E0
5.761051835E0,3.360420227E0,7.692924976E0,2.708974361E0
5.777717772E0,3.386741400E0,8.143373489E0,2.999403238E0
5.794383710E0,3.425624609E0,8.618947029E0,2.979662418E0
5.811049647E0,3.651746511E0,9.512067795E0,1.795813441E0
5.827715585E0,3.421138287E0,1.018415260E1,8.515457511E-1
5.844381522E0,2.607877493E0,1.064177990E1,1.153340459E0
5.861047460E0,2.455335140E0,1.069023418E1,2.120938063E0
5.877713397E0,4.091128349E0,1.098425198E1,3.361317635E0
5.894379335E0,5.384449005E0,1.106501007E1,3.467499018E0
5.911045272E0,4.813760757E0,1.092473125E1,3.593122244E0
5.927711210E0,3.959822416E0,9.944272041E0,3.868596077E0
5.944377147E0,3.575475216E0,8.455636978E0,4.422534466E0
5.961043085E0,3.919742584E0,6.536593437E0,4.481158733E0
5.977709022E0,5.369493961E0,3.853640795E0,3.590729475E0
5.994374960E0,6.562914371E0,1.036391258E0,2.252244234E0
6.011040897E0,5.738287926E0,-2.230409861E0,4.486542568E-2
6.027706835E0,4.152743816E0,-4.572085857E0,-2.266601324E0
6.044372772E0,5.134698391E0,-7.019644260E0,-2.740978241E0
6.061038710E0,9.201898575E0,-9.436694145E0,-1.057627559E0
6.077704647E0,1.174905872E1,-1.017607689E1,1.142572835E-1
6.094370585E0,1.130189991E1,-9.447162628E0,-5.629115105E-1
6.111036522E0,1.272323608E1,-9.420542717E0,-1.317248821E0
6.127702460E0,1.997648048E1,-7.830811024E0,8.536394835E-1
6.144368397E0,3.056561661E1,-2.819941521E0,2.573779821E0
6.161034335E0,3.781616974E1,2.193919182E0,2.889632463E0
6.177700272E0,4.085565186E1,6.078666687E0,2.962314367E0
6.194366210E0,4.501467514E1,9.480961800E0,1.477568030E0
6.211032147E0,4.487559509E1,1.355115318E1,1.751845241E0
6.227698085E0,3.574248886E1,1.539452362E1,4.807778835E0
6.244364022E0,2.348764801E1,1.521954823E1,1.063220787E1
6.261029960E0,1.338066387E1,1.340459251E1,1.162373447E1
6.277695897E0,3.810271025E0,1.321017551E1,4.795814991E0
6.294361835E0,-7.277770042E0,1.621885109E1,6.166304111E0
6.311027772E0,-1.268495083E1,1.789113426E1,1.926012802E1
6.327693710E0,-9.106484413E0,1.902832413E1,2.114627075E1
6.344359647E0,-6.734001160E0,2.166760635E1,8.073084831E0
6.361025585E0,-1.513011646E1,2.509891510E1,-1.717149377E0
6.377691522E0,-1.845015717E1,2.375055885E1,4.272085667E0
6.394357460E0,-1.558774376E1,2.203849411E1,2.649871635E1
6.411023397E0,-6.783951283E0,2.511686134E1,4.005585098E1
6.427689335E0,1.426989651E1,2.984298515E1,2.780788994E1
6.444355272E0,2.933570671E1,3.386502075E1,1.020628548E1
6.461021210E0,3.509792328E1,3.532374573E1,1.348235893E1
6.477687147E0,4.783910370E1,3.713152313E1,2.854637337E1
6.494353085E0,6.656144714E1,2.784856796E1,3.211646652E1
6.511019022E0,7.412336731E1,1.293320656E1,2.002762604E1
6.527684960E0,6.883582306E1,-1.302293777E0,4.351946354E0
6.544350897E0,5.565226746E1,-1.424866104E1,-1.769492388E0
6.561016835E0,3.473301697E1,-2.084417725E1,-2.372483730E0
6.577682772E0,1.474517155E1,-2.459313202E1,7.262216806E-1
6.594348710E0,1.631905079E0,-3.115514946E1,5.343770981E0
6.611014647E0,-7.910970688E0,-3.337060547E1,5.712863922E0
6.627680585E0,-8.061120033E0,-3.603561020E1,-1.705484390E0
6.644346522E0,4.774578571E0,-3.843082428E1,-3.499802113E0
6.661012460E0,1.137817097E1,-4.015784454E1,-1.172961617E1
6.677678397E0,-3.241377354E0,-4.166143417E1,-2.092852402E1
6.694344335E0,-1.543729496E1,-3.966462326E1,-1.269841099E1
6.711010272E0,-1.028405285E1,-3.756253052E1,-2.536391914E-1
6.727676210E0,3.215355396E0,-3.386861038E1,5.669195175E0
6.744342147E0,2.030040741E1,-2.992882729E1,1.520339727E0
6.761008085E0,3.453202057E1,-2.539293289E1,-3.032902718E0
6.777674022E0,5.454798126E1,-2.106371880E1,-3.207578659E0
6.794339960E0,7.321439362E1,-1.405035591E1,8.617152572E-1
6.811005897E0,7.821359253E1,-2.472982168E0,1.031007481E1
6.827671835E0,6.616483307E1,9.207880974E0,1.520279884E1
6.844337772E0,4.611537552E1,1.338574886E1,1.618475342E1
6.861003710E0,3.322733307E1,1.696780396E1,1.276810169E1
6.877669647E0,2.523769951E1,2.238006973E1,4.470689774E0
6.894335585E0,1.633938980E1,3.044507980E1,5.216353416E0
6.911001522E0,1.616351724E0,3.844757462E1,2.006082726E1
6.927667460E0,-9.539286613E0,4.533770752E1,3.080968475E1
6.944333397E0,-1.430489159E1,4.734349060E1,3.180719376E1
6.960999335E0,-1.212293720E1,4.268795776E1,3.628954697E1
6.977665272E0,-4.064209461E0,3.703192139E1,4.238227463E1
6.994331210E0,7.583453178E0,3.456940842E1,3.466153336E1
7.010997147E0,2.221526527E1,3.376242828E1,2.019033813E1
7.027663085E0,3.537698364E1,3.252234650E1,1.661277008E1
7.044329022E0,5.467031479E1,3.322015381E1,2.189014053E1
7.060994960E0,7.625746155E1,3.023181915E1,1.927209282E1
7.077660897E0,7.839843750E1,1.339861012E1,9.134002686E0
7.094326835E0,7.839843750E1,-1.083410263E1,-2.003390789E0
7.110992772E0,6.181678009E1,-2.552035141E1,-5.632106066E-1
7.127658710E0,3.543620682E1,-3.472523880E1,5.957530022E0
7.144324647E0,2.081396866E1,-4.027658844E1,6.559324861E-1
7.160990585E0,5.965605736E0,-4.189084625E1,-1.702493310E0
7.177656522E0,2.763710260E0,-4.569274139E1,-1.738983870E0
7.194322460E0,1.749751568E0,-4.767609406E1,-5.084149837E0
7.210988397E0,1.229312643E-1,-5.180640411E1,-1.463091373E1
7.227654335E0,-1.149751282E1,-4.823481750E1,-2.495265388E1
7.244320272E0,-1.587039661E1,-4.433840561E1,-2.030878258E1
7.260986210E0,-1.002502918E1,-4.115355682E1,-4.172185421E0
7.277652147E0,-1.420439363E0,-3.683391571E1,7.681858063E0
7.294318085E0,1.111346436E1,-3.091676331E1,2.822334290E0
7.310984022E0,2.774896622E1,-2.562862587E1,-5.889334679E0
7.327649960E0,4.906303406E1,-1.889881325E1,-4.758427143E0
7.344315897E0,7.283662415E1,-1.443021584E1,-6.450152397E0
7.360981835E0,7.838946533E1,-7.389036179E0,-3.417249918E0
7.377647772E0,7.121697998E1,5.112864017E0,6.103492260E0
7.394313710E0,4.730221558E1,1.144487095E1,1.350030518E1
7.410979647E0,3.101965523E1,1.496740437E1,1.368784237E1
7.427645585E0,2.341077805E1,2.362792778E1,1.145264721E1
7.444311522E0,2.242912292E1,3.357459259E1,8.022834778E0
7.460977460E0,1.798954010E1,3.816611862E1,8.695218086E0
7.477643397E0,5.438287735E0,3.837369537E1,1.731595993E1
7.494309335E0,-1.368604851E1,3.771417618E1,2.245873451E1
7.510975272E0,-1.763091469E1,3.600839233E1,2.809383202E1
7.527641210E0,-1.319880962E1,3.135644531E1,3.237967682E1
7.544307147E0,-1.362832165E1,2.615833664E1,3.563062286E1
7.560973085E0,-2.971885681E0,2.423660088E1,3.013490868E1
7.577639022E0,1.077667522E1,2.669612312E1,1.905913162E1
7.594304960E0,2.455095863E1,2.996621513E1,1.726062584E1
7.610970897E0,4.607140732E1,3.175275612E1,2.140170479E1
7.627636835E0,7.483851624E1,2.596601486E1,2.121775627E1
7.644302772E0,7.839784241E1,1.062861919E1,9.436395645E0
7.660968710E0,7.797460938E1,-1.135872936E1,-7.055237770E0
7.677634647E0,5.633242798E1,-2.112234306E1,-1.096630573E1
7.694300585E0,2.759821892E1,-2.552932358E1,-1.797607988E-1
7.710966522E0,1.451157188E1,-2.993032265E1,6.144170284E0
7.727632460E0,2.590230465E0,-3.408665466E1,9.924231768E-1
7.744298397E0,-4.371985912E0,-3.644298935E1,-5.023432255E0
7.760964335E0,-1.468594909E0,-3.972893143E1,-1.287458229E1
7.777630272E0,-2.216650963E0,-4.183042908E1,-1.720349693E1
7.794296210E0,-7.057929516E0,-4.227011108E1,-1.457557964E1
7.810962147E0,-1.059990501E1,-4.099324036E1,-8.092824936E0
7.827628085E0,-8.341678619E0,-3.795914078E1,-2.021037817E0
7.844294022E0,2.007877350E0,-3.107409286E1,-8.192426562E-1
7.860959960E0,1.883271027E1,-2.322503662E1,-2.825026274E0
7.877625897E0,3.935385513E1,-1.305105305E1,-5.922235966E0
7.894291835E0,5.614758301E1,-5.107480049E0,-8.368897438E0
7.910957772E0,6.459215546E1,6.946363926E0,9.245268703E-1
7.927623710E0,6.926354218E1,1.726002884E1,7.989036560E0
7.944289647E0,5.652804184E1,1.977309036E1,1.046740246E1
7.960955585E0,2.707389069E1,1.709522247E1,7.498209000E0
7.977621522E0,1.318385410E1,1.753699684E1,4.364508629E0
7.994287460E0,1.316142178E1,1.975813484E1,5.579763412E0
8.010953397E0,7.133303165E0,2.057019806E1,1.086820030E1
8.027619335E0,-1.023589706E1,2.506122780E1,1.226590824E1
8.044285272E0,-2.017299080E1,3.284747314E1,1.164526939E1
8.060951210E0,-1.811935043E1,3.819333649E1,2.047986984E1
8.077617147E0,-1.716281891E1,3.644328690E1,3.763311768E1
8.094283085E0,-1.159980583E1,3.396342468E1,3.704508209E1
8.110949022E0,-4.740779996E-1,3.247897720E1,2.081905174E1
8.127614960E0,1.686640859E0,3.070440102E1,1.805175400E1
8.144280897E0,1.343809223E1,3.066103172E1,2.495504570E1
8.160946835E0,4.413830566E1,2.914308357E1,2.743161774E1
8.177612772E0,7.043811798E1,2.340300179E1,1.884946060E1
8.194278710E0,7.804430389E1,1.458784294E1,6.455536366E0
8.210944647E0,7.839813995E1,1.115653589E-1,3.581158161E0
8.227610585E0,6.706632996E1,-1.575284863E1,-3.598206937E-1
8.244276522E0,3.128884888E1,-2.220180511E1,9.080163956E0
8.260942460E0,1.519292831E1,-2.828406143E1,6.212066650E0
8.277608397E0,3.488735437E0,-3.398406219E1,-3.379862010E-2
8.294274335E0,-2.726322412E0,-3.836203003E1,2.490031004E0
8.310940272E0,8.862416744E-1,-4.365884399E1,-5.760122299E0
8.327606210E0,-3.975076675E-1,-4.317668915E1,-1.821685791E1
8.344272147E0,-8.601898193E0,-4.065375900E1,-1.915633965E1
8.360938085E0,-1.269870949E1,-4.029842377E1,-9.835398674E0
8.377604022E0,-1.189591789E1,-3.678665543E1,-3.605684519E0
8.394269960E0,-2.025225163E0,-2.851616478E1,-2.874976397E0
8.410935897E0,1.806521225E1,-1.635913086E1,-4.785346031E0
8.427601835E0,4.176671982E1,-7.606483936E0,-1.023021412E1
8.444267772E0,4.962414932E1,-4.704887569E-1,-1.037886810E1
8.460933710E0,5.320351410E1,1.234158134E1,2.543271303E0
8.477599647E0,6.814878845E1,2.160928154E1,1.268465233E1
8.494265585E0,6.216463470E1,2.453271294E1,1.226381397E1
8.510931522E0,2.594746971E1,2.153540421E1,4.638187408E0
8.527597460E0,4.525126934E0,1.927538300E1,4.118346691E0
8.544263397E0,-5.578267574E-1,1.831227112E1,9.417252541E0
8.560929335E0,-1.012821960E1,1.884168434E1,9.772886276E0
8.577595272E0,-1.993251228E1,2.402184486E1,1.027567768E1
8.594261210E0,-2.872613525E1,3.201776123E1,1.417657661E1
8.610927147E0,-3.191217804E1,3.241377258E1,2.276411819E1
8.627593085E0,-2.580958366E1,3.486851120E1,3.265066147E1
8.644259022E0,4.210470676E0,4.099592972E1,3.432324600E1
8.660924960E0,2.479592323E1,4.321018982E1,2.514617348E1
8.677590897E0,3.094458008E1,4.060081482E1,1.777538300E1
8.694256835E0,4.933013153E1,2.954029274E1,1.614557076E1
8.710922772E0,7.278308105E1,1.516002655E1,8.067102432E0
8.727588710E0,7.839245605E1,4.867599487E0,-2.890529871E0
8.744254647E0,7.164978027E1,-4.738686085E0,1.214357466E-1
8.760920585E0,4.521567535E1,-1.702642822E1,1.532662678E1
8.777586522E0,2.266990089E1,-2.753809929E1,8.947062492E0
8.794252460E0,9.267401695E0,-3.581188202E1,-1.315125275E1
8.810918397E0,-5.587540150E0,-3.747399521E1,-1.515942860E1
8.827584335E0,-8.602197647E0,-3.916990662E1,-1.167368412E1
8.844250272E0,-6.671189308E0,-3.988327026E1,-6.936792850E0
8.860916210E0,-1.054696369E1,-3.994488525E1,-5.778068542E0
8.877582147E0,-1.429412460E1,-3.859204102E1,-9.123832703E0
8.894248085E0,-6.645167351E0,-3.582504272E1,-1.074018478E1
8.910914022E0,4.828117847E0,-3.062962532E1,-9.387042999E0
8.927579960E0,1.567597961E1,-1.969681931E1,-2.437089920E0
8.944245897E0,3.711238098E1,-8.034500122E0,1.407278776E0
8.960911835E0,6.047948837E1,4.827519894E0,1.909771562E0
8.977577772E0,6.352824402E1,2.083759689E1,6.554240227E0
8.994243710E0,6.028058624E1,2.680140877E1,1.146341515E1
9.010909647E0,4.458307266E1,2.422942352E1,8.456534386E0
9.027575585E0,1.875374794E1,1.839243126E1,4.809872627E0
9.044241522E0,2.414358139E0,1.607737541E1,6.516553402E0
9.060907460E0,-1.146790123E1,2.172653008E1,6.232405663E0
9.077573397E0,-2.550479698E1,3.214876938E1,8.311170578E0
9.094239335E0,-2.635604477E1,4.093491364E1,1.930559158E1
9.110905272E0,-2.368056870E1,4.388616180E1,3.085694313E1
9.127571210E0,-1.845015717E1,3.913730621E1,3.076422119E1
9.144237147E0,-9.689137459E0,3.621686554E1,2.652802849E1
9.160903085E0,1.584527111E1,3.367478943E1,2.101556396E1
9.177569022E0,4.889942551E1,1.935434532E1,1.484656715E1
9.194234960E0,7.325596619E1,2.439482689E0,2.964108944E0
9.210900897E0,7.617790222E1,-2.036890268E0,-8.483752251E0
9.227566835E0,7.772127533E1,-9.095118523E0,3.064906597E0
9.244232772E0,4.991099167E1,-2.532084846E1,1.379731464E1
9.260898710E0,1.530060482E1,-3.661078644E1,-8.241778374E0
9.277564647E0,8.584251255E-2,-3.403820038E1,-3.478745270E1
9.294230585E0,-6.425326824E0,-2.918824959E1,-2.851048088E1
9.310896522E0,-8.604888916E0,-2.497089958E1,-5.505286694E0
9.327562460E0,-4.115654945E0,-1.800000763E1,9.633204460E0
9.344228397E0,5.091029167E0,-9.899406433E0,1.197906852E0
9.360894335E0,9.943374634E0,-3.481556892E0,-9.021839142E0
9.377560272E0,1.522134304E0,4.304389000E0,1.942672849E0
9.394226210E0,1.156929731E0,9.664610863E0,2.625793839E1
9.410892147E0,9.530014038E0,1.087926769E1,2.599263382E1
9.427558085E0,7.499105930E0,1.294816113E1,3.620041609E0
9.444224022E0,-1.251715469E1,1.749601936E1,-5.362016678E0
9.460889960E0,-2.752643394E1,2.155185509E1,5.275874615E0
9.477555897E0,-2.929562759E1,2.232712936E1,1.791446495E1
9.494221835E0,-9.329615593E0,2.046192360E1,1.334626770E1
9.510887772E0,1.661546135E1,1.764975929E1,-5.024927482E-2
9.527553710E0,2.648854637E1,9.755238533E0,-3.719941854E0
9.544219647E0,2.760509682E1,4.823631287E0,-9.675976634E-1
9.560885585E0,4.189892197E1,-3.502494097E-1,1.071117115E1
9.577551522E0,5.936233902E1,3.856332779E0,2.392792702E1
9.594217460E0,6.452246094E1,-4.779663086E0,1.001665497E1
9.610883397E0,3.672713470E1,-1.615454292E1,-2.492214584E1
9.627549335E0,1.677368641E0,-1.548335743E1,-3.550799179E1
9.644215272E0,-6.494719028E0,-1.332114315E1,-2.511117744E1
9.660881210E0,-1.023559761E1,-9.451350212E0,-1.045902824E1
9.677547147E0,-1.471496201E1,-5.528915882E0,-7.286444187E0
9.694213085E0,-1.854856300E1,2.049751759E0,-4.971088886E0
9.710879022E0,-1.337109280E1,5.988337994E0,4.416851521E0
9.727544960E0,-2.157428741E0,1.022243786E1,1.604596901E1
9.744210897E0,1.106830025E1,1.391545963E1,1.196859932E1
9.760876835E0,1.077936649E1,1.726840210E1,-5.070092201E0
9.777542772E0,-1.583151340E0,1.805953026E1,-3.882653952E0
9.794208710E0,-3.119343519E0,1.351944828E1,1.253121185E1
9.810874647E0,5.707779408E0,9.678070068E0,1.566850185E1
9.827540585E0,1.492283821E1,3.628117323E0,7.819445133E0
9.844206522E0,1.768953896E1,2.524727106E0,-6.402894497E0
9.860872460E0,1.979791451E1,7.845467329E-1,-9.128020287E0
9.877538397E0,2.251047897E1,-3.239881754E0,-1.103091240E0
9.894204335E0,1.935972977E1,-5.936593056E0,4.544269085E0
9.910870272E0,1.556351662E1,-5.676971912E0,1.683948994E0
9.927536210E0,1.463181114E1,-2.771486759E0,-2.908775091E0
9.944202147E0,1.388166142E1,4.064807594E-1,-6.962515831E0
9.960868085E0,6.474977970E0,3.732504129E0,-8.066802979E0
9.977534022E0,-2.455634356E0,6.634100914E0,-3.435495138E0
9.994199960E0,-3.821038723E0,9.982855797E0,2.457129717E0
1.001086590E1,3.127718210E0,1.682782364E1,7.558926582E0
1.002753184E1,2.112054825E1,2.262443733E1,1.309502125E1
1.004419777E1,2.338655090E1,2.142503548E1,8.589036942E0
1.006086371E1,1.178973579E1,1.777268982E1,4.157529354E0
1.007752965E1,1.053529930E1,1.047428226E1,2.213061810E0
1.009419559E1,1.168445206E1,1.198205948E0,-7.268198729E-1
1.011086152E1,1.193091297E1,-7.530212879E0,-4.715954304E0
1.012752746E1,1.132881927E1,-9.881759644E0,-6.524928093E0
1.014419340E1,1.085593700E1,-1.076231766E1,-4.682754040E0
1.016085934E1,7.428816795E0,-7.025626183E0,-9.741778970E-1
1.017752527E1,4.768297195E0,-3.357130051E0,2.083550215E0
1.019419121E1,2.909373283E0,-1.471585929E-1,2.221436739E0
1.021085715E1,-1.938186288E-1,1.442572951E0,-2.621337175E0
1.022752309E1,-6.116353989E0,3.957429647E0,-4.162314892E0
1.024418902E1,-7.755736351E0,6.140282154E0,2.201695919E0
1.026085496E1,-7.064808607E-1,1.063220787E1,9.709177017E0
1.027752090E1,1.066600704E1,1.982842445E1,8.489136696E0
1.029418684E1,1.343749332E1,2.759672356E1,6.716353893E0
1.031085277E1,1.555603886E1,3.250141144E1,8.860322952E0
1.032751871E1,2.386601257E1,3.257050323E1,5.629713535E0
1.034418465E1,3.346063232E1,2.956122971E1,3.687040567E0
1.036085059E1,4.232454681E1,2.316581345E1,5.385944843E0
1.037751652E1,4.565385818E1,1.535175228E1,-1.921137452E0
1.039418246E1,4.506044006E1,7.591528893E0,-9.696614265E0
1.041084840E1,3.791487122E1,-3.936193228E0,-2.802892685E0
1.042751434E1,2.562653160E1,-1.223270798E1,1.278903866E1
1.044418027E1,1.761057663E1,-2.171576309E1,4.813760757E0
1.046084621E1,1.102672482E1,-2.826461983E1,-8.967700958E0
1.047751215E1,-4.220340848E-1,-2.870041275E1,-4.516153812E0
1.049417809E1,-3.611068487E0,-2.945445061E1,7.744071484E0
1.051084402E1,4.618147850E0,-2.849971390E1,1.150020504E1
1.052750996E1,1.385085392E1,-2.552992249E1,5.205286503E0
1.054417590E1,7.627122402E0,-2.229662132E1,-2.005185366E0
1.056084184E1,1.906182289E0,-2.310509491E1,-3.578167200E0
1.057750777E1,6.411867142E0,-2.237947273E1,-6.208776474E0
1.059417371E1,1.692533112E1,-2.493141747E1,-1.131984615E1
1.061083965E1,2.782134819E1,-2.574647331E1,-1.351705551E1
1.062750559E1,3.708217239E1,-2.389263344E1,-1.184536934E1
1.064417152E1,3.925664902E1,-1.964118576E1,-8.073982239E0
1.066083746E1,3.964667892E1,-1.130638599E1,-2.149353027E0
1.067750340E1,4.967709351E1,1.823330879E0,1.177268744E0
1.069416934E1,5.348227692E1,1.652872086E1,-1.259402370E1
1.071083527E1,4.024279022E1,2.464039040E1,-3.855734634E1
1.072750121E1,2.705355263E1,2.657588387E1,-2.959502792E1
1.074416715E1,1.909921074E1,2.853441048E1,1.647159338E0
1.076083308E1,2.318226433E1,3.078545761E1,1.333370495E1
1.077749902E1,2.567139816E1,3.068226814E1,1.160130119E1
1.079416496E1,2.143071747E1,2.752075005E1,1.045872879E1
1.081083090E1,1.583360672E1,2.728146744E1,1.371655655E1
1.082749684E1,1.746341705E1,2.761227608E1,3.101636505E1
1.084416277E1,2.518924332E1,2.248744774E1,3.917888260E1
1.086082871E1,3.245534897E1,1.774756622E1,2.588525581E1
1.087749465E1,3.762683868E1,1.479183102E1,1.574327755E1
1.089416058E1,4.874837875E1,9.654142380E0,1.903071594E1
1.091082652E1,6.799295044E1,5.732305527E0,2.182104683E1
1.092749246E1,7.836314392E1,6.224330068E-1,1.452921867E1
1.094415840E1,7.839843750E1,-1.009980488E1,4.127918243E0
1.096082434E1,7.839843750E1,-2.663959312E1,-2.270788670E0
1.097749027E1,6.722964478E1,-3.217957687E1,6.995117664E0
1.099415621E1,4.542295074E1,-3.486521912E1,2.304886436E1
1.101082215E1,3.942115402E1,-4.372913361E1,1.617996788E1
1.102748808E1,2.404308128E1,-5.306383133E1,9.605986595E0
1.104415402E1,5.965306759E0,-5.332584763E1,1.074616623E1
1.106081996E1,-2.184347868E0,-5.356483078E1,5.778965950E0
1.107748590E1,-3.384647608E0,-5.595675659E1,7.497909546E0
1.109415184E1,-1.012493038E1,-6.428198242E1,3.281457186E0
1.111081777E1,-3.098107147E1,-6.331977081E1,-1.663609982E0
1.112748371E1,-2.709094048E1,-6.157450485E1,5.349453926E0
1.114414965E1,-4.894219398E0,-6.059853363E1,1.239153099E1
1.116081558E1,1.807717705E1,-5.684180069E1,1.514477253E1
1.117748152E1,3.884209061E1,-5.693631744E1,9.890732765E0
1.119414746E1,6.034130478E1,-6.216643143E1,-3.049652576E0
1.121081340E1,7.804969025E1,-5.942874146E1,-1.166052341E1
1.122747934E1,7.839843750E1,-3.972982788E1,-9.780064583E0
1.124414527E1,7.687062073E1,-1.957119560E1,4.564309120E-1
1.126081121E1,6.582445526E1,-9.850952148E0,9.408578873E0
1.127747715E1,5.493711472E1,-1.500898004E0,-9.398110390E0
1.129414308E1,4.713740921E1,1.100578785E1,-3.189064217E1
1.131080902E1,3.478625870E1,2.813451004E1,-1.931456566E1
1.132747496E1,3.356591797E1,4.396961212E1,1.915753555E1
1.134414090E1,2.608924484E1,5.871208954E1,3.439024353E1
1.136080684E1,1.570858192E1,6.624678802E1,1.595504189E1
1.137747277E1,1.321855068E1,6.871349335E1,2.091207314E1
1.139413871E1,3.067598724E1,5.891847229E1,4.210261154E1
1.141080465E1,4.514418793E1,4.330261230E1,3.842304993E1
1.142747058E1,5.367759323E1,2.981875801E1,2.552902412E1
1.144413652E1,5.573930740E1,1.897328949E1,1.613241005E1
1.146080246E1,6.193851471E1,9.160921097E0,1.319252872E1
1.147746840E1,7.544599915E1,2.930011272E0,1.308634663E1
1.149413434E1,7.839784241E1,-9.844969749E0,1.001874828E1
1.151080027E1,7.839843750E1,-3.377529144E1,7.987541199E0
1.152746621E1,7.839843750E1,-5.299384308E1,5.557330608E0
1.154413215E1,6.630960083E1,-5.683761215E1,9.006883621E0
1.156079808E1,4.398366928E1,-6.251219177E1,3.809672832E0
1.157746402E1,2.024417686E1,-6.349265289E1,5.234897614E0
1.159412996E1,4.680361271E0,-6.003382492E1,8.124829292E0
1.161079590E1,3.511467218E0,-5.892266083E1,-5.660222054E0
1.162746184E1,-2.789433002E0,-5.451448059E1,-1.127049351E1
1.164412777E1,-5.014159679E0,-5.604499054E1,-1.384367561E1
1.166079371E1,-1.511486244E1,-5.448247910E1,-9.731011391E0
1.167745965E1,-2.447139740E1,-5.313591766E1,-2.739782035E-1
1.169412558E1,-2.030040741E1,-5.073292542E1,6.620042801E0
1.171079152E1,-7.011867523E0,-4.611956406E1,9.308379173E0
1.172745746E1,1.018295574E1,-4.093102646E1,3.030808926E0
1.174412340E1,2.934527779E1,-3.463102341E1,-6.083751678E0
1.176078934E1,6.123741531E1,-2.505853653E1,-9.930811882E0
1.177745527E1,7.828807068E1,-1.508016682E1,-1.408774376E1
1.179412121E1,7.839843750E1,-1.619043589E0,-1.661815286E0
1.181078715E1,7.770033264E1,1.438415432E1,4.083651066E0
1.182745308E1,5.497928619E1,2.007787514E1,8.135597229E0
1.184411902E1,2.557478714E1,2.380140686E1,1.901187325E1
1.186078496E1,1.994656944E1,3.211497116E1,1.950808525E1
1.187745090E1,2.380290222E1,3.735405350E1,1.061904812E1
1.189411684E1,4.804787636E0,3.914388657E1,4.725525856E0
1.191078277E1,-1.081406307E1,4.340131760E1,1.490100384E1
1.192744871E1,-1.091545868E1,4.305017090E1,3.763670731E1
1.194411465E1,-3.687937975E0,3.676841354E1,4.952305222E1
1.196078058E1,-5.102694035E-1,3.246791077E1,3.237129974E1
1.197744652E1,7.158128738E0,3.295814133E1,8.411968231E0
1.199411246E1,2.313769722E1,3.284956741E1,-3.253939629E0
1.201077840E1,4.079972076E1,2.902822876E1,-3.110669553E-1
1.202744434E1,6.210451508E1,2.221885300E1,1.277109241E1
1.204411027E1,7.827461243E1,9.580562592E0,3.195016384E0
1.206077621E1,7.839843750E1,-9.702297211E0,-1.177238846E1
1.207744215E1,7.191120148E1,-2.417378998E1,-1.367827129E1
1.209410808E1,3.403132248E1,-3.328027344E1,1.757976913E1
1.211077402E1,1.493091393E1,-3.940649796E1,9.670592308E0
1.212743996E1,4.179962158E0,-3.967090607E1,-5.463711262E0
1.214410590E1,-6.510272026E0,-4.179304123E1,-4.562514782E0
1.216077184E1,-1.186152077E1,-4.674767685E1,-6.538387775E0
1.217743777E1,-1.877408600E1,-4.655266190E1,-9.792327881E0
1.219410371E1,-1.821117401E1,-4.442304993E1,-7.394719124E0
1.221076965E1,-1.045005512E1,-3.969812393E1,-6.290132403E-1
1.222743558E1,2.315953255E0,-3.349114227E1,1.147358418E0
1.224410152E1,1.401177120E1,-2.448694992E1,-3.143570721E-1
1.226076746E1,3.459363556E1,-1.096570778E1,-5.065306664E0
1.227743340E1,5.739184952E1,2.926122904E0,-1.079432201E1
1.229409934E1,6.221488571E1,1.499492264E1,-1.267627716E1
1.231076527E1,5.744868088E1,2.231247330E1,-3.619144112E-2
1.232743121E1,4.353411865E1,2.539711952E1,1.592991734E1
1.234409715E1,2.249402809E1,2.573181725E1,1.806641006E1
1.236076308E1,9.974182129E0,2.516112900E1,1.182742310E1
1.237742902E1,-2.852244616E0,2.882543755E1,4.722833633E0
1.239409496E1,-1.964926147E1,3.922912979E1,1.086012459E1
1.241076090E1,-2.439512634E1,4.472604370E1,2.861127853E1
1.242742684E1,-2.103171539E1,3.942504501E1,3.226153183E1
1.244409277E1,-1.591705608E1,3.159004402E1,1.839003754E1
1.246075871E1,-5.921338558E0,2.716571617E1,1.191805172E1
1.247742465E1,2.062613106E1,2.615684128E1,1.478584957E1
1.249409058E1,5.670241928E1,1.391904926E1,1.281356525E1
1.251075652E1,7.004450226E1,4.135096550E0,-3.379862010E-1
1.252742246E1,7.762406158E1,-2.591426849E0,-1.544118404E1
1.254408840E1,7.836823273E1,-9.542576790E0,6.132505417E0
1.256075434E1,5.621368408E1,-2.802653313E1,2.876352310E1
1.257742027E1,1.569093418E1,-4.050360870E1,1.692622948E1
1.259408621E1,-3.687339783E0,-4.603701019E1,-5.546862125E0
1.261075215E1,-1.585454369E1,-4.790640259E1,-1.758126450E1
1.262741808E1,-2.541745949E1,-4.502724075E1,-1.829282951E1
1.264408402E1,-3.048575783E1,-4.103571320E1,-1.096032429E1
1.266074996E1,-2.275813675E1,-3.530789185E1,-3.656831264E0
1.267741590E1,-2.523530483E0,-2.420699120E1,1.775175333E0
1.269408184E1,2.654477882E1,-6.894021034E0,9.023932219E-1
1.271074777E1,4.940251541E1,1.304447269E1,1.928615093E0
1.272741371E1,4.633102798E1,2.877518845E1,9.997511864E0
1.274407965E1,2.475434875E1,3.549513245E1,1.704228020E1
1.276074558E1,5.430510998E0,4.177688980E1,2.433919334E1
1.277741152E1,4.471587181E0,4.548456573E1,2.261067772E1
1.279407746E1,6.403791428E0,4.392085648E1,1.676232147E1
1.281074340E1,1.494018674E0,3.340978622E1,1.101924706E1
1.282740934E1,3.278166950E-1,2.053281021E1,7.046862602E0
1.284407527E1,9.054739952E0,5.765805244E0,2.105085611E0
1.286074121E1,2.133081818E1,-5.985944748E0,-8.786444664E0
1.287740715E1,3.856871033E1,-1.538644791E1,-2.084088707E1
1.289407308E1,4.411078644E1,-1.534307766E1,-7.700103283E0
1.291073902E1,3.783351517E1,-2.209203339E1,5.730511189E0
1.292740496E1,1.522194099E1,-2.399522591E1,-4.068396568E0
1.294407090E1,-4.020839214E0,-1.856979942E1,-1.472842121E1
1.296073684E1,-4.328616142E0,-1.147029400E1,-1.278066349E1
1.297740277E1,3.912265062E0,-5.790630817E0,-3.891626835E0
1.299406871E1,3.176172972E0,1.076770201E-1,2.006680965E0
1.301073465E1,-5.335097313E0,1.202184010E1,8.858827591E0
1.302740058E1,1.656730533E0,2.280599213E1,1.616381645E1
1.304406652E1,2.705205727E1,2.641347122E1,2.142144585E1
1.306073246E1,3.692155075E1,2.303450775E1,1.424267864E1
1.307739840E1,1.119541931E1,1.742902184E1,1.314257860E0
1.309406434E1,-2.852543592E0,8.544470787E0,1.633699656E0
1.311073027E1,-3.694817305E0,1.973779559E0,3.861118555E0
1.312739621E1,-2.715853691E0,-1.706680775E0,1.336690545E0
1.314406215E1,7.841877937E0,-6.485745907E0,-5.737689495E0
1.316072808E1,1.868973923E1,-9.090931892E0,-1.622902107E1
1.317739402E1,1.914796448E1,-5.201697350E0,-9.116056442E0
1.319405996E1,1.813400650E1,-2.276471615E0,5.286642551E0
1.321072590E1,1.294098282E1,7.974081635E-1,8.667102814E0
1.322739184E1,9.964909554E0,3.781257868E0,1.686042666E0
1.324405777E1,1.020598698E1,5.078765869E0,-6.360421658E0
1.326072371E1,7.737192154E0,6.629614353E0,-8.909974098E0
1.327738965E1,1.556231976E0,7.234699249E0,-5.590231895E0
1.329405558E1,-4.689932346E0,8.518747330E0,-1.819442511E0
1.331072152E1,-3.299702406E0,8.691030502E0,1.312463164E0
1.332738746E1,7.509574890E0,8.763712883E0,7.423433304E0
1.334405340E1,1.928196335E1,6.175576210E0,8.583653450E0
1.336071934E1,1.689721680E1,2.250748873E0,5.523531914E0
1.337738527E1,1.198295689E1,-3.407080412E0,5.353940725E-1
1.339405121E1,7.073183537E0,-4.802694321E0,-5.702694416E0
1.341071715E1,4.275375843E0,-2.715853691E0,-6.993323326E0
1.342738308E1,7.118946552E0,9.394819736E-1,-2.496910334E0
1.344404902E1,2.316850424E0,9.955039978E0,3.439383507E0
1.346071496E1,-7.624430180E0,2.001087761E1,1.069292641E1
1.347738090E1,-5.312066078E0,2.306531525E1,1.448345661E1
1.349404684E1,4.330709934E0,2.303330994E1,1.357478237E1
1.351071277E1,1.413799286E1,2.111456680E1,1.316830158E1
1.352737871E1,1.691875076E1,1.674317741E1,1.037707329E1
1.354404465E1,1.396929836E1,1.432253933E1,5.157729149E0
1.356071058E1,2.015295029E1,1.744307899E1,1.520937920E0
1.357737652E1,3.596143341E1,2.076850319E1,2.517249346E0
1.359404246E1,4.431387711E1,2.305185509E1,8.762815475E0
1.361070840E1,4.181906128E1,2.164637184E1,1.332981682E1
1.362737434E1,4.038964844E1,1.842862320E1,1.114875889E1
1.364404027E1,4.439224243E1,1.526321697E1,9.031410217E0
1.366070621E1,4.651168823E1,6.844369888E0,4.465006828E0
1.367737215E1,3.589024734E1,-1.357926846E0,1.354098320E1
1.369403808E1,2.018704796E1,-9.151649475E0,2.579522705E1
1.371070402E1,9.231808662E0,-1.597478294E1,1.743201256E1
1.372736996E1,2.312663078E0,-2.357139587E1,3.565903902E0
1.374403590E1,-4.411766529E0,-2.453719902E1,3.637389421E0
1.376070184E1,-3.479164124E0,-2.647777939E1,6.269195557E0
1.377736777E1,9.819545746E-1,-2.887718201E1,5.481059551E0
1.379403371E1,4.670191765E0,-3.200579834E1,2.434697151E0
1.381069965E1,4.498805523E0,-3.439084244E1,-2.207079887E0
1.382736558E1,4.941477776E0,-3.423321533E1,-5.687440395E0
1.384403152E1,1.188395405E1,-3.240839005E1,-9.833903313E0
1.386069746E1,2.318764877E1,-2.989861870E1,-1.541934872E1
1.387736340E1,3.571317673E1,-2.606112862E1,-2.033420753E1
1.389402934E1,4.258775711E1,-1.926521301E1,-2.099522400E1
1.391069527E1,4.735545731E1,-7.012465954E0,-1.756361771E1
1.392736121E1,5.276383209E1,1.712064624E0,-1.505264950E1
1.394402715E1,5.050351334E1,8.220541954E0,-7.691429138E0
1.396069308E1,4.594548416E1,1.584287834E1,-7.906484127E0
1.397735902E1,3.243919754E1,2.226611137E1,-1.974317932E1
1.399402496E1,1.831137466E1,2.763500786E1,-2.872134972E1
1.401069090E1,1.645663834E1,3.359941864E1,-1.320359516E1
1.402735684E1,2.087827492E1,3.679742432E1,1.545972824E1
1.404402277E1,1.744965935E1,3.968466568E1,3.264498138E1
1.406068871E1,6.852446079E0,4.248396683E1,3.400709534E1
1.407735465E1,3.424129248E0,4.209932327E1,3.030300522E1
1.409402058E1,7.738388538E0,3.773780441E1,2.052892303E1
1.411068652E1,1.483191109E1,3.356262589E1,1.255753326E1
1.412735246E1,2.680410004E1,3.080340385E1,1.377039528E1
1.414401840E1,3.571945953E1,2.987708282E1,1.339173126E1
1.416068434E1,4.605555344E1,2.702453804E1,1.000020409E1
1.417735027E1,5.976433563E1,2.253650093E1,9.402596474E0
1.419401621E1,7.499225616E1,1.935673904E1,9.220442772E0
1.421068215E1,7.839754486E1,1.035105133E1,6.076872349E0
1.422734809E1,7.839843750E1,-8.154739380E0,-1.761715710E-1
1.424401402E1,7.700881195E1,-2.425694084E1,-9.221639633E0
1.426067996E1,5.736882019E1,-3.042324448E1,6.403791308E-1
1.427734590E1,3.576551819E1,-3.832195282E1,1.779482460E1
1.429401184E1,1.669173241E1,-4.774728012E1,1.970908165E1
1.431067777E1,-1.381855011E-1,-5.358786011E1,1.444606876E1
1.432734371E1,-7.254739285E0,-5.665187073E1,6.780661106E0
1.434400965E1,-5.045266628E0,-5.813960648E1,1.314257860E0
1.436067559E1,-2.593520641E0,-6.065625763E1,-4.587639332E0
1.437734152E1,-1.280578899E1,-5.847938919E1,-6.078068733E0
1.439400746E1,-1.431147194E1,-5.680441284E1,-2.473580360E0
1.441067340E1,-1.110867858E0,-5.488686371E1,1.231406331E0
1.442733934E1,1.941416740E1,-5.126831818E1,2.194816589E0
1.444400527E1,3.678396606E1,-4.758935547E1,-1.064806104E0
1.446067121E1,5.975775528E1,-3.816791534E1,-7.912466049E0
1.447733715E1,7.808707428E1,-3.173092270E1,-1.871127510E1
1.449400309E1,7.839843750E1,-2.040958023E1,-1.667229080E1
1.451066902E1,7.824081421E1,-5.144867897E0,-4.181457460E-1
1.452733496E1,6.913702393E1,9.185149193E0,1.553599930E1
1.454400090E1,5.084568787E1,1.897388649E1,1.305284786E1
1.456066684E1,2.961536789E1,2.618585396E1,4.772185802E0
1.457733277E1,1.989751625E1,3.523072433E1,9.259027481E0
1.459399871E1,2.096740723E1,4.279682922E1,2.720489883E1
1.461066465E1,1.858385658E1,4.946951294E1,3.711686707E1
1.462733059E1,6.322435856E0,4.940191650E1,2.685195732E1
1.464399652E1,-2.682354212E0,4.810440826E1,2.433709908E1
1.466066246E1,7.202396393E0,4.242145538E1,3.004996490E1
1.467732840E1,1.911805534E1,3.685993576E1,3.215445328E1
1.469399434E1,3.681208038E1,3.400769424E1,1.914527321E1
1.471066027E1,4.421397781E1,3.189124107E1,4.672285080E0
1.472732621E1,5.057320404E1,3.010948563E1,3.346063375E0
1.474399215E1,6.944330597E1,2.714178658E1,6.946363926E0
1.476065809E1,7.837541199E1,9.895518303E0,8.553742409E0
1.477732402E1,7.839843750E1,-9.758230209E0,-2.782852650E0
1.479398996E1,7.712874603E1,-2.825684166E1,-1.486002636E1
1.481065590E1,5.146602631E1,-3.632364655E1,-2.135594130E0
1.482732184E1,2.432872581E1,-4.520879364E1,1.353141212E1
1.484398777E1,9.892228127E0,-5.319753265E1,1.668216133E1
1.486065371E1,-3.526422262E0,-5.875546265E1,6.248557091E0
1.487731965E1,-9.629615784E0,-5.921847153E1,-6.835097790E0
1.489398559E1,-6.177670002E0,-5.786204147E1,-9.587740898E0
1.491065152E1,-6.514160633E0,-5.472624588E1,-1.454058456E1
1.492731746E1,-1.173410320E1,-4.919045258E1,-1.499462318E1
1.494398340E1,-1.139432240E1,-4.528297043E1,-1.006092167E1
1.496064934E1,-3.588336706E0,-4.266492462E1,-1.957029819E0
1.497731527E1,5.491229057E0,-3.974328995E1,5.935994625E0
1.499398121E1,2.276680946E1,-3.763940048E1,5.000401020E0
1.501064715E1,4.901188660E1,-3.626023483E1,-1.492523104E-1
1.502731309E1,7.450711060E1,-3.275833893E1,-5.182255745E0
1.504397902E1,7.839784241E1,-2.317717934E1,-6.977769852E0
1.506064496E1,7.839843750E1,-3.785445452E0,2.187937260E0
1.507731090E1,6.559923553E1,8.264809608E0,9.843174934E0
1.509397684E1,4.169852448E1,1.123639584E1,1.035583687E1
1.511064277E1,2.874677277E1,1.684756470E1,6.664309978E0
1.512730871E1,2.722463799E1,2.298395920E1,9.050851464E-1
1.514397465E1,2.485125732E1,2.999582672E1,9.614062309E0
1.516064059E1,1.947159386E1,3.723082352E1,2.087169456E1
1.517730652E1,3.722633839E0,4.578127670E1,2.021067810E1
1.519397246E1,-4.015754700E0,4.989723206E1,2.700569534E1
1.521063840E1,-1.928615093E0,4.380540466E1,3.913401794E1
1.522730434E1,1.558624864E0,3.613132095E1,4.232873535E1
1.524397027E1,1.104556847E1,3.307060242E1,2.623101997E1
1.526063621E1,2.167837524E1,3.089403152E1,7.047760010E0
1.527730215E1,2.889781952E1,2.781387138E1,1.693520188E0
1.529396809E1,4.364059830E1,2.399462700E1,5.252245903E0
1.531063402E1,7.546095276E1,1.409731483E1,2.542374097E-2
1.532729996E1,7.839843750E1,-9.090332985E0,-1.206251812E1
1.534396590E1,7.658348846E1,-2.688216591E1,-2.224577332E1
1.536063184E1,4.297629166E1,-3.333471298E1,1.543071508E0
1.537729777E1,2.178186417E1,-4.294667816E1,5.916254044E0
1.539396371E1,4.126123428E0,-4.285007095E1,-4.028615952E0
1.541062965E1,-7.730910778E0,-4.250011826E1,-2.511267424E0
1.542729559E1,-1.245912838E1,-4.485435867E1,-3.483052492E0
1.544396152E1,-1.857667923E1,-4.736891556E1,-8.011768341E0
1.546062746E1,-2.595763969E1,-4.802275467E1,-3.512065411E0
1.547729340E1,-2.706252480E1,-4.418855667E1,7.013961315E0
1.549395934E1,-1.257787228E1,-3.857648849E1,1.039950657E1
1.551062527E1,6.967899323E0,-3.049502945E1,6.799205780E0
1.552729121E1,2.441636276E1,-1.937378693E1,9.957132936E-1
1.554395715E1,4.797011185E1,-1.223719406E1,-7.914859295E0
1.556062309E1,6.280142593E1,-1.518245935E0,-1.603071594E1
1.557728902E1,6.906284332E1,4.953442097E0,-1.419422436E1
1.559395496E1,6.160261917E1,1.125583744E1,-2.851347208E0
1.561062090E1,4.051377869E1,1.016052341E1,7.534699440E0
1.562728684E1,2.125304985E1,1.037827015E1,6.360421658E0
1.564395277E1,1.312403393E1,1.346351528E1,-4.292723656E0
1.566061871E1,9.454042435E0,1.877169418E1,-4.480560303E0
1.567728465E1,7.780860901E0,2.456770897E1,3.173182011E0
1.569395059E1,9.744172096E0,3.011965561E1,1.293679523E1
1.571061652E1,5.891428471E0,3.277598572E1,1.434586906E1
1.572728246E1,-7.380063057E0,3.404508209E1,1.028853893E1
1.574394840E1,-1.598734570E1,3.405465317E1,1.798415565E1
1.576061434E1,-1.609263039E1,2.861726189E1,3.083361435E1
1.577728027E1,-5.684449196E0,1.859671783E1,3.151796150E1
1.579394621E1,1.165065384E1,9.475577354E0,1.439641762E1
1.581061215E1,2.408286285E1,5.948556900E0,-3.065803945E-1
1.582727809E1,3.409204102E1,1.724925995E0,-3.994219303E0
1.584394402E1,5.116482925E1,-2.930310488E0,-1.505803299E1
1.586060996E1,7.401598358E1,-4.113262177E0,-2.614607430E1
1.587727590E1,7.801499176E1,-1.092203903E1,-4.369593143E0
1.589394184E1,5.315176773E1,-2.574258423E1,2.525534630E1
1.591060777E1,1.107188988E1,-3.605504990E1,1.112572765E1
1.592727371E1,-1.080090237E1,-3.292972565E1,-1.437308788E1
1.594393965E1,-1.120259762E1,-3.162145042E1,-1.244895935E1
1.596060559E1,-1.285514069E1,-2.904976463E1,1.509572029E0
1.597727152E1,-1.258774281E1,-2.385674095E1,1.261705494E1
1.599393746E1,-6.964609623E0,-1.560419464E1,1.185434246E1
1.601060340E1,-1.105484009E0,-7.275078297E0,6.536892414E0
1.602726934E1,1.395613790E0,-2.302194595E0,4.512564182E0
1.604393527E1,-8.042874932E-1,3.377170086E0,1.080000496E1
1.606060121E1,8.691030502E0,1.288475132E1,2.432872581E1
1.607726715E1,3.309722519E1,2.103081703E1,2.265823555E1
1.609393308E1,3.909273911E1,2.317119789E1,5.866602898E0
1.611059902E1,9.722337723E0,2.222363853E1,-4.942674160E0
1.612726496E1,-9.962816238E0,1.866491318E1,2.690729141E0
1.614393090E1,-1.122861958E1,1.320927811E1,1.489352608E1
1.616059684E1,-9.406784177E-1,6.444469452E0,1.495095444E1
1.617726277E1,1.690379715E1,8.186444640E-1,1.600499272E0
1.619392871E1,2.041287041E1,-1.717448473E0,-8.417949677E0
1.621059465E1,2.022862434E1,-4.986044168E-1,-7.751249790E0
1.622726058E1,3.116262627E1,-7.488039494E0,-1.322303677E1
1.624392652E1,2.868844795E1,-7.185347080E0,-1.807269096E1
1.626059246E1,2.282782745E1,-8.054839134E0,-1.864038658E1
1.627725840E1,1.125523949E1,-4.473083019E0,-1.066032410E1
1.629392434E1,2.094317913E0,-1.605883121E0,-2.691925503E-2
1.631059027E1,1.892423630E0,3.858426511E-1,-6.218347549E-1
1.632725621E1,4.863411903E0,3.265305519E0,-6.596413612E0
1.634392215E1,1.392024517E0,7.340282440E0,-8.364111900E0
1.636058808E1,-4.689633369E0,1.302293682E1,2.283051968E0
1.637725402E1,-1.731805354E-1,1.667827225E1,1.943809509E1
1.639391996E1,1.869572067E1,1.763809395E1,2.286042976E1
1.641058590E1,3.304966736E1,1.228983593E1,6.664609432E0
1.642725184E1,1.996601105E1,7.091129780E0,-1.044018459E1
1.644391777E1,5.769394398E0,1.286142230E0,-1.175474167E1
1.646058371E1,3.562314808E-1,-6.559325218E0,-5.720640659E0
1.647724965E1,-4.616951466E0,-1.099053383E1,-4.603491783E0
1.649391558E1,1.622034669E0,-1.604626846E1,-1.125553894E1
1.651058152E1,1.357627773E1,-1.489741421E1,-1.469103336E1
1.652724746E1,2.234088707E1,-8.840581894E0,-5.836991787E0
1.654391340E1,2.736402130E1,-4.794020176E0,2.803789854E0
1.656057934E1,2.572493744E1,3.326023519E-1,5.891727448E0
1.657724527E1,2.065783691E1,4.924129963E0,2.793620348E0
1.659391121E1,1.025773144E1,6.862017155E0,-4.797908306E0
1.661057715E1,-1.978266120E0,8.115556717E0,-6.899405003E0
1.662724308E1,-6.330810547E0,9.576674461E0,-4.286143482E-1
1.664390902E1,-1.059422255E0,1.208524990E1,9.902696609E0
1.666057496E1,8.434102058E0,1.502632809E1,1.750080490E1
1.667724090E1,1.398395443E1,1.535085487E1,9.891330719E0
1.669390684E1,1.473978758E0,1.704287910E1,-1.342672586E0
1.671057277E1,-7.179365158E0,1.638933945E1,-1.655235052E0
1.672723871E1,-3.294916868E0,1.455404472E1,2.217847586E0
1.674390465E1,2.326122761E0,1.148704433E1,1.145533943E1
1.676057058E1,1.028345394E1,9.188139915E0,1.496830177E1
1.677723652E1,1.753879166E1,8.250751495E0,4.013660908E0
1.679390246E1,1.474666691E1,1.105035400E1,-3.965206146E0
1.681056840E1,1.386521053E1,1.302503109E1,-2.522932291E0
1.682723434E1,2.654567528E1,1.310668564E1,4.596911430E0
1.684390027E1,4.977400208E1,1.246092319E1,1.140239811E1
1.686056621E1,5.706941986E1,1.094357395E1,9.657133102E0
1.687723215E1,4.527519608E1,6.867401123E0,2.860320330E0
1.689389808E1,3.377140045E1,1.562214136E0,4.110570431E0
1.691056402E1,2.755783844E1,-5.429314613E0,6.082555294E0
1.692722996E1,1.987538338E1,-8.840881348E0,4.914259434E0
1.694389590E1,1.235563850E1,-1.014197922E1,1.854437590E0
1.696056184E1,9.416654587E0,-1.116730309E1,3.527319670E0
1.697722777E1,8.350951195E0,-1.252223873E1,7.826025486E0
1.699389371E1,7.546065331E0,-1.428784275E1,7.603792191E0
1.701055965E1,5.754140377E0,-1.565414524E1,3.687040567E0
1.702722558E1,3.679563046E0,-1.526919937E1,-1.732403636E0
1.704389152E1,4.307080805E-2,-1.300469208E1,-4.617250443E0
1.706055746E1,-7.600203156E-1,-1.087059307E1,-3.032304525E0
1.707722340E1,-2.542374097E-2,-8.966505051E0,-1.750648856E0
1.709388934E1,2.015055656E0,-7.083951473E0,-2.997309446E0
1.711055527E1,3.215654612E0,-6.202495575E0,-5.784349442E0
1.712722121E1,3.828815222E0,-4.808975220E0,-6.937989235E0
1.714388715E1,4.739583492E0,-4.464707851E0,-5.566303730E0
1.716055308E1,8.989535332E0,-4.261018753E0,-4.621737003E0
1.717721902E1,1.678325844E1,-4.170390606E0,-4.833501816E0
1.719388496E1,2.175345039E1,-2.678765059E0,-2.312064886E0
1.721055090E1,2.472114754E1,-9.397810698E-1,3.577269912E-1
1.722721684E1,2.730868721E1,7.737790346E-1,1.210170031E0
1.724388277E1,3.158944702E1,2.142473459E0,3.945166469E-1
1.726054871E1,3.360719299E1,3.603889942E0,-1.615155302E-2
1.727721465E1,2.930579567E1,5.525924683E0,2.491526604E-1
1.729388058E1,2.256431770E1,8.027321815E0,1.245763302E0
1.731054652E1,2.052593231E1,9.114560127E0,-4.456632212E-2
1.732721246E1,1.517228985E1,1.042463112E1,-2.090130568E0
1.734387840E1,7.586144924E0,1.359242916E1,1.160518974E-1
1.736054434E1,5.395216942E0,1.449003696E1,8.640183449E0
1.737721027E1,3.333501101E0,1.437159157E1,1.491386509E1
1.739387621E1,-4.024428368E0,1.782353783E1,1.409432316E1
1.741054215E1,-1.702283859E1,2.360429764E1,1.745474434E1
1.742720808E1,-1.899572182E1,2.215574265E1,3.157179832E1
1.744387402E1,-4.793122768E0,1.989901161E1,3.827559280E1
1.746053996E1,1.190339565E1,2.110170555E1,2.560409927E1
1.747720590E1,2.602822685E1,2.485036087E1,1.605015755E1
1.749387184E1,3.331018448E1,2.415494728E1,2.498196602E1
1.751053777E1,4.535146713E1,2.014906311E1,3.856362534E1
1.752720371E1,6.654738617E1,1.598884106E1,4.098157501E1
1.754386965E1,7.833502960E1,6.240182400E0,3.523132324E1
1.756053558E1,7.839843750E1,-1.051585770E1,2.464039040E1
1.757720152E1,7.072645569E1,-2.250120735E1,1.845404625E1
1.759386746E1,4.213880157E1,-3.096701241E1,1.313360500E1
1.761053340E1,2.637787819E1,-3.846432495E1,2.794816732E0
1.762719934E1,1.128156090E1,-4.357329941E1,-1.396211982E0
1.764386527E1,-1.065105200E0,-4.501976013E1,6.010172367E0
1.766053121E1,-3.749253988E0,-4.598915482E1,4.369294167E0
1.767719715E1,-2.489732027E0,-4.416641998E1,-5.772385597E0
1.769386308E1,-5.982056633E-2,-4.250251389E1,-1.416909885E1
1.771052902E1,1.005284667E0,-4.283750916E1,-1.781755638E1
1.772719496E1,-6.088238239E0,-4.212055969E1,-1.883899117E1
1.774386090E1,-8.151748657E0,-4.032175446E1,-1.190788174E1
1.776052684E1,2.648256540E0,-3.822354889E1,-5.700301647E0
1.777719277E1,1.591735554E1,-3.461846161E1,-1.674975872E0
1.779385871E1,2.793321419E1,-3.011546707E1,-6.074778438E-1
1.781052465E1,4.847469711E1,-2.653819847E1,-5.076971531E0
1.782719058E1,6.659943390E1,-1.918565178E1,-7.516155243E0
1.784385652E1,7.511428833E1,-8.228019714E0,-7.227819920E0
1.786052246E1,7.344739532E1,1.472184181E0,2.931207716E-1
1.787718840E1,6.067599869E1,5.872884274E0,9.685547829E0
1.789385434E1,4.798715973E1,9.974182129E0,1.605853271E1
1.791052027E1,3.617050552E1,1.470239925E1,1.855992889E1
1.792718621E1,2.688515663E1,2.005693817E1,2.521376991E1
1.794385215E1,1.957747650E1,2.529542542E1,2.245394897E1
1.796051808E1,1.039950657E1,3.113241768E1,1.418166161E1
1.797718402E1,4.682754040E0,3.178236771E1,1.161087322E1
1.799384996E1,-4.251148701E0,3.354348373E1,1.581745529E1
1.801051590E1,-1.475055504E1,3.636043549E1,2.368595314E1
1.802718184E1,-1.200509071E1,3.569971848E1,3.217658615E1
1.804384777E1,-6.912266612E-1,3.323660660E1,3.015494919E1
1.806051371E1,8.092526436E0,3.336222839E1,2.303091812E1
1.807717965E1,1.164078331E1,3.388476181E1,1.946441650E1
1.809384558E1,2.489791870E1,3.191068268E1,2.220868492E1
1.811051152E1,4.436293030E1,3.054258728E1,2.169901276E1
1.812717746E1,6.626084900E1,3.289443207E1,2.075564194E1
1.814384340E1,7.833264160E1,2.567708015E1,1.380897903E1
1.816050934E1,7.839843750E1,7.532605648E0,6.122634888E0
1.817717527E1,7.838438416E1,-1.595653820E1,-4.890630245E0
1.819384121E1,5.436791992E1,-2.578595352E1,-7.616354465E0
1.821050715E1,2.760360146E1,-3.247778320E1,5.001298428E0
1.822717308E1,1.444367599E1,-4.017878342E1,6.448956013E0
1.824383902E1,3.048755169E0,-4.685416031E1,5.808278084E0
1.826050496E1,-4.846662045E0,-5.173402023E1,1.800599098E0
1.827717090E1,-7.631608486E0,-5.221856689E1,-5.228317261E0
1.829383684E1,-3.358625650E0,-5.195775223E1,-1.318116283E1
1.831050277E1,-3.872185230E0,-4.831587601E1,-2.001057816E1
1.832716871E1,-8.000102997E0,-4.563262177E1,-1.692263985E1
1.834383465E1,-3.375973701E0,-4.396602249E1,-8.892027855E0
1.836050058E1,8.158029556E0,-4.196143341E1,-1.664507270E0
1.837716652E1,1.937528229E1,-3.604129410E1,1.654636860E0
1.839383246E1,4.096632004E1,-2.897947502E1,-1.895414591E0
1.841049840E1,6.134658813E1,-2.215574265E1,-5.975177288E0
1.842716434E1,7.069564819E1,-1.661755562E1,-5.736493111E0
1.844383027E1,7.800093079E1,-6.685546398E0,-6.317649841E0
1.846049621E1,7.824978638E1,3.205784082E0,4.655834675E0
1.847716215E1,6.148746490E1,1.148853970E1,2.135295105E1
1.849382808E1,3.867638779E1,1.450469303E1,1.977997017E1
1.851049402E1,2.360310173E1,2.191975021E1,6.223133564E0
1.852715996E1,1.876750565E1,2.838126945E1,-5.024927258E-1
1.854382590E1,1.572413445E1,3.254597855E1,3.667000771E0
1.856049184E1,4.819144726E0,3.588934708E1,1.709641838E1
1.857715777E1,-3.869792461E0,4.152025986E1,2.819881630E1
1.859382371E1,-6.278467655E0,4.371298218E1,3.152812958E1
1.861048965E1,-3.494119167E0,3.868446350E1,3.307688522E1
1.862715558E1,4.806582630E-1,3.374806976E1,2.369582367E1
1.864382152E1,8.774779320E0,3.289742279E1,1.847229195E1
1.866048746E1,2.053191376E1,3.294737244E1,1.170239830E1
1.867715340E1,3.161098099E1,3.415664673E1,7.652246952E0
1.869381934E1,4.900769806E1,3.416711426E1,1.341984653E1
1.871048527E1,7.038248444E1,3.288276672E1,2.328545380E1
1.872715121E1,7.838587952E1,1.725225067E1,7.589435101E0
1.874381715E1,7.839843750E1,-8.011170387E0,-1.562094402E1
1.876048308E1,7.151219940E1,-2.614936447E1,-2.541028023E1
1.877714902E1,3.890191269E1,-3.458286667E1,5.263611794E0
1.879381496E1,1.702792358E1,-4.482893372E1,1.850459480E1
1.881048090E1,2.249552488E0,-5.073083115E1,1.275673580E1
1.882714684E1,-8.296813011E0,-5.610211945E1,-1.299900889E0
1.884381277E1,-7.096513748E0,-6.278587341E1,-1.127258778E1
1.886047871E1,-1.068694401E1,-6.305596161E1,-1.979283142E1
1.887714465E1,-1.442064476E1,-5.697549820E1,-1.778226089E1
1.889381058E1,-6.076572895E0,-5.090221786E1,-5.734100342E0
1.891047652E1,8.723932266E0,-4.314109802E1,2.176571369E0
1.892714246E1,2.287538528E1,-3.126252747E1,1.838286042E0
1.894380840E1,4.104588318E1,-1.552403545E1,-3.538984776E0
1.896047434E1,5.914459229E1,-5.348855972E0,-1.036002445E1
1.897714027E1,6.812036896E1,7.149155617E0,-1.279561901E1
1.899380621E1,7.811219788E1,1.697079468E1,-9.938887596E0
1.901047215E1,7.585098267E1,2.383550453E1,3.190230846E0
1.902713808E1,5.020859909E1,2.051127625E1,1.444517136E1
1.904380402E1,1.679821396E1,1.898345757E1,8.549256325E0
1.906046996E1,5.577071190E0,2.288076782E1,-2.506780863E0
1.907713590E1,8.100302696E0,2.559123802E1,3.158525825E-1
1.909380184E1,4.689932346E0,2.982952499E1,1.153400326E1
1.911046777E1,-8.548358679E-1,3.333321762E1,1.875524330E1
1.912713371E1,-8.127521515E0,3.413780212E1,2.655076027E1
1.914379965E1,-8.824729919E0,2.985853767E1,3.611666489E1
1.916046558E1,-7.528418064E0,2.306292152E1,4.116552353E1
1.917713152E1,-8.659027219E-1,1.708266068E1,3.194208908E1
1.919379746E1,1.931247139E1,1.172542953E1,1.615753555E1
1.921046340E1,3.997419739E1,2.222932339E0,2.439781904E0
1.922712934E1,5.823083496E1,-3.196511984E0,-1.033280659E1
1.924379527E1,6.629045868E1,-1.192223835E1,-2.278445816E1
1.926046121E1,6.094100571E1,-1.441884995E1,-1.177478123E1
1.927712715E1,4.213341904E1,-2.694019127E1,-5.489733219E0
1.929379308E1,1.742004776E1,-3.257139969E1,-1.447089386E1
1.931045902E1,4.065405846E0,-3.034727287E1,-1.920808411E1
1.932712496E1,1.198505044E0,-2.803460884E1,-7.507780075E0
1.934379090E1,-1.546959877E0,-2.380708885E1,1.533500195E0
1.936045684E1,-9.134600163E-1,-1.705962944E1,3.670889139E0
1.937712277E1,1.486840129E0,-9.251549721E0,2.933301449E0
1.939378871E1,3.924229145E-1,-1.120738268E0,3.938287020E0
1.941045465E1,-5.201098919E0,9.023633003E0,1.315514088E1
1.942712058E1,-2.360519648E0,1.719901085E1,2.652772903E1
1.944378652E1,1.255155087E1,2.112294006E1,2.376192474E1
1.946045246E1,1.845105553E1,2.500708961E1,1.039980507E1
1.947711840E1,5.512764454E0,2.289004135E1,7.562815189E0
1.949378434E1,-3.747160196E0,1.843789482E1,1.477388477E1
1.951045027E1,-1.823629975E0,1.435065460E1,1.797099495E1
1.952711621E1,6.673283100E0,7.484450340E0,9.986744881E0
1.954378215E1,1.597478294E1,-1.797308922E0,-3.858725548E0
1.956044808E1,1.836431503E1,-2.434697151E0,-1.445982742E1
1.957711402E1,3.259772110E1,-6.041578293E0,-1.532303810E1
1.959377996E1,3.751317978E1,-7.037291527E0,-7.118348122E0
1.961044590E1,2.700270462E1,-9.743574142E0,-5.527420521E0
1.962711184E1,1.275045490E1,-8.389834404E0,-8.118548393E0
1.964377777E1,5.967101574E0,-4.695316315E0,-1.244148159E1
1.966044371E1,3.578167200E0,-3.329014480E-1,-1.379103374E1
1.967710965E1,-3.403790295E-1,3.023331404E0,-6.365805626E0
1.969377558E1,-7.703094482E0,1.186869907E1,1.026909733E1
1.971044152E1,-1.804188251E0,1.884916115E1,2.093450546E1
1.972710746E1,2.069522476E1,2.039283180E1,1.492852116E1
1.974377340E1,2.355404854E1,1.957747650E1,1.958226204E0
1.976043934E1,7.152745247E0,1.539571953E1,-2.587239504E0
1.977710527E1,5.850451589E-1,8.334500313E0,3.211168051E0
1.979377121E1,6.795616150E-1,3.675973713E-1,8.996115685E0
1.981043715E1,3.765405416E0,-9.385847092E0,4.456333160E0
1.982710308E1,1.055593681E1,-1.276869965E1,-1.236072350E1
1.984376902E1,1.490010643E1,-8.786145210E0,-1.388734436E1
1.986043496E1,1.870858383E1,-5.479264736E0,1.541276932E0
1.987710090E1,1.925683784E1,-4.331607342E0,1.120588779E1
1.989376684E1,1.360618782E1,-1.944168448E0,7.270591736E0
1.991043277E1,7.234400272E0,-5.264209956E-2,-7.696813107E0
1.992709871E1,1.935793519E0,1.309173107E0,-1.578455353E1
1.994376465E1,-4.731208801E0,3.421437263E0,-1.028943634E1
1.996043058E1,-6.267101765E0,6.773183823E0,4.359723091E0
1.997709652E1,2.295614243E0,1.041715336E1,1.573490238E1
1.999376246E1,1.569721603E1,1.228654575E1,9.859326363E0
2.001042840E1,1.627538109E1,1.392951775E1,-2.226521492E0
2.002709434E1,4.106980801E0,1.406650734E1,-5.544469357E0
2.004376027E1,-1.919941068E0,1.331336594E1,-4.277170449E-2
2.006042621E1,4.262215197E-1,1.162014484E1,8.449654579E0
2.007709215E1,9.434301376E0,1.014796066E1,1.626162338E1
2.009375808E1,1.834517288E1,7.502097130E0,1.128425217E1
2.011042402E1,1.794676781E1,8.405088425E0,1.833799481E0
2.012708996E1,2.007338905E1,1.216002560E1,-4.660321236E0
2.014375590E1,2.704009247E1,1.508973789E1,-5.863312721E0
2.016042184E1,3.426073456E1,1.411167145E1,4.494917393E0
2.017708777E1,3.430649567E1,9.748359680E0,9.862616539E0
2.019375371E1,2.837020302E1,5.059324265E0,4.282853603E0
2.021041965E1,2.067996979E1,2.482852697E0,-4.498506486E-1
2.022708558E1,1.746132469E1,-5.461617708E-1,-7.417750359E-2
2.024375152E1,1.696600914E1,-5.210371494E0,2.353640079E0
2.026041746E1,1.399023533E1,-9.338289261E0,4.428516388E0
2.027708340E1,1.199462128E1,-1.131595707E1,8.217551231E0
2.029374934E1,9.289237022E0,-1.191655540E1,7.652246952E0
2.031041527E1,4.076771736E0,-1.121605682E1,3.346063375E0
2.032708121E1,3.305086195E-1,-1.045992470E1,1.738684773E0
2.034374715E1,1.195214868E0,-9.958030701E0,2.659622431E0
2.036041308E1,3.498605728E0,-9.182456970E0,5.961119533E-1
2.037707902E1,7.971090317E0,-7.607381344E0,-3.396910906E0
2.039374496E1,9.625727654E0,-4.333701134E0,-5.834599018E0
2.041041090E1,7.544569969E0,-4.384847581E-1,-4.250849247E0
2.042707684E1,1.274237919E1,2.615355253E0,2.803789854E0
2.044374277E1,2.563191605E1,6.337988853E0,8.460422516E0
2.046040871E1,3.410848999E1,1.240678501E1,9.309576035E0
2.047707465E1,2.969851875E1,1.613031578E1,9.006584167E0
2.049374058E1,2.390848541E1,1.584407520E1,1.090917778E1
2.051040652E1,2.073560333E1,1.430130291E1,1.147179031E1
2.052707246E1,1.827129555E1,1.240080357E1,7.044170856E0
2.054373840E1,1.695434570E1,1.078086281E1,4.560121536E0
2.056040434E1,1.481246948E1,8.890831947E0,4.942076206E0
2.057707027E1,1.299541950E1,7.572984695E0,6.591030121E0
2.059373621E1,1.224706459E1,5.810371399E0,6.693921566E0
2.061040215E1,1.067527866E1,4.652843475E0,5.556134224E0
2.062706808E1,9.053244591E0,2.850450039E0,4.642374992E0
2.064373402E1,7.249654293E0,8.596215248E-1,4.746462822E0
2.066039996E1,4.943571568E0,-9.726824164E-1,5.651547909E0
2.067706590E1,3.796512127E0,-2.001596212E0,7.466204643E0
2.069373184E1,4.793421745E0,-2.777169704E0,8.652446747E0
2.071039777E1,7.563413143E0,-3.996013880E0,9.485747337E0
2.072706371E1,9.178269386E0,-5.717350483E0,9.434600830E0
2.074372965E1,6.879065990E0,-7.085147858E0,9.030811310E0
2.076039558E1,4.023830414E0,-8.749654770E0,1.017039394E1
2.077706152E1,3.882952929E0,-8.057531357E0,1.330499077E1
2.079372746E1,8.821140289E0,-6.973582268E0,1.509542084E1
2.081039340E1,1.355354595E1,-8.761918068E0,1.635913086E1
2.082705934E1,1.180768204E1,-8.461619377E0,1.682124329E1
2.084372527E1,8.022536278E0,-8.191828728E0,1.585065556E1
2.086039121E1,6.162714481E0,-7.165307522E0,1.539452362E1
2.087705715E1,4.448556423E0,-7.129714012E0,1.733450508E1
2.089372308E1,3.599702597E0,-6.601498604E0,1.724955940E1
2.091038902E1,2.288435698E0,-5.771189213E0,1.312074375E1
2.092705496E1,3.881756544E0,-4.502993107E0,9.417252541E0
2.094372090E1,5.460421085E0,-3.335295677E0,6.325426579E0
2.096038684E1,6.962814808E0,-1.986641049E0,6.332605362E0
2.097705277E1,4.817350388E0,-2.985046208E-1,5.392524719E0
2.099371871E1,4.117748737E0,1.121635586E-1,6.305984974E0
2.101038465E1,3.273979664E0,1.177866936E0,6.489634037E0
2.102705058E1,3.440280676E0,1.090229869E0,5.958726406E0
2.104371652E1,7.804490089E0,2.208276272E0,4.202095509E0
2.106038246E1,5.819344521E0,4.467100620E0,5.013561726E0
2.107704840E1,1.392024517E0,2.888735056E0,3.236292601E0
2.109371434E1,-1.214955688E0,1.287936807E0,4.122534275E0
2.111038027E1,-1.715055585E0,1.006780148E0,6.291029930E0
2.112704621E1,2.650051117E-1,1.058824062E0,6.390930176E0
2.114371215E1,3.398107290E0,1.613061547E0,5.524429321E0
2.116037808E1,5.439484119E0,4.125824451E0,4.217947960E0
2.117704402E1,6.990033388E-1,5.969793320E0,5.961717606E0
2.119370996E1,-1.162313581E0,7.849654675E0,8.793324471E0
2.121037590E1,-5.156532526E-1,7.388139248E0,9.048159599E0
2.122704184E1,-1.947159469E-1,5.050949574E0,1.074138069E1
2.124370777E1,2.969492912E0,3.227020502E0,1.162253761E1
2.126037371E1,3.704687595E0,7.093223572E0,-1.357029557E0
2.127703965E1,2.785843849E0,3.679263830E0,1.433240986E1
2.129370558E1,9.738788009E-1,5.609972477E0,2.298904419E1
2.131037152E1,-8.434699476E-2,5.787340641E0,4.789533615E0
2.132703746E1,-2.575873613E0,6.957729816E0,6.323033810E0
2.134370340E1,-3.816552162E0,7.267002583E0,7.943572998E0
2.136036934E1,-2.990130901E0,5.341976643E0,9.322735786E0
2.137703527E1,-2.307877541E0,4.281357765E0,7.677969456E0
2.139370121E1,-2.498405933E0,4.608875751E0,5.540580750E0
2.141036715E1,-3.766901016E0,5.030311584E0,3.792623997E0
2.142703308E1,-5.174777985E0,6.367899418E0,3.690928936E0
2.144369902E1,-4.451547623E0,5.596213818E0,4.796113968E0
2.146036496E1,-3.247658491E0,4.748556614E0,5.841478348E0
2.147703090E1,-2.184048891E0,4.690530777E0,5.427220821E0
2.149369684E1,-1.866102576E0,4.819743156E0,5.163711071E0
2.151036277E1,-2.161616087E0,5.406283855E0,4.879264355E0
2.152702871E1,-2.881855726E0,6.320042610E0,4.514657974E0
2.154369465E1,-3.245265722E0,6.947859764E0,3.887439489E0
2.156036058E1,-3.803690672E0,7.864908695E0,3.976871252E0
2.157702652E1,-3.304488182E0,7.795217991E0,4.510171413E0
2.159369246E1,-2.768495798E0,7.365706444E0,6.113960743E0
2.161035840E1,-2.658725023E0,7.529016495E0,8.142476082E0
2.162702434E1,-3.541975737E0,7.988139153E0,7.753044605E0
2.164369027E1,-3.976572037E0,8.178668022E0,6.005087376E0
2.166035621E1,-4.329812527E0,8.913264275E0,5.787041664E0
2.167702215E1,-4.532604218E0,9.313464165E0,5.935994625E0
2.169368808E1,-4.422235489E0,9.577870369E0,5.235795021E0
2.171035402E1,-4.189832687E0,9.676275253E0,4.740480900E0
2.172701996E1,-5.465207100E0,9.064909935E0,5.787340641E0
2.174368590E1,-7.194918633E0,9.243174553E0,9.106185913E0
2.176035184E1,-6.405885220E0,7.874480247E0,9.148957253E0
