"Time (s)","Gyroscope x (rad/s)","Gyroscope y (rad/s)","Gyroscope z (rad/s)"
2.796933500E-2,-3.975202441E-1,-3.426187932E-1,1.028543562E-1
4.463527200E-2,-2.780961990E-1,-1.891390085E-1,5.199986324E-2
6.130121000E-2,-7.918334752E-2,-9.888373315E-2,-3.787361458E-2
7.796714700E-2,5.520690605E-2,-7.269290835E-2,-4.680751264E-2
9.463308500E-2,5.031998456E-2,-8.956804872E-2,-1.305723470E-2
1.112990220E-1,-2.611446939E-2,-1.627954692E-1,7.635809598E-4
1.279649600E-1,-5.833758786E-2,-2.613737583E-1,2.382372692E-2
1.446308970E-1,-6.185005978E-2,-3.386481702E-1,4.940368980E-2
1.612968350E-1,-6.146826968E-2,-3.322340846E-1,1.824958436E-2
1.779627720E-1,-3.695731983E-2,-2.157879770E-1,-2.718348242E-2
1.946287100E-1,3.191768378E-2,-1.792124510E-1,-1.198822167E-2
2.112946470E-1,8.116865903E-2,-1.887572110E-1,4.772381112E-2
2.279605850E-1,9.728021920E-2,-2.835176289E-1,4.718930274E-2
2.446265220E-1,1.158352345E-1,-3.112356067E-1,2.519817278E-2
2.612924600E-1,1.805869043E-1,-2.618319094E-1,-3.161225095E-2
2.779583970E-1,2.621373534E-1,-2.056323588E-1,-1.114064679E-1
2.946243350E-1,4.525744319E-1,-1.979965419E-1,-1.027780026E-1
3.112902720E-1,6.215549111E-1,-3.966803253E-1,1.928805560E-1
3.279562100E-1,6.928733587E-1,-3.925569654E-1,5.936841965E-1
3.446221470E-1,4.570795596E-1,-8.076395988E-1,6.354520917E-1
3.612880850E-1,3.056614697E-1,-1.183168769E0,2.909243405E-1
3.779540220E-1,4.375318885E-1,-1.160108566E0,2.084576152E-2
3.946199600E-1,5.761218667E-1,-9.787580967E-1,-1.229365356E-2
4.112858970E-1,3.126864135E-1,-1.266704440E0,-1.305723470E-2
4.279518350E-1,-2.806923687E-1,-1.543273449E0,-9.185878932E-2
4.446177720E-1,-8.099303246E-1,-1.321758628E0,-9.949459881E-2
4.612837100E-1,-1.020449638E0,-1.159574032E0,8.552107215E-2
4.779496470E-1,-7.693842053E-1,-4.356229603E-1,3.164279461E-1
4.946155850E-1,-2.305250913E-1,1.713475734E-1,3.534616232E-1
5.112815220E-1,-4.294379354E-1,-7.773254067E-2,2.568686306E-1
5.279474600E-1,-5.875755548E-1,-1.537852138E-1,2.121227980E-1
5.446133970E-1,-6.690496206E-1,-2.507599890E-1,8.468113095E-2
5.612793350E-1,-6.210203767E-1,-3.015381396E-1,-8.804088831E-2
5.779452720E-1,-5.844448805E-1,-3.677406013E-1,-6.261363626E-2
5.946112100E-1,-6.056724191E-1,-5.568795800E-1,1.229365356E-2
6.112771470E-1,-5.958222151E-1,-6.450732350E-1,-7.360920310E-2
6.279430850E-1,-3.129918277E-1,-3.369682729E-1,-1.405752599E-1
6.446090220E-1,-3.039052337E-2,-2.409861535E-1,-2.847393453E-1
6.612749600E-1,1.729510874E-1,-4.549415410E-1,-3.120755553E-1
6.779408970E-1,2.104429156E-1,-7.604503036E-1,-2.441931963E-1
6.946068350E-1,1.141553521E-1,-9.324087501E-1,-1.512653977E-1
7.112727720E-1,-8.292489499E-2,-8.649845123E-1,-1.161406636E-1
7.279387100E-1,-1.415679157E-1,-8.486438990E-1,-2.075413018E-1
7.446046470E-1,-2.702313066E-1,-9.184352160E-1,-3.759109080E-1
7.612705850E-1,-4.253909588E-1,-9.388228059E-1,-4.018726647E-1
7.779365220E-1,-5.044979453E-1,-9.116393328E-1,-3.636936247E-1
7.946024600E-1,-5.179370046E-1,-7.706822753E-1,-4.108065665E-1
8.112683970E-1,-3.373500705E-1,-4.282162189E-1,-6.094903350E-1
8.279343350E-1,-1.358410567E-1,-2.769508064E-1,-8.093958497E-1
8.446002720E-1,-1.552360058E-1,-4.679224193E-1,-9.263764620E-1
8.612662100E-1,-2.406807244E-1,-7.991638184E-1,-8.888082504E-1
8.779321470E-1,-2.344193608E-1,-1.050534725E0,-7.215076685E-1
8.945980850E-1,-1.003345400E-1,-9.743293524E-1,-4.980075061E-1
9.112640220E-1,1.191949919E-1,-7.441096306E-1,-3.999637067E-1
9.279299600E-1,2.580903769E-1,-6.482802629E-1,-3.292561173E-1
9.445958970E-1,2.998582423E-1,-6.174315810E-1,-3.016908467E-1
9.612618350E-1,3.041343093E-1,-5.099193454E-1,-3.621664643E-1
9.779277720E-1,2.843575478E-1,-3.942368627E-1,-3.417788446E-1
9.945937100E-1,1.943313628E-1,-4.085158110E-1,-2.293033600E-1
1.011259647E0,6.566796452E-3,-4.565450549E-1,-1.132390574E-1
1.027925585E0,4.909825698E-2,-1.351538301E-1,1.313359290E-2
1.044591522E0,1.196531355E-1,7.116574794E-2,1.169806048E-1
1.061257460E0,9.842558950E-2,4.528035223E-2,2.990946770E-1
1.077923397E0,-6.345357746E-2,4.130972922E-2,4.079813063E-1
1.094589335E0,-2.095266134E-1,1.123991162E-1,3.766745031E-1
1.111255272E0,-2.563341260E-1,3.492619395E-1,4.597521126E-1
1.127921210E0,-2.510654330E-1,3.405571282E-1,4.628064334E-1
1.144587147E0,-2.077703774E-1,2.189186662E-1,2.816850245E-1
1.161253085E0,-2.316704690E-1,-5.261072889E-2,3.000873141E-2
1.177919022E0,-1.900553107E-1,-1.409570426E-1,-1.476765573E-1
1.194584960E0,3.054323897E-4,1.110246703E-1,-8.269581944E-2
1.211250897E0,1.355356276E-1,2.303723842E-1,-1.672242396E-2
1.227916835E0,2.251800299E-1,3.661370873E-1,-1.107192412E-2
1.244582772E0,2.181550860E-1,2.517526448E-1,-4.871646687E-2
1.261248710E0,1.463784724E-1,-8.101594448E-2,-1.961639524E-1
1.277914647E0,1.812741160E-1,-4.948004782E-1,-2.845102847E-1
1.294580585E0,3.601811528E-1,-6.177369952E-1,-2.373209596E-1
1.311246522E0,5.488619804E-1,-6.222421527E-1,-1.159115955E-1
1.327912460E0,5.673406720E-1,-6.264418364E-1,2.947422490E-2
1.344578397E0,3.830885887E-1,-6.768381596E-1,5.283980444E-2
1.361244335E0,1.221729591E-1,-7.551816106E-1,-1.682932526E-1
1.377910272E0,-1.361464858E-1,-7.864120603E-1,-4.295142889E-1
1.394576210E0,-4.060723484E-1,-5.621483326E-1,-6.257545948E-1
1.411242147E0,-5.103775263E-1,-3.793470263E-1,-4.253909588E-1
1.427908085E0,-4.755582213E-1,-5.112174749E-1,-1.992946416E-1
1.444574022E0,-2.877173126E-1,-7.656426430E-1,-9.598212689E-2
1.461239960E0,7.971785218E-2,-9.763910174E-1,-2.327394783E-1
1.477905897E0,2.541197538E-1,-1.025947452E0,-3.077994883E-1
1.494571835E0,2.817613780E-1,-1.058399558E0,-2.490037531E-1
1.511237772E0,3.092502952E-1,-1.044578791E0,-9.644027799E-2
1.527903710E0,3.149007857E-1,-6.950113773E-1,9.460768104E-2
1.544569647E0,5.258781910E-1,-3.886627257E-1,3.268890083E-1
1.561235585E0,8.210022449E-1,-6.581304669E-1,1.670715213E-1
1.577901522E0,8.953750730E-1,-1.185764909E0,-1.476765573E-1
1.594567460E0,8.202387094E-1,-1.510134101E0,-1.919642538E-1
1.611233397E0,5.969675779E-1,-1.221805930E0,-9.086613543E-3
1.627899335E0,6.913462281E-1,-7.358629704E-1,1.071304083E-1
1.644565272E0,7.211259007E-1,-3.039052188E-1,2.630536556E-1
1.661231210E0,5.871174335E-1,-3.409388959E-1,2.910007238E-1
1.677897147E0,4.337903559E-1,-8.064942360E-1,6.429351866E-2
1.694563085E0,3.618610203E-1,-1.365664601E0,-2.114355713E-1
1.711229022E0,3.385718167E-1,-1.509599566E0,-9.178243577E-2
1.727894960E0,4.571559429E-1,-1.379561782E0,1.866191924E-1
1.744560897E0,6.724094152E-1,-1.226921916E0,3.795761168E-1
1.761226835E0,9.301943183E-1,-1.297018647E0,4.222602844E-1
1.777892772E0,1.017777085E0,-1.561981201E0,2.937496006E-1
1.794558710E0,7.141009569E-1,-1.719508052E0,1.333212405E-1
1.811224647E0,2.357174456E-1,-1.624213099E0,1.643989831E-1
1.827890585E0,-5.131264031E-2,-1.330921650E0,2.665661275E-1
1.844556522E0,-3.886627033E-2,-9.547816515E-1,3.313941360E-1
1.861222460E0,7.452550530E-2,-8.096249104E-1,3.443750143E-1
1.877888397E0,1.916588247E-1,-1.049618363E0,2.412152290E-1
1.894554335E0,2.465602905E-1,-1.392008066E0,4.444041103E-2
1.911220272E0,8.643736690E-2,-1.439731956E0,-4.436405376E-2
1.927886210E0,-1.544724256E-1,-1.182557821E0,-6.643154658E-3
1.944552147E0,-2.483928949E-1,-8.718567491E-1,9.789107740E-2
1.961218085E0,-1.782197952E-1,-7.927497625E-1,2.739728391E-1
1.977884022E0,8.620829135E-2,-1.008843184E0,4.075995386E-1
1.994549960E0,4.253146052E-1,-1.154992580E0,2.541197538E-1
2.011215897E0,6.375901103E-1,-9.502001405E-1,1.397353224E-2
2.027881835E0,6.189587116E-1,-5.597048402E-1,7.964149863E-2
2.044547772E0,5.539016128E-1,-3.712530732E-1,3.484983444E-1
2.061213710E0,4.994583130E-1,-3.719402850E-1,5.071704984E-1
2.077879647E0,4.297433794E-1,-4.355465770E-1,4.474584460E-1
2.094545585E0,4.269181192E-1,-5.177078843E-1,4.119519293E-1
2.111211522E0,4.537961781E-1,-6.304888129E-1,4.560869038E-1
2.127877460E0,5.784125924E-1,-6.376664639E-1,4.802160859E-1
2.144543397E0,7.470112443E-1,-4.969384968E-1,5.206094980E-1
2.161209335E0,9.140064120E-1,-3.811796308E-1,6.193405390E-1
2.177875272E0,9.963204265E-1,-3.141372204E-1,6.631700993E-1
2.194541210E0,8.647554517E-1,-1.397353113E-1,6.428588033E-1
2.211207147E0,5.799397230E-1,5.535962060E-2,5.717694163E-1
2.227873085E0,2.638935745E-1,8.101594448E-2,5.098429918E-1
2.244539022E0,2.993237413E-2,8.544471115E-2,5.265654325E-1
2.261204960E0,2.496909723E-2,8.391755074E-2,5.469530225E-1
2.277870897E0,3.245219216E-2,1.104901657E-1,5.681042671E-1
2.294536835E0,-9.972367436E-2,1.576031148E-1,6.469821334E-1
2.311202772E0,-4.259254634E-1,1.941786408E-1,7.228820920E-1
2.327868710E0,-6.867647171E-1,2.948949635E-1,6.491965652E-1
2.344534647E0,-7.200568318E-1,4.316523373E-1,5.183187723E-1
2.361200585E0,-5.681806207E-1,4.935787320E-1,4.219548404E-1
2.377866522E0,-2.991710305E-1,4.876991808E-1,3.549124300E-1
2.394532460E0,1.084284950E-2,3.669006526E-1,3.058905303E-1
2.411198397E0,2.396117151E-1,1.540142894E-1,2.553414702E-1
2.427864335E0,2.879463732E-1,3.161225095E-2,2.354883701E-1
2.444530272E0,2.894735336E-1,4.749473557E-2,2.411388755E-1
2.461196210E0,2.914588451E-1,1.056796089E-1,2.142608166E-1
2.477862147E0,3.336085379E-1,1.150716543E-1,1.449276656E-1
2.494528085E0,4.078285992E-1,6.337722391E-2,7.047852129E-2
2.511194022E0,4.738783538E-1,-5.742128938E-2,-8.017600514E-3
2.527859960E0,4.601338804E-1,-1.488219351E-1,6.872228696E-4
2.544525897E0,3.037525117E-1,-1.187368408E-1,7.414371520E-2
2.561191835E0,1.569158882E-1,-1.611155830E-2,1.362992078E-1
2.577857772E0,1.016326249E-1,-1.527161920E-3,1.247691289E-1
2.594523710E0,1.238528341E-1,-1.122464016E-1,3.772090003E-2
2.611189647E0,1.697440445E-1,-2.793942690E-1,-1.260672212E-1
2.627855585E0,1.023962051E-1,-2.869537175E-1,-2.764926851E-1
2.644521522E0,-7.040216774E-2,-1.498909444E-1,-3.171915412E-1
2.661187460E0,-2.571740746E-1,1.832594397E-3,-2.957349122E-1
2.677853397E0,-3.027598560E-1,8.842267841E-2,-3.119228184E-1
2.694519335E0,-2.290742993E-1,7.170025259E-2,-3.608683646E-1
2.711185272E0,-1.092684343E-1,-1.175914705E-2,-3.779725730E-1
2.727851210E0,-4.909825698E-2,-7.765618712E-2,-3.450622559E-1
2.744517147E0,-6.612611562E-2,-2.664897591E-2,-2.555705607E-1
2.761183085E0,-4.726566374E-2,4.512763396E-2,-1.934914142E-1
2.777849022E0,1.320995111E-2,7.246383280E-2,-1.622609496E-1
2.794514960E0,5.039634556E-2,2.138026757E-3,-1.539379209E-1
2.811180897E0,1.634063199E-2,-1.642462611E-1,-2.216675580E-1
2.827846835E0,-1.007163301E-1,-1.964693815E-1,-2.877173126E-1
2.844512772E0,-2.316704690E-1,-2.657261863E-2,-1.981492639E-1
2.861178710E0,-2.595411837E-1,2.117410004E-1,-5.337430909E-2
2.877844647E0,-1.944840699E-1,3.175733387E-1,6.108647678E-3
2.894510585E0,-1.033125073E-1,1.479056329E-1,-1.191949919E-1
2.911176522E0,-5.253437161E-2,-1.341611743E-1,-3.623955250E-1
2.927842460E0,-9.101885557E-2,-2.010508776E-1,-4.395935535E-1
2.944508397E0,-1.397353113E-1,1.527161949E-4,-3.195586503E-1
2.961174335E0,-1.565341055E-1,2.536616027E-1,-1.691331863E-1
2.977840272E0,-1.589775532E-1,3.706422150E-1,-1.109483168E-1
2.994506210E0,-1.592066288E-1,2.809978127E-1,-1.808159798E-1
3.011172147E0,-1.427132785E-1,6.856957078E-2,-3.195586503E-1
3.027838085E0,-1.128572673E-1,-9.162971750E-3,-3.922515512E-1
3.044504022E0,-8.384118974E-2,1.370627880E-1,-3.345248103E-1
3.061169960E0,-7.681624591E-2,3.289506733E-1,-1.876118481E-1
3.077835897E0,-3.428478539E-2,3.665952384E-1,-7.399099320E-2
3.094501835E0,3.787361458E-2,2.525162399E-1,-7.086031139E-2
3.111167772E0,9.636391699E-2,5.864302069E-2,-1.585957706E-1
3.127833710E0,1.190422773E-1,-1.649334840E-2,-2.289215773E-1
3.144499647E0,1.000291109E-1,9.728021920E-2,-1.937204897E-1
3.161165585E0,7.796161622E-2,2.410625070E-1,-1.053741723E-1
3.177831522E0,6.429351866E-2,2.028834671E-1,-5.719221383E-2
3.194497460E0,5.787943676E-2,7.887791097E-2,-2.550360374E-2
3.211163397E0,9.246965498E-2,2.313650399E-2,1.725693047E-2
3.227829335E0,1.346956789E-1,8.475748822E-3,-1.076649129E-2
3.244495272E0,6.643154472E-2,6.925679743E-2,-8.987347782E-2
3.261161210E0,-5.024362728E-2,1.571449637E-1,-1.010981202E-1
3.277827147E0,-9.567669779E-2,2.076176703E-1,-8.941533417E-2
3.294493085E0,-8.032871783E-2,1.546251476E-1,-8.177952468E-2
3.311159022E0,-3.871355578E-2,5.971203372E-2,-7.406735420E-2
3.327824960E0,2.855792828E-2,9.010255337E-3,-5.581776798E-2
3.344490897E0,4.886918142E-2,1.359174121E-2,-1.618791744E-2
3.361156835E0,2.390008420E-2,5.482511222E-2,-3.596466407E-2
3.377822772E0,-1.290451828E-2,7.460185885E-2,-8.361211419E-2
3.394488710E0,-2.519817278E-2,4.108065739E-2,-7.208204269E-2
3.411154647E0,2.993237413E-2,6.337722298E-3,-1.832594350E-2
3.427820585E0,9.644027799E-2,-7.101302966E-3,1.695149764E-2
3.444486522E0,1.167515293E-1,-6.872228812E-3,-3.817904799E-4
3.461152460E0,8.834631741E-2,-1.679878123E-2,-1.725693047E-2
3.477818397E0,3.168861195E-2,1.198822167E-2,-5.276344717E-2
3.494484335E0,-3.046688065E-2,6.207913160E-2,-8.193223923E-2
3.511150272E0,-6.391172856E-2,1.092684343E-1,-4.948004708E-2
3.527816210E0,-3.581194952E-2,7.696896046E-2,1.389717404E-2
3.544482147E0,6.009382382E-2,4.276053514E-3,5.963567272E-2
3.561148085E0,1.265253723E-1,-1.010217592E-1,4.444041103E-2
3.577814022E0,9.598212689E-2,-1.785252392E-1,-4.031707719E-2
3.594479960E0,-1.542433538E-2,-9.880737960E-2,-6.627883017E-2
3.611145897E0,-7.941242307E-2,7.971785218E-2,-4.741837829E-2
3.627811835E0,-4.688387364E-2,1.912770271E-1,1.527161920E-3
3.644477772E0,3.787361458E-2,1.177441850E-1,3.145953640E-2
3.661143710E0,1.186604798E-1,-7.353284955E-2,3.031416424E-2
3.677809647E0,1.515708268E-1,-2.144135386E-1,-3.909534588E-2
3.694475585E0,1.094975099E-1,-2.172387838E-1,-1.165224537E-1
3.711141522E0,-2.748891478E-3,-9.773836285E-2,-1.043815166E-1
3.727807460E0,-1.119409725E-1,6.429351866E-2,-2.489273995E-2
3.744473397E0,-2.021198869E-1,9.193515033E-2,1.214093715E-2
3.761139335E0,-2.108247131E-1,-3.512472659E-2,-2.825249545E-2
3.777805272E0,-1.481347084E-1,-1.933387071E-1,-8.170316368E-2
3.794471210E0,-6.910407543E-2,-2.809214294E-1,-6.070468575E-2
3.811137147E0,-6.986765563E-2,-1.899789423E-1,-5.345067009E-3
3.827803085E0,-1.347720474E-1,-6.872228812E-3,2.321286127E-2
3.844469022E0,-1.888335794E-1,8.437569439E-2,4.428769462E-3
3.861134960E0,-1.679878086E-1,-2.993237413E-2,-6.551524997E-2
3.877800897E0,-9.285144508E-2,-2.090684772E-1,-1.259144992E-1
3.894466835E0,1.298087649E-3,-2.553414702E-1,-1.071304083E-1
3.911132772E0,2.748891525E-2,-1.635590494E-1,-3.917170316E-2
3.927798710E0,-3.077231348E-2,-5.283980444E-2,-6.261364091E-3
3.944464647E0,-1.395826042E-1,1.030834299E-2,-8.933897130E-3
3.961130585E0,-2.210566849E-1,-3.489565104E-2,-8.338304609E-2
3.977796522E0,-4.300487936E-1,-6.666062027E-2,-1.501963735E-1
3.994462460E0,-6.306415200E-1,1.785252392E-1,-7.009673119E-2
4.011128397E0,-5.796343088E-1,4.088976085E-1,6.345357746E-2
4.027794335E0,-4.095084667E-1,3.636172712E-1,8.422297984E-2
4.044460272E0,-2.383899838E-1,1.102610901E-1,-4.833467677E-2
4.061126210E0,-1.019380614E-1,-1.844048053E-1,-1.561523080E-1
4.077792147E0,1.443168055E-2,-3.675115108E-1,-1.506545246E-1
4.094458085E0,8.353576064E-2,-3.313177824E-1,-1.015562713E-1
4.111124022E0,9.056070447E-2,-2.325104028E-1,-8.208495378E-2
4.127789960E0,8.017600514E-3,-1.749363989E-1,-1.069776937E-1
4.144455897E0,-9.758564830E-2,-1.718057245E-1,-1.598175019E-1
4.161121835E0,-1.534797698E-1,-1.650862098E-1,-2.051742077E-1
4.177787772E0,-1.544724256E-1,-1.254563481E-1,-2.010508776E-1
4.194453710E0,-1.371391416E-1,-7.956513762E-2,-1.627954692E-1
4.211119647E0,-1.437823027E-1,-1.127809063E-1,-1.406516135E-1
4.227785585E0,-1.534797698E-1,-1.781434417E-1,-1.430187225E-1
4.244451522E0,-1.375209391E-1,-1.930332631E-1,-1.373682171E-1
4.261117460E0,-9.407317638E-2,-1.448513120E-1,-1.232419685E-1
4.277783397E0,-6.345357746E-2,-6.811141968E-2,-9.743293375E-2
4.294449335E0,-5.826122686E-2,-3.321577236E-2,-7.460185885E-2
4.311115272E0,-4.382954910E-2,-4.306596518E-2,-9.567669779E-2
4.327781210E0,7.635809743E-5,-1.350774765E-1,-1.344666034E-1
4.344447147E0,3.298669681E-2,-2.293797284E-1,-1.218675226E-1
4.361113085E0,3.840812296E-2,-1.337030232E-1,-4.100430012E-2
4.377779022E0,3.733910993E-2,3.359756246E-2,7.009673119E-2
4.394444960E0,1.214093715E-2,9.285144508E-2,9.987638891E-2
4.411110897E0,1.374445739E-3,3.039052337E-2,1.649334840E-2
4.427776835E0,-7.635809743E-5,-6.391172856E-2,-8.315397054E-2
4.444442772E0,1.153007243E-2,-7.704532146E-2,-5.390881747E-2
4.461108710E0,5.787943676E-2,2.130390890E-2,3.825540841E-2
4.477774647E0,1.001054645E-1,8.132137358E-2,9.262236953E-2
4.494440585E0,9.888373315E-2,7.429642975E-2,8.452841640E-2
4.511106522E0,7.948877662E-2,1.252272818E-2,4.130972922E-2
4.527772460E0,4.718930274E-2,-4.925097153E-2,-3.894262947E-3
4.544438397E0,8.246674202E-3,3.627009690E-2,8.246674202E-3
4.561104335E0,-4.535670951E-2,1.672242284E-1,3.283398226E-2
4.577770272E0,-7.742711157E-2,1.944077164E-1,3.527744114E-2
4.594436210E0,-5.757400393E-2,1.216384470E-1,1.992946304E-2
4.611102147E0,1.962403022E-2,1.794415340E-2,1.183550525E-2
4.627768085E0,1.274416596E-1,1.221729559E-3,1.664606482E-2
4.644434022E0,1.733328849E-1,5.398517475E-2,3.680460155E-2
4.661099960E0,1.561523080E-1,1.147662178E-1,3.565923125E-2
4.677765897E0,1.046105921E-1,1.156825200E-1,2.290742996E-4
4.694431835E0,3.405570984E-2,5.810851231E-2,-6.337722391E-2
4.711097772E0,8.552107029E-3,6.352993846E-2,-8.300124854E-2
4.727763710E0,3.008509055E-2,1.271362305E-1,-2.199113183E-2
4.744429647E0,7.269290835E-2,1.356119812E-1,4.718930274E-2
4.761095585E0,1.117118970E-1,7.231111825E-2,6.246092543E-2
4.777761522E0,1.072067693E-1,1.069013379E-3,3.054323839E-3
4.794427460E0,4.772381112E-2,-1.878409274E-2,-5.787943676E-2
4.811093397E0,5.650499370E-3,3.031416424E-2,-2.008217946E-2
4.827759335E0,-4.963276442E-3,7.681624591E-2,3.084867075E-2
4.844425272E0,5.803215317E-3,6.551524997E-2,1.305723470E-2
4.861091210E0,1.908952487E-3,3.588830587E-3,-1.252272818E-2
4.877757147E0,-1.023198478E-2,-3.489565104E-2,-4.810560029E-3
4.894423085E0,-2.901607752E-2,-3.298669681E-2,1.756236190E-3
4.911089022E0,-3.573558852E-2,9.010255337E-3,7.559451740E-3
4.927754960E0,-4.138609022E-2,3.161225095E-2,2.474002354E-2
4.944420897E0,-2.771798894E-2,-5.268708803E-3,2.565632015E-2
4.961086835E0,4.581485875E-3,-6.253728271E-2,-6.566796452E-3
4.977752772E0,-8.628465235E-3,-7.994692773E-2,-1.183550525E-2
4.994418710E0,-5.108356848E-2,-4.780016840E-2,3.817904799E-4
5.011084647E0,-6.803506613E-2,3.359756200E-3,2.122755162E-2
5.027750585E0,-7.658717036E-2,-2.214384824E-2,4.757109284E-2
5.044416522E0,-6.696604937E-2,-7.925970852E-2,6.635518372E-2
5.061082460E0,-5.581776798E-2,-1.095738709E-1,6.864593178E-2
5.077748397E0,-5.642863363E-2,-9.590577334E-2,6.337722391E-2
5.094414335E0,-9.109520912E-2,-2.977965772E-2,7.513637096E-2
5.111080272E0,-1.068249792E-1,2.351829410E-2,6.284271181E-2
5.127746210E0,-9.300415963E-2,-1.069013379E-3,7.742711157E-2
5.144412147E0,-5.635227636E-2,-7.719803602E-2,1.247691289E-1
5.161078085E0,1.550069358E-2,-1.358410567E-1,1.581376195E-1
5.177744022E0,4.543306679E-2,-1.495855153E-1,1.802814752E-1
5.194409960E0,-2.183841541E-2,-9.773836285E-2,1.673769504E-1
5.211075897E0,-1.457676142E-1,-1.214093715E-2,1.101847365E-1
5.227741835E0,-2.154825479E-1,4.253146052E-2,4.375318810E-2
5.244407772E0,-1.604283601E-1,2.886336111E-2,6.421715766E-2
5.261073710E0,-2.237292193E-2,-2.496909723E-2,1.046105921E-1
5.277739647E0,9.666935354E-2,-5.642863363E-2,8.536835015E-2
5.294405585E0,9.537126124E-2,-1.725693047E-2,4.688387364E-2
5.311071522E0,3.588830587E-3,5.558869615E-2,1.343902480E-2
5.327737460E0,-6.062832847E-2,1.288924664E-1,1.664606482E-2
5.344403397E0,-4.963276163E-2,1.417969912E-1,5.612320080E-2
5.361069335E0,1.740964688E-2,7.834340632E-2,8.819360286E-2
5.377735272E0,8.269581944E-2,1.679878123E-2,6.459894776E-2
5.394401210E0,7.269290835E-2,2.596175298E-3,3.008509055E-2
5.411067147E0,7.788525894E-3,2.061668597E-2,6.017018110E-2
5.427733085E0,-3.260490671E-2,7.116574794E-2,1.643989831E-1
5.444399022E0,-1.053741761E-2,7.819069177E-2,2.199113220E-1
5.461064960E0,3.176496923E-2,2.290742844E-2,1.582139730E-1
5.477730897E0,3.115410358E-2,-4.894553870E-2,7.925970852E-2
5.494396835E0,-3.947713599E-2,-8.170316368E-2,7.047852129E-2
5.511062772E0,-9.407317638E-2,-4.146244749E-2,1.183550507E-1
5.527728710E0,-6.123919412E-2,3.420842811E-2,1.782961637E-1
5.544394647E0,-5.268708803E-3,7.582359016E-2,1.559995860E-1
5.561060585E0,1.099556591E-2,5.207622424E-2,5.795579776E-2
5.577726522E0,-2.290742844E-2,9.850194678E-3,-6.643154658E-3
5.594392460E0,-2.901607752E-2,1.809686981E-2,-1.252272818E-2
5.611058397E0,2.771798894E-2,5.322159454E-2,5.535962060E-2
5.627724335E0,1.059086844E-1,4.589121789E-2,1.656970680E-1
5.644390272E0,1.539379209E-1,-4.925097153E-2,2.369391769E-1
5.661056210E0,1.645517051E-1,-1.611155868E-1,2.370918989E-1
5.677722147E0,1.458439678E-1,-2.812268734E-1,1.284343153E-1
5.694388085E0,8.880446851E-2,-3.239110410E-1,4.298960790E-2
5.711054022E0,4.199695215E-2,-2.101374865E-1,9.697478265E-2
5.727719960E0,4.382954910E-2,2.848157100E-2,2.890917659E-1
5.744385897E0,8.987347782E-2,5.230529606E-2,4.993819594E-1
5.761051835E0,1.243109852E-1,-1.870773435E-1,5.090794563E-1
5.777717772E0,1.757763475E-1,-5.152644515E-1,3.965275884E-1
5.794383710E0,3.433060050E-1,-7.727439404E-1,3.161225319E-1
5.811049647E0,3.820195496E-1,-5.854375362E-1,2.360992432E-1
5.827715585E0,7.895427197E-2,-2.649625950E-2,1.401171088E-1
5.844381522E0,-2.772562504E-1,3.325395286E-1,7.971785218E-2
5.861047460E0,-4.092794061E-1,3.265835941E-1,1.269835234E-1
5.877713397E0,-2.770271897E-1,6.795870513E-2,8.193223923E-2
5.894379335E0,-7.353284955E-2,-2.131154537E-1,-2.588539422E-1
5.911045272E0,-8.086322248E-2,-2.874118686E-1,-5.323686600E-1
5.927711210E0,-1.809686869E-1,-3.901898861E-2,-5.281689763E-1
5.944377147E0,-1.870773435E-1,3.151298761E-1,-2.948949635E-1
5.961043085E0,1.198822167E-2,3.429242074E-1,1.836412251E-1
5.977709022E0,2.732092738E-1,-6.643154472E-2,6.643918157E-1
5.994374960E0,5.708531141E-1,-2.738201320E-1,1.002734542E0
6.011040897E0,7.606030107E-1,-2.433532625E-1,1.280601621E0
6.027706835E0,5.068650246E-1,-3.118464649E-1,1.837786674E0
6.044372772E0,-2.614501119E-1,-6.778308153E-1,2.592662811E0
6.061038710E0,-9.297361970E-1,-1.117500782E0,3.052644014E0
6.077704647E0,-1.146440506E0,-1.254105449E0,3.109225273E0
6.094370585E0,-1.304425359E0,-1.080467105E0,3.181994677E0
6.111036522E0,-1.782808900E0,-1.025947452E0,3.498728037E0
6.127702460E0,-1.883067012E0,-1.655978084E0,3.810269117E0
6.144368397E0,-1.186833858E0,-3.254076719E0,3.876395226E0
6.161034335E0,-6.181951761E-1,-3.927860498E0,3.885252714E0
6.177700272E0,-5.745946765E-1,-3.573482513E0,4.053851604E0
6.194366210E0,-1.231045246E0,-3.032409191E0,3.896095514E0
6.211032147E0,-2.334419727E0,-2.294789791E0,2.899240494E0
6.227698085E0,-3.011257887E0,-2.225762129E0,1.894215345E0
6.244364022E0,-2.599382401E0,-3.050582409E0,1.656970739E0
6.261029960E0,-8.475748897E-1,-3.437794209E0,1.921627879E0
6.277695897E0,-1.804341823E-1,-2.643211842E0,2.159712315E0
6.294361835E0,-1.717904449E0,-1.154381752E0,2.259130716E0
6.311027772E0,-1.712559462E0,-1.886274099E0,2.340146542E0
6.327693710E0,1.199738383E0,-3.107851028E0,1.870391607E0
6.344359647E0,2.984685421E0,-1.740048289E0,2.448040545E-1
6.361025585E0,5.338957906E-1,3.668242991E-1,-1.442328095E0
6.377691522E0,-3.855778456E0,2.311206818E0,-2.149785757E0
6.394357460E0,-5.056356907E0,2.778671265E0,-2.672686100E0
6.411023397E0,-8.768963814E-1,4.626537263E-1,-2.608163595E0
6.427689335E0,3.552026033E0,1.228601813E0,-2.433074474E0
6.444355272E0,2.972926140E0,4.440987110E0,-3.795379162E0
6.461021210E0,-2.890917659E-1,6.077493668E0,-4.915781498E0
6.477687147E0,-3.543779254E-1,5.998921394E0,-4.384253025E0
6.494353085E0,2.846171618E0,4.623788357E0,-4.828427792E0
6.511019022E0,6.196459770E0,4.018344879E0,-6.102310181E0
6.527684960E0,6.345434189E0,3.217959404E0,-7.219887257E0
6.544350897E0,4.755506039E0,2.774166107E0,-7.022348881E0
6.561016835E0,3.598528147E0,2.769202709E0,-5.946692467E0
6.577682772E0,3.115334034E0,1.561293960E0,-4.034533024E0
6.594348710E0,3.585165501E0,1.676060259E-1,-1.985081434E0
6.611014647E0,5.517025471E0,-7.589995116E-2,4.159225523E-1
6.627680585E0,6.206538677E0,-7.664062381E-1,2.785238028E0
6.644346522E0,5.203575134E0,-9.423353076E-1,4.368752003E0
6.661012460E0,4.192288399E0,-2.386190593E-1,3.180467367E0
6.677678397E0,7.515164018E-1,-2.722166181E-1,1.770133376E0
6.694344335E0,-3.273242474E0,-9.689842463E-1,3.438710451E0
6.711010272E0,-4.827435493E0,-7.690787315E-1,6.238303661E0
6.727676210E0,-3.880823851E0,-5.838339925E-1,7.689642429E0
6.744342147E0,-2.763323307E0,-1.547015071E0,7.448427200E0
6.761008085E0,-2.775464058E0,-2.275013208E0,7.192398071E0
6.777674022E0,-3.701076984E0,-1.924682260E0,9.239176750E0
6.794339960E0,-5.602698803E0,-8.382592201E-1,9.670599937E0
6.811005897E0,-6.609098911E0,-3.201695085E-1,7.696056366E0
6.827671835E0,-5.813523769E0,-2.856556475E-1,4.616992474E0
6.844337772E0,-3.947331905E0,-1.212261200E0,3.456196547E0
6.861003710E0,-2.062813997E0,-1.800218463E0,3.194669962E0
6.877669647E0,-2.147724152E0,-1.015104532E0,3.082270861E0
6.894335585E0,-3.672518969E0,-4.404335022E-1,2.100305796E0
6.911001522E0,-4.133492947E0,-1.459355950E0,7.139481902E-1
6.927667460E0,-2.912832260E0,-1.843208075E0,-3.860665262E-1
6.944333397E0,-2.685056210E0,-4.360047355E-2,-1.830838084E0
6.960999335E0,-3.145877361E0,1.750432968E0,-2.973766088E0
6.977665272E0,-1.339779139E0,2.469344616E0,-3.800571680E0
6.994331210E0,1.666897297E0,2.812421560E0,-4.515436172E0
7.010997147E0,2.284710646E0,4.459236622E0,-5.271457672E0
7.027663085E0,1.163239241E0,5.361102104E0,-5.942263603E0
7.044329022E0,1.306639791E0,4.972057343E0,-6.176835537E0
7.060994960E0,3.095633745E0,4.182744026E0,-6.872992516E0
7.077660897E0,4.303695202E0,4.350884438E0,-8.161458969E0
7.094326835E0,3.817828417E0,4.651582718E0,-8.724370956E0
7.110992772E0,2.303647518E0,5.331704140E0,-8.767894745E0
7.127658710E0,3.503080368E0,4.107378483E0,-6.483108044E0
7.144324647E0,5.567803383E0,2.750189543E0,-4.553004265E0
7.160990585E0,6.036565781E0,1.887037635E0,-2.402225733E0
7.177656522E0,6.398808479E0,1.597029567E0,-2.776380479E-1
7.194322460E0,6.510673046E0,6.571378112E-1,9.221767187E-1
7.210988397E0,6.036794662E0,-7.742711157E-2,1.301981926E0
7.227654335E0,3.275762320E0,-3.275762498E-2,2.056628942E0
7.244320272E0,-1.544189811E0,1.469893306E-1,4.093252182E0
7.260986210E0,-4.345615864E0,4.182133079E-1,6.309774876E0
7.277652147E0,-3.259421825E0,-4.376846254E-1,7.385202408E0
7.294318085E0,-9.489784241E-1,-1.851073027E0,7.766458511E0
7.310984022E0,-1.170875072E0,-1.414457440E0,7.687885761E0
7.327649960E0,-2.358625174E0,-9.335541129E-1,8.979712486E0
7.344315897E0,-3.431074858E0,-8.652135730E-1,9.437860489E0
7.360981835E0,-5.346593857E0,-4.544070363E-1,8.003626823E0
7.377647772E0,-6.769450665E0,4.764745235E-1,5.067352295E0
7.394313710E0,-5.784889698E0,6.209440231E-1,3.545077324E0
7.410979647E0,-3.632354736E0,-8.608611822E-1,3.311116219E0
7.427645585E0,-2.073580503E0,-2.108857870E0,3.398240805E0
7.444311522E0,-2.268828154E0,-1.687055826E0,2.500803947E0
7.460977460E0,-3.580889225E0,-6.966912746E-1,6.861538887E-1
7.477643397E0,-3.738492489E0,-4.305832982E-1,-9.743293524E-1
7.494309335E0,-2.854112864E0,-6.970730424E-1,-2.188804865E0
7.510975272E0,-2.971475363E0,-1.609628648E-1,-2.344957113E0
7.527641210E0,-2.989648581E0,2.047771454E0,-3.330816507E0
7.544307147E0,-1.456454396E0,3.597993612E0,-3.963290691E0
7.560973085E0,1.364442825E0,3.707720041E0,-4.044841290E0
7.577639022E0,2.460028887E0,4.370203018E0,-4.769861221E0
7.594304960E0,1.771584272E0,4.990154266E0,-4.910054684E0
7.610970897E0,1.832212567E0,4.624017239E0,-4.551171780E0
7.627636835E0,3.720853806E0,3.877922297E0,-5.037496567E0
7.644302772E0,5.700972080E0,3.905640364E0,-7.449190617E0
7.660968710E0,5.051851749E0,3.773464441E0,-7.620461941E0
7.677634647E0,2.462014198E0,4.719464779E0,-7.299147129E0
7.694300585E0,1.560148597E0,3.647931814E0,-5.597582817E0
7.710966522E0,3.810498238E0,1.806556225E0,-3.521635532E0
7.727632460E0,5.897822857E0,7.072287202E-1,-2.308763504E0
7.744298397E0,6.036642075E0,9.962440729E-1,-5.138899684E-1
7.760964335E0,5.179140568E0,1.431943417E0,7.008146048E-1
7.777630272E0,2.926194906E0,9.235512018E-1,8.138245940E-1
7.794296210E0,5.098429918E-1,-4.841103405E-2,1.452636480E0
7.810962147E0,-1.462410331E0,-3.751473427E-1,2.879769325E0
7.827628085E0,-2.058843374E0,-5.749000907E-1,4.756498814E0
7.844294022E0,-1.852065682E0,-9.980003238E-1,6.063443661E0
7.860959960E0,-1.459203243E0,-1.292589903E0,6.741961956E0
7.877625897E0,-1.520976901E0,-1.275256634E0,7.380392075E0
7.894291835E0,-2.827692986E0,-1.193782449E0,7.315334797E0
7.910957772E0,-4.908374786E0,-1.315039158E0,6.995012760E0
7.927623710E0,-5.370112419E0,-6.184242368E-1,5.716243744E0
7.944289647E0,-4.677620888E0,-1.866955459E-1,2.683528900E0
7.960955585E0,-3.392971992E0,-1.089782715E0,8.560506105E-1
7.977621522E0,-3.186423302E0,-1.284801364E0,1.743178964E0
7.994287460E0,-3.729405880E0,-4.641808867E-1,1.894597173E0
8.010953397E0,-3.106018305E0,-7.733548284E-1,8.804852366E-1
8.027619335E0,-1.409112334E0,-1.966297388E0,5.849030241E-2
8.044285272E0,-1.623067737E0,-1.765246511E0,2.414443046E-1
8.060951210E0,-3.394575596E0,2.714530230E-1,-1.057559624E-1
8.077617147E0,-2.426431179E0,1.754403591E0,-1.412013888E0
8.094283085E0,1.892153621E0,1.386204958E0,-2.447506189E0
8.110949022E0,3.389612198E0,2.441321135E0,-4.125017166E0
8.127614960E0,1.893298984E0,4.364323616E0,-5.209455013E0
8.144280897E0,1.899942160E0,4.256352901E0,-4.164417744E0
8.160946835E0,3.598451614E0,3.289048672E0,-3.992917538E0
8.177612772E0,5.378435135E0,2.654360294E0,-5.793670654E0
8.194278710E0,5.049713612E0,2.966359377E0,-6.805338860E0
8.210944647E0,3.560883522E0,3.183979988E0,-6.039314747E0
8.227610585E0,1.892077327E0,3.842186689E0,-6.609557152E0
8.244276522E0,1.878943682E0,3.844706535E0,-5.761829376E0
8.260942460E0,4.585762024E0,1.970497012E0,-3.505600214E0
8.277608397E0,5.152491570E0,1.336419463E0,-2.449109554E0
8.294274335E0,5.184256554E0,1.526780128E0,-8.599448800E-1
8.310940272E0,5.719374180E0,1.411632180E0,4.040870368E-1
8.327606210E0,3.532554626E0,1.110323071E0,4.854084253E-1
8.344272147E0,-5.668061376E-1,1.125594735E0,6.640864015E-1
8.360938085E0,-3.277976751E0,5.557342172E-1,1.922925949E0
8.377604022E0,-3.551033258E0,-7.406735327E-3,3.798280954E0
8.394269960E0,-2.902065754E0,-7.461713552E-1,5.804666042E0
8.410935897E0,-2.128710985E0,-1.161559343E0,6.793808937E0
8.427601835E0,-2.151618481E0,-1.705610871E0,6.592071056E0
8.444267772E0,-3.649535179E0,-2.629696608E0,5.821846962E0
8.460933710E0,-5.273137569E0,-2.209345102E0,6.873450279E0
8.477599647E0,-4.570184708E0,-4.302778840E-1,6.956910133E0
8.494265585E0,-2.744997263E0,-3.481929302E-1,2.583576202E0
8.510931522E0,-1.648342252E0,-2.500575066E0,-8.171079755E-1
8.527597460E0,-2.249662161E0,-2.797607899E0,4.008800164E-2
8.544263397E0,-2.551887512E0,-2.065257549E0,6.766854525E-1
8.560929335E0,-1.803272843E0,-1.897880554E0,7.063887715E-1
8.577595272E0,-1.529223561E0,-2.402836561E0,3.991237879E-1
8.594261210E0,-2.523711443E0,-2.051360369E0,-6.698132157E-1
8.610927147E0,-3.619144678E0,-1.575267613E-1,-1.445229769E0
8.627593085E0,-2.521191597E0,1.644906163E0,-1.083215952E0
8.644259022E0,4.636463821E-1,1.832823396E0,-1.025336504E0
8.660924960E0,2.432539940E0,2.523940563E0,-3.372126341E0
8.677590897E0,2.480187416E0,3.213148832E0,-4.386925220E0
8.694256835E0,2.845408201E0,3.733681917E0,-4.221151829E0
8.710922772E0,4.408992767E0,2.663523197E0,-4.323242664E0
8.727588710E0,3.151298761E0,2.485608816E0,-5.251146317E0
8.744254647E0,6.191878319E-1,3.275075197E0,-5.496332169E0
8.760920585E0,1.325881958E0,4.022773743E0,-6.114680290E0
8.777586522E0,6.450197697E0,2.047236919E0,-4.625315189E0
8.794252460E0,7.098248959E0,8.043562174E-1,-3.378998518E0
8.810918397E0,4.029111385E0,1.287626624E0,-2.066250086E0
8.827584335E0,2.237673998E0,9.634101391E-1,-1.808923334E-1
8.844250272E0,8.834632039E-1,5.369501114E-1,5.013672709E-1
8.860916210E0,3.737728894E-1,4.266890585E-1,7.096721530E-1
8.877582147E0,-2.920697331E-1,-4.330267608E-1,2.332510710E0
8.894248085E0,-1.584354162E0,-8.139009476E-1,4.559494495E0
8.910914022E0,-3.074482441E0,-1.076267362E0,5.719908714E0
8.927579960E0,-3.917933941E0,-1.582445264E0,6.625515938E0
8.944245897E0,-3.399004459E0,-2.117409945E0,7.955062866E0
8.960911835E0,-3.273242474E0,-2.434448957E0,7.226835728E0
8.977577772E0,-3.873646259E0,-2.146197081E0,5.293219566E0
8.994243710E0,-3.708559990E0,-4.510472715E-1,3.699549913E0
9.010909647E0,-2.657032728E0,4.860956371E-1,1.257465124E0
9.027575585E0,-2.080070972E0,-8.807142973E-1,-1.179732606E-1
9.044241522E0,-1.458592415E0,-2.064952135E0,6.107884049E-1
9.060907460E0,-1.313206553E0,-1.471038699E0,8.936951756E-1
9.077573397E0,-2.299371481E0,-8.077923059E-1,8.865175247E-1
9.094239335E0,-3.101360559E0,-2.885572612E-1,5.643627048E-1
9.110905272E0,-1.970726132E0,1.532506943E-1,-1.145829558E0
9.127571210E0,-2.433532625E-1,1.130099893E0,-3.221395493E0
9.144237147E0,8.717040420E-1,2.793637276E0,-3.848600864E0
9.160903085E0,1.825798512E0,3.802556992E0,-2.944826365E0
9.177569022E0,2.938030481E0,4.191372395E0,-3.374111652E0
9.194234960E0,4.866607189E0,2.685361624E0,-4.283994675E0
9.210900897E0,3.520413637E0,1.618333459E0,-3.705582142E0
9.227566835E0,1.370398760E0,2.562883139E0,-2.514090300E0
9.244232772E0,4.341187000E0,3.341125011E0,-5.105149746E0
9.260898710E0,9.024916649E0,4.409680068E-1,-4.775511742E0
9.277564647E0,6.441645622E0,-2.215912044E-1,-3.795608282E0
9.294230585E0,3.723220825E-1,1.547015011E-1,-3.153131247E0
9.310896522E0,-1.881234407E0,-7.802270651E-1,-2.359541655E0
9.327562460E0,7.964913249E-1,-3.618533850E0,-1.171791315E0
9.344228397E0,3.254611254E0,-4.457022190E0,-4.863247275E-1
9.360894335E0,1.057254195E0,-2.116722822E0,-5.997928381E-1
9.377560272E0,-3.238499641E0,5.257254839E-1,-4.615083337E-1
9.394226210E0,-3.540266752E0,9.811251760E-1,7.300597429E-1
9.410892147E0,1.253418207E0,3.313177824E-1,1.799913049E0
9.427558085E0,3.408396482E0,2.767217457E-1,5.097666383E-1
9.444224022E0,6.101775765E-1,1.557170630E0,-8.310815096E-1
9.460889960E0,-1.843513489E0,3.130071163E0,-1.380478024E0
9.477555897E0,-4.247037470E-1,3.170235395E0,-1.527543783E0
9.494221835E0,3.277900457E0,1.358334184E0,-1.956905365E0
9.510887772E0,3.914116144E0,9.270636439E-1,-3.051574945E0
9.527553710E0,2.042655468E0,1.709657788E0,-3.318675518E0
9.544219647E0,-3.682751060E-1,2.216293812E0,-7.748819590E-1
9.560885585E0,-1.752952814E0,1.832212567E0,2.962235928E0
9.577551522E0,1.075656533E0,1.083139658E0,4.321792126E0
9.594217460E0,6.450044632E0,1.336113930E0,9.967022538E-1
9.610883397E0,7.876414299E0,1.010064960E0,-3.706651211E0
9.627549335E0,3.439474106E0,5.615374446E-1,-4.002614975E0
9.644215272E0,-3.998109996E-1,8.308524489E-1,-1.889481068E0
9.660881210E0,-1.292284489E0,7.413607836E-1,-7.031053901E-1
9.677547147E0,-4.366155863E-1,-1.175074816E0,2.412915789E-2
9.694213085E0,-1.518151641E0,-1.485699534E0,6.604211926E-1
9.710879022E0,-2.776838541E0,-4.093557596E-1,1.712941170E0
9.727544960E0,-1.510974050E0,-3.743073940E-1,2.729420185E0
9.744210897E0,1.849393129E0,-1.031139731E0,2.547153473E0
9.760876835E0,1.845651627E0,2.956585586E-1,7.764091492E-1
9.777542772E0,-2.198044300E0,2.247982502E0,-4.673115611E-1
9.794208710E0,-3.650146246E0,2.712621450E0,-2.151007652E-1
9.810874647E0,-1.081154346E0,2.873049736E0,4.848739207E-1
9.827540585E0,2.052811146E0,2.367559195E0,6.070469022E-1
9.844206522E0,2.744768143E0,1.135215878E0,6.671407223E-1
9.860872460E0,3.555232882E-1,8.661298752E-1,9.458477497E-1
9.877538397E0,-1.196836829E0,1.110552192E0,1.507308841E0
9.894204335E0,-2.310595959E-1,2.674060464E-1,1.722562313E0
9.910870272E0,1.279456258E0,-7.299070358E-1,2.287994146E0
9.927536210E0,1.672853231E0,-6.259073019E-1,2.467817307E0
9.944202147E0,1.049312949E0,-2.022725940E-1,1.610926747E0
9.960868085E0,-1.151480079E-1,2.038761228E-1,4.840339720E-1
9.977534022E0,-7.647263408E-1,-7.170025259E-2,6.556869745E-1
9.994199960E0,-5.199222565E-1,-1.023274899E0,1.617340803E0
1.001086590E1,-5.802451968E-1,-9.293544292E-1,2.423835039E0
1.002753184E1,-2.573267817E-1,5.198459029E-1,2.174525976E0
1.004419777E1,8.233693838E-1,1.984012485E0,-3.238346875E-1
1.006086371E1,1.149571180E0,1.607108831E0,-1.299538493E0
1.007752965E1,1.476460218E0,8.814015388E-1,-1.132696033E0
1.009419559E1,2.175060511E0,7.428879142E-1,-1.140789986E0
1.011086152E1,2.737132311E0,4.489856213E-2,-6.601157784E-1
1.012752746E1,2.451094866E0,-7.056251764E-1,-1.010981202E-1
1.014419340E1,1.615890026E0,-1.403309107E0,4.486038089E-1
1.016085934E1,1.015715361E0,-1.025183797E0,1.091386318E0
1.017752527E1,1.204930782E0,-6.810378432E-1,1.498527646E0
1.019419121E1,2.324645996E0,-8.662826419E-1,1.365588188E0
1.021085715E1,3.289354086E0,-8.066469431E-1,1.088637352E0
1.022752309E1,3.017061234E0,-5.887972713E-1,1.299691200E0
1.024418902E1,2.260123253E0,-9.535599351E-1,1.975154877E0
1.026085496E1,2.502636671E0,-8.427643180E-1,2.358930588E0
1.027752090E1,3.273395300E0,8.364266157E-1,1.501887441E0
1.029418684E1,3.273242474E0,1.685986757E0,2.261726856E-1
1.031085277E1,3.350440502E0,1.360854030E0,-9.813542962E-1
1.032751871E1,3.558439970E0,1.692019105E0,-2.574184179E0
1.034418465E1,3.233459949E0,1.523038626E0,-3.954127789E0
1.036085059E1,3.721999168E0,7.416661978E-1,-4.356993198E0
1.037751652E1,4.424035549E0,5.245801210E-1,-4.047971725E0
1.039418246E1,2.520351648E0,4.119519293E-1,-3.808130980E0
1.041084840E1,-1.276707351E-1,7.169261575E-1,-4.019337654E0
1.042751434E1,1.231121659E0,-3.272708058E-1,-3.741470337E0
1.044418027E1,5.004280567E0,-1.731267095E0,-2.439564943E0
1.046084621E1,4.200459003E0,-1.773493171E0,-6.563742161E-1
1.047751215E1,1.148043990E0,-8.652899861E-1,1.386204958E0
1.049417809E1,5.591703653E-1,-1.787466645E0,4.157698631E0
1.051084402E1,2.328082085E0,-3.042106628E0,6.270679474E0
1.052750996E1,3.572260857E0,-1.812512159E0,6.390485764E0
1.054417590E1,3.007363558E0,-5.070177913E-1,5.722199440E0
1.056084184E1,2.229656458E0,-2.985601723E-1,6.938431263E0
1.057750777E1,1.974925876E0,1.332448870E-1,8.687719345E0
1.059417371E1,1.329394460E0,6.687442064E-1,9.480773926E0
1.061083965E1,1.675296724E-1,5.378664136E-1,9.875545502E0
1.062750559E1,-8.639918566E-1,4.734201822E-3,9.686253548E0
1.064417152E1,-1.294498801E0,-1.014799103E-1,9.324851036E0
1.066083746E1,-9.313397408E-1,2.158643454E-1,9.198172569E0
1.067750340E1,1.783648849E0,3.930914998E-1,8.277294159E0
1.069416934E1,5.668214321E0,-3.747655451E-1,4.908756733E0
1.071083527E1,4.066068649E0,-1.386815786E0,9.076687098E-1
1.072750121E1,-2.274554968E0,-7.041743994E-1,-1.223714828E0
1.074416715E1,-4.639136314E0,-5.994874239E-1,-1.991724610E0
1.076083308E1,-1.993633509E0,-1.040608168E0,-2.516686440E0
1.077749902E1,1.580612548E-2,-6.386591196E-1,-4.456411362E0
1.079416496E1,7.893136740E-1,-9.889900684E-1,-6.280148029E0
1.081083090E1,-3.087157905E-1,-8.097012639E-1,-6.873221397E0
1.082749684E1,-6.384300590E-1,2.747364342E-1,-6.813738346E0
1.084416277E1,2.866482973E0,7.437278628E-1,-7.369319916E0
1.086082871E1,5.671497822E0,6.764563918E-1,-8.687336922E0
1.087749465E1,4.831634998E0,1.692248106E0,-9.811557770E0
1.089416058E1,3.805153131E0,1.884976029E0,-9.982599258E0
1.091082652E1,4.474278927E0,8.219949007E-1,-9.778800011E0
1.092749246E1,5.444485188E0,4.683805704E-1,-1.023908615E1
1.094415840E1,4.599888325E0,2.011272311E-1,-1.102290249E1
1.096082434E1,1.964312077E0,5.303069949E-1,-1.226700497E1
1.097749027E1,-9.286671877E-1,2.141997337E0,-1.230205345E1
1.099415621E1,1.483179688E0,1.944077134E0,-9.334624290E0
1.101082215E1,4.804527760E0,7.323505282E-1,-7.229584694E0
1.102748808E1,4.667923450E0,3.243691921E-1,-6.062069416E0
1.104415402E1,4.490008831E0,1.103450894E0,-3.979936838E0
1.106081996E1,4.093481064E0,4.357756674E-1,-1.375972867E0
1.107748590E1,2.851822138E0,3.094030023E-1,4.313468933E-1
1.109415184E1,1.962174058E0,1.286023021E0,3.769799173E-1
1.111081777E1,2.280816436E-1,5.897135735E-1,2.101680279E0
1.112748371E1,-1.595578790E0,1.932623386E-1,7.053426743E0
1.114414965E1,-1.587179422E0,1.385670424E0,1.067348766E1
1.116081558E1,-6.666061878E-1,2.059072495E0,1.224783897E1
1.117748152E1,1.164384604E0,2.105345488E0,1.258060741E1
1.119414746E1,2.043266296E0,1.729969025E0,1.405836582E1
1.121081340E1,3.980547488E-1,2.151007652E0,1.504285049E1
1.122747934E1,-2.115806580E0,4.299571514E0,1.235787106E1
1.124414527E1,-3.821646452E0,3.791026831E0,8.672447205E0
1.126081121E1,-1.491502762E0,1.095662355E0,6.456993580E0
1.127747715E1,1.306105256E0,6.934842467E-1,5.227169991E0
1.129414308E1,-1.779143691E0,2.484845161E0,3.880823851E0
1.131080902E1,-7.149485111E0,2.962923288E0,3.177184105E0
1.132747496E1,-8.140154839E0,6.924915910E-1,2.233168840E0
1.134414090E1,-2.893895626E0,-1.882990748E-1,1.013271958E-1
1.136080684E1,5.453495383E-1,6.761509776E-1,-1.731725335E0
1.137747277E1,-1.688964725E0,3.377318680E-1,-3.341888428E0
1.139413871E1,-1.103527188E0,1.276707351E-1,-4.767723083E0
1.141080465E1,1.820376992E0,8.830813766E-1,-6.766549110E0
1.142747058E1,2.778136730E0,2.395429850E0,-8.628617287E0
1.144413652E1,2.486830473E0,3.291033983E0,-1.017364788E1
1.146080246E1,1.802662015E0,3.094488144E0,-1.066669178E1
1.147746840E1,1.666515470E0,3.072955370E0,-1.051351738E1
1.149413434E1,2.232939959E0,3.215286732E0,-1.039493370E1
1.151080027E1,2.945513725E0,3.787896156E0,-1.183290863E1
1.152746621E1,3.082499981E0,4.094779491E0,-1.368024063E1
1.154413215E1,4.237568855E0,4.479776859E0,-1.177594566E1
1.156079808E1,5.819708824E0,4.143801212E0,-9.673730850E0
1.157746402E1,6.077722549E0,2.718577385E0,-7.104204655E0
1.159412996E1,8.014392853E0,7.354812026E-1,-4.266890526E0
1.161079590E1,8.569058418E0,-9.695187807E-1,-2.582125425E0
1.162746184E1,5.585747719E0,9.666935354E-2,-1.464853764E0
1.164412777E1,2.050825834E0,1.168431640E0,1.323285848E-1
1.166079371E1,-1.134986758E0,1.466228127E0,1.182557821E0
1.167745965E1,-2.726671219E0,1.932623386E-1,2.954676628E0
1.169412558E1,-3.040045023E0,2.073885947E-1,6.167520046E0
1.171079152E1,-2.057850838E0,7.980184555E-1,8.732693672E0
1.172745746E1,-8.452841640E-1,3.019199073E-1,9.719087601E0
1.174412340E1,-7.186060548E-1,-4.737256467E-1,9.807739258E0
1.176078934E1,-1.397505879E0,-3.631591201E-1,1.116485214E1
1.177745527E1,-3.448179007E0,2.705367506E-1,1.093257046E1
1.179412121E1,-5.514200211E0,-1.001054645E-1,9.029344559E0
1.181078715E1,-5.828719139E0,-6.719512343E-1,5.528555393E0
1.182745308E1,-5.974410057E0,-1.007850528E0,2.876638651E0
1.184411902E1,-4.934565544E0,-1.737910271E0,2.391993761E0
1.186078496E1,-2.789666653E0,-7.215076685E-1,2.890459538E0
1.187745090E1,-1.561523080E0,-2.015853822E-1,8.099303246E-1
1.189411684E1,-2.050902128E0,-1.824576735E0,-1.232267022E0
1.191078277E1,-4.135401726E0,-1.469129801E0,-1.253952622E0
1.192744871E1,-5.042688847E0,1.124143958E0,-1.894749880E0
1.194411465E1,-2.145662546E0,2.462014198E0,-3.945270061E0
1.196078058E1,2.076024055E0,3.267363071E0,-5.751749992E0
1.197744652E1,3.287368774E0,4.441292286E0,-5.926228523E0
1.199411246E1,2.101451159E0,4.842325211E0,-5.842234612E0
1.201077840E1,5.965094566E-1,4.198015690E0,-7.266847610E0
1.202744434E1,2.148106098E0,2.838841438E0,-7.133526325E0
1.204411027E1,5.101255417E0,1.636124969E0,-6.957673550E0
1.206077621E1,4.980609417E0,6.464476585E-1,-6.506855488E0
1.207744215E1,3.628536761E-1,2.833190918E0,-7.595339775E0
1.209410808E1,6.165152788E-1,3.486739874E0,-7.653983116E0
1.211077402E1,5.715174675E0,8.248201609E-1,-5.145695686E0
1.212743996E1,5.484115124E0,9.350048900E-1,-3.647168159E0
1.214410590E1,3.761628866E0,1.489364743E0,-2.174602270E0
1.216077184E1,2.900996923E0,8.766673207E-1,-8.748347163E-1
1.217743777E1,1.434310555E0,-5.955931731E-3,8.040507436E-1
1.219410371E1,-8.521563411E-1,2.104429156E-1,3.338070631E0
1.221076965E1,-2.053956509E0,8.505528569E-1,5.976013660E0
1.222743558E1,-1.914221168E0,2.304487377E-1,7.105960846E0
1.224410152E1,-9.238566160E-1,-8.413898945E-1,7.102219582E0
1.226076746E1,-2.218202800E-1,-1.586415887E0,7.807386398E0
1.227743340E1,-6.982948184E-1,-1.059697628E0,7.871679783E0
1.229409934E1,-3.693059444E0,-2.074649483E-1,6.349328518E0
1.231076527E1,-6.487613201E0,8.740711212E-1,4.189997673E0
1.232743121E1,-5.906222343E0,3.660607338E-1,1.744324327E0
1.234409715E1,-2.931845427E0,-1.159268618E0,1.215620935E-1
1.236076308E1,-1.141171813E0,-5.785652995E-1,-7.376192510E-2
1.237742902E1,-1.278081894E0,5.960513353E-1,-2.584721744E-1
1.239409496E1,-2.992168427E0,1.057788730E0,-7.737365961E-1
1.241076090E1,-2.787223339E0,1.413312078E0,-1.440724611E0
1.242742684E1,6.635518670E-1,2.619388103E0,-2.732016325E0
1.244409277E1,3.269882917E0,3.496819019E0,-4.210767269E0
1.246075871E1,3.470017433E0,4.123642921E0,-4.637303829E0
1.247742465E1,4.474584579E0,4.151513577E0,-3.547291756E0
1.249409058E1,6.746695995E0,3.203756809E0,-4.310872555E0
1.251075652E1,8.657633781E0,-1.120936871E-1,-5.570704937E0
1.252742246E1,4.863094330E0,-2.217133760E0,-3.724137068E0
1.254408840E1,-4.250091612E-1,-3.047451675E-1,-2.381761789E0
1.256075434E1,1.138041139E0,1.076496482E0,-5.890569210E0
1.257742027E1,5.695321560E0,2.787070535E-2,-5.836125851E0
1.259408621E1,6.176530361E0,4.352411628E-2,-4.090044975E0
1.261075215E1,3.145571709E0,-6.059014797E-1,-2.656651020E0
1.262741808E1,-3.985128999E-1,-4.453967810E-1,-1.388419271E0
1.264408402E1,-2.641226530E0,-7.576250434E-1,5.025889874E-1
1.266074996E1,-2.710101604E0,-1.694767952E0,3.335092545E0
1.267741590E1,-1.785939574E0,-2.653672934E0,5.720519543E0
1.269408184E1,-9.182825089E-1,-2.729725599E0,6.682250023E0
1.271074777E1,-1.563279271E0,-1.699960351E0,6.015567303E0
1.272741371E1,-2.428034782E0,-4.605156779E-1,3.802938700E0
1.274407965E1,-2.689713955E0,9.675334692E-1,2.121457100E0
1.276074558E1,-1.855730891E0,1.246011376E0,1.480888963E0
1.277741152E1,-1.590539217E-1,1.614362955E0,8.059597015E-1
1.279407746E1,7.690023780E-1,2.553643942E0,-1.604283571E0
1.281074340E1,1.403996348E0,3.272173643E0,-3.994444847E0
1.282740934E1,2.433837891E0,3.325776815E0,-4.414414406E0
1.284407527E1,4.097909927E0,3.225747824E0,-3.757352829E0
1.286074121E1,6.062756538E0,2.065639257E0,-2.253556490E0
1.287740715E1,4.543459415E0,-5.703949928E-2,-7.585413456E-1
1.289407308E1,8.487202525E-1,4.450913370E-1,-3.211621642E-1
1.291073902E1,1.558316112E0,8.484911919E-1,-1.032896042E0
1.292740496E1,3.553553104E0,-1.012813807E0,-2.080300093E0
1.294407090E1,2.291888237E0,-1.978590965E0,-1.264031887E0
1.296073684E1,-2.704603672E-1,-1.586950302E0,4.724275470E-1
1.297740277E1,-1.487150311E0,-1.464242935E0,7.330377102E-1
1.299406871E1,-1.299156666E0,-2.432234526E0,-4.363101721E-1
1.301073465E1,-1.544037104E0,-2.955058336E0,-2.550360374E-2
1.302740058E1,-1.789910197E0,-1.005025268E0,1.954309106E0
1.304406652E1,-5.762745738E-1,1.642080903E0,2.788903236E0
1.306073246E1,1.626961946E0,1.727602005E0,-9.215658903E-1
1.307739840E1,1.393458962E0,1.890931964E0,-3.941757679E0
1.309406434E1,-4.596757516E-2,2.999498844E0,-3.032409191E0
1.311073027E1,4.130209386E-1,3.320737362E0,-1.600312948E0
1.312739621E1,1.991571903E0,2.973460674E0,-3.828594983E-1
1.314406215E1,3.425118923E0,1.660483241E0,1.052061915E0
1.316072808E1,2.630002022E0,5.568032265E-1,8.111520410E-1
1.317739402E1,-2.608392537E-1,-2.361755967E-1,7.450259328E-1
1.319405996E1,-9.120211005E-1,8.643736690E-2,9.411898851E-1
1.321072590E1,1.281212568E0,5.637518167E-1,9.328668714E-1
1.322739184E1,3.094335556E0,1.240819097E-1,1.106276155E0
1.324405777E1,3.395720959E0,3.163515925E-1,6.994401813E-1
1.326072371E1,2.508058071E0,-2.313650399E-2,-1.283579618E-1
1.327738965E1,1.600923896E0,-6.404153705E-1,-7.750346661E-1
1.329405558E1,1.087491989E0,-4.784598351E-1,-4.201222658E-1
1.331072152E1,5.508472919E-1,6.085740402E-2,7.364738584E-1
1.332738746E1,4.518108666E-1,-2.412915826E-1,1.524183989E0
1.334405340E1,1.354745388E0,-1.543197185E-1,9.760091901E-1
1.336071934E1,2.230648994E0,4.176024497E-1,1.983783394E-1
1.337738527E1,2.719264507E0,5.626828074E-1,3.942368627E-1
1.339405121E1,2.189950228E0,1.053894520E0,8.910989761E-1
1.341071715E1,1.357570648E0,5.939896107E-1,1.740200996E0
1.342738308E1,1.016784430E0,-7.756455541E-1,2.373820543E0
1.344404902E1,1.457370639E0,-7.426588535E-1,1.894138932E0
1.346071496E1,2.205069065E0,4.008800164E-2,1.965228319E0
1.347738090E1,3.277136803E0,1.528765440E0,2.201251268E0
1.349404684E1,4.503906250E0,2.977431297E0,1.697745919E0
1.351071277E1,5.801077366E0,2.895498991E0,1.650098413E-1
1.352737871E1,7.346030712E0,1.689728379E0,-1.960952282E0
1.354404465E1,7.910011768E0,1.299920201E0,-3.022711754E0
1.356071058E1,7.360157013E0,1.355508924E0,-2.676809549E0
1.357737652E1,6.068101883E0,1.056185246E0,-3.095710039E0
1.359404246E1,5.276421070E0,-4.353175163E-1,-5.118283272E0
1.361070840E1,5.093543053E0,-1.315726399E0,-6.351313591E0
1.362737434E1,4.415864944E0,-1.083215952E0,-6.038245678E0
1.364404027E1,3.047222614E0,-6.954695582E-1,-4.877831459E0
1.366070621E1,1.010981202E0,-2.262490392E-1,-4.233216763E0
1.367737215E1,-1.327943683E0,3.811032772E-1,-4.706865788E0
1.369403808E1,-5.436696485E-2,1.036332130E0,-4.606989384E0
1.371070402E1,3.191386700E0,1.052061915E0,-3.554469347E0
1.372736996E1,2.958647251E0,9.537126422E-1,-2.310901403E0
1.374403590E1,1.102000117E0,1.713552117E0,-3.023017049E-1
1.376070184E1,7.784708142E-1,1.803120136E0,1.632917881E0
1.377736777E1,1.217453480E0,1.351156592E0,2.632750750E0
1.379403371E1,1.390709996E0,1.397124052E0,3.159774542E0
1.381069965E1,1.219438791E0,1.397887707E0,4.052248001E0
1.382736558E1,7.306706309E-1,1.306716084E0,5.546804905E0
1.384403152E1,5.058723688E-1,1.302287340E0,6.862072945E0
1.386069746E1,3.476584256E-1,5.593230724E-1,7.666810989E0
1.387736340E1,-2.037997693E-1,-4.090503156E-1,7.973083496E0
1.389402934E1,-9.816597104E-1,-3.253618479E-1,8.089452744E0
1.391069527E1,-1.297018647E0,-5.375609919E-2,8.822719574E0
1.392736121E1,-1.517846227E0,7.849612236E-1,8.071126938E0
1.394402715E1,-7.629700899E-1,1.350011230E-1,6.388882160E0
1.396069308E1,1.404607177E0,-1.444160700E0,4.343630314E0
1.397735902E1,3.218417406E0,-2.653520346E0,2.546542645E0
1.399402496E1,8.938478827E-1,-2.930776596E0,2.236223221E0
1.401069090E1,-3.945728302E0,-1.958661556E0,2.512792349E0
1.402735684E1,-5.356596947E0,-1.438357472E0,1.313282967E0
1.404402277E1,-2.102825642E0,-1.889786601E0,-1.188819170E0
1.406068871E1,1.199432969E0,-1.171027780E0,-3.119686365E0
1.407735465E1,2.895728111E0,1.189506412E0,-4.218479633E0
1.409402058E1,3.711767197E0,2.553796530E0,-5.258553028E0
1.411068652E1,3.195128202E0,2.249433279E0,-5.837652683E0
1.412735246E1,2.440786600E0,1.456225276E0,-6.612840176E0
1.414401840E1,2.495306253E0,1.887419462E0,-7.526006699E0
1.416068434E1,2.029521942E0,2.420551777E0,-8.284777641E0
1.417735027E1,1.488753796E0,2.484997988E0,-9.171905518E0
1.419401621E1,1.916664600E0,2.397491455E0,-1.007613850E1
1.421068215E1,2.629314661E0,1.666973591E0,-1.090027142E1
1.422734809E1,2.841132164E0,1.588248372E0,-1.171959305E1
1.424401402E1,9.231693745E-1,1.552665591E0,-1.150663090E1
1.426067996E1,-1.764559269E0,1.829921842E0,-9.790635109E0
1.427734590E1,-1.667660922E-1,2.305709124E0,-7.965676785E0
1.429401184E1,3.853564024E0,1.537928462E0,-5.979984283E0
1.431067777E1,6.054433346E0,1.057254195E0,-3.875631571E0
1.432734371E1,6.643765450E0,8.946878314E-1,-1.165300965E0
1.434400965E1,5.374388218E0,1.658726931E0,1.246775031E0
1.436067559E1,3.570351839E0,2.732627153E0,2.569526434E0
1.437734152E1,1.259068727E0,2.986288786E0,4.245281219E0
1.439400746E1,-5.610793233E-1,2.280358315E0,7.218512535E0
1.441067340E1,-1.372384071E0,1.766162753E0,1.005139828E1
1.442733934E1,-1.373987556E0,1.655214429E0,1.122570896E1
1.444400527E1,-7.350993752E-1,1.524718523E0,1.127763271E1
1.446067121E1,-3.788125217E-1,1.085888505E0,1.237505150E1
1.447733715E1,-1.760894060E0,9.680679440E-1,1.248264027E1
1.449400309E1,-5.588572979E0,9.941060543E-1,1.102946949E1
1.451066902E1,-8.107244492E0,2.209956169E0,8.823559761E0
1.452733496E1,-6.543354511E0,1.087491989E0,6.531977177E0
1.454400090E1,-2.908861637E0,-1.131321549E0,4.175031662E0
1.456066684E1,-2.420857191E0,-1.435532212E0,2.967962980E0
1.457733277E1,-4.057210922E0,-7.410553098E-1,2.682154417E0
1.459399871E1,-4.518032074E0,-6.743947268E-1,1.946444273E0
1.461066465E1,-1.524871230E0,-6.471349001E-1,-7.254019380E-3
1.462733059E1,1.347720474E-1,7.458658814E-1,-2.611675978E0
1.464399652E1,-1.711566806E0,2.186132431E0,-3.541183233E0
1.466066246E1,-2.735757828E0,4.287889004E0,-3.587990522E0
1.467732840E1,-3.529271185E-1,4.969766617E0,-4.456945896E0
1.469399434E1,2.870453596E0,3.939390659E0,-6.211502075E0
1.471066027E1,2.901836872E0,4.357450962E0,-8.434133530E0
1.472732621E1,1.355967045E0,5.425777435E0,-8.858226776E0
1.474399215E1,1.269376993E0,5.976853848E0,-8.369305611E0
1.476065809E1,3.127627611E0,4.453814983E0,-9.200387001E0
1.477732402E1,4.720763206E0,2.571282625E0,-1.171592808E1
1.479398996E1,2.944826365E0,1.721493363E0,-1.137308025E1
1.481065590E1,-3.023017049E-1,3.254458427E0,-1.004658794E1
1.482732184E1,1.112537503E0,4.650284290E0,-7.081221104E0
1.484398777E1,5.445630550E0,2.440099478E0,-4.225428104E0
1.486065371E1,9.244445801E0,-1.311068535E-1,-1.996917009E0
1.487731965E1,9.296903610E0,-8.930842876E-1,5.852848291E-1
1.489398559E1,6.834660530E0,4.107302129E-1,3.253389359E0
1.491065152E1,4.287583351E0,2.380921841E0,4.440605164E0
1.492731746E1,1.086881161E0,1.528154612E0,4.851029873E0
1.494398340E1,-1.753716469E0,-1.979201883E-1,5.985940456E0
1.496064934E1,-3.510639906E0,-7.080686092E-1,7.846558094E0
1.497731527E1,-3.570428371E0,-5.813142061E-1,9.760931969E0
1.499398121E1,-2.732856274E0,-1.548542231E-1,1.053970814E1
1.501064715E1,-2.594419003E0,5.697077513E-1,1.019182110E1
1.502731309E1,-2.549062252E0,2.543488145E-1,1.112850571E1
1.504397902E1,-3.847608089E0,-4.000400603E-1,1.073197746E1
1.506064496E1,-5.215716362E0,4.928915203E-1,8.434057236E0
1.507731090E1,-4.520399570E0,8.939242363E-1,5.436161995E0
1.509397684E1,-2.532340050E0,-4.767799675E-1,3.855625868E0
1.511064277E1,-1.221042395E0,-1.212032080E0,3.466657639E0
1.512730871E1,-2.143524408E0,-3.633118272E-1,3.154276609E0
1.514397465E1,-4.096535683E0,-1.712712198E-1,2.240346670E0
1.516064059E1,-3.401524067E0,-9.810488224E-1,7.339540124E-1
1.517730652E1,-2.770195484E0,-7.482330203E-1,-7.638863921E-1
1.519397246E1,-4.640739918E0,9.135482907E-1,-1.770362496E0
1.521063840E1,-5.219839573E0,2.951011419E0,-3.053713083E0
1.522730434E1,-2.163988590E0,4.093099594E0,-4.163654327E0
1.524397027E1,1.777845621E0,4.032089233E0,-5.018941402E0
1.526063621E1,2.580827236E0,4.370584965E0,-6.180424213E0
1.527730215E1,1.371162415E0,4.771312237E0,-7.013873100E0
1.529396809E1,2.054872751E0,4.206414700E0,-6.388652802E0
1.531063402E1,4.638678074E0,3.530569315E0,-5.233583927E0
1.532729996E1,5.811691284E0,3.124344349E0,-7.498136044E0
1.534396590E1,3.453829527E0,1.968129992E0,-9.016440392E0
1.536063184E1,9.776890874E-1,2.872897148E0,-9.055153847E0
1.537729777E1,4.644252300E0,1.528536439E0,-6.650561333E0
1.539396371E1,5.746023178E0,4.430296719E-1,-4.806971073E0
1.541062965E1,4.649291992E0,2.840521187E-2,-2.657109022E0
1.542729559E1,4.180147648E0,-7.796161771E-1,-1.242498994E0
1.544396152E1,2.557309151E0,-6.885209680E-1,-2.583957911E-1
1.546062746E1,-3.168861195E-2,-5.181660652E-1,1.476765633E0
1.547729340E1,-1.211802959E0,-7.435751557E-1,4.348898888E0
1.549395934E1,-7.860302329E-1,-2.369391769E-1,7.488209724E0
1.551062527E1,-1.598175019E-1,3.506363928E-1,8.244688988E0
1.552729121E1,5.165625215E-1,4.066832364E-1,7.501648426E0
1.554395715E1,1.123227596E0,2.879463732E-1,7.918334484E0
1.556062309E1,-4.753291607E-1,2.148716897E-1,7.740191460E0
1.557728902E1,-3.841194153E0,1.043204308E0,6.323596001E0
1.559395496E1,-5.741212845E0,2.960250616E0,3.643808365E0
1.561062090E1,-4.336376190E0,2.399324179E0,5.667297840E-1
1.562728684E1,-5.575668216E-1,-1.105207086E0,-6.179660559E-1
1.564395277E1,3.142899275E-1,-2.432997942E0,-2.703076601E-1
1.566061871E1,-2.216675520E0,-1.035263062E0,3.583485484E-1
1.567728465E1,-4.864774227E0,9.152281284E-1,4.390590489E-1
1.569395059E1,-5.083082199E0,2.121838808E0,-4.054614902E-1
1.571061652E1,-2.741942883E0,9.333250523E-1,-1.979201913E0
1.572728246E1,-1.864282966E0,-3.523926139E-1,-3.123886108E0
1.574394840E1,-2.817079306E0,8.320741653E-1,-3.146946192E0
1.576061434E1,-1.702556491E0,3.433976412E0,-2.877096653E0
1.577728027E1,3.253389359E0,4.654254913E0,-2.946811676E0
1.579394621E1,7.492638111E0,3.805076599E0,-4.041557789E0
1.581061215E1,8.192536354E0,3.152825832E0,-4.999546528E0
1.582727809E1,8.466967583E0,2.558683395E0,-4.760622025E0
1.584394402E1,9.281937599E0,6.283507943E-1,-2.204458237E0
1.586060996E1,4.929373264E0,-2.831511021E0,-1.019380614E-1
1.587727590E1,-1.164231896E0,-2.194760799E0,-2.139172077E0
1.589394184E1,-3.364337683E-1,-4.949531853E-1,-7.008833408E0
1.591060777E1,5.395386696E0,-2.189644814E0,-7.863891602E0
1.592727371E1,4.420523167E0,-3.118999243E0,-5.486558437E0
1.594393965E1,-5.427533388E-1,-1.794415236E0,-3.008050919E0
1.596060559E1,-2.809061766E0,-4.417316020E-1,-1.664530158E0
1.597727152E1,-1.767766356E0,-1.756847143E0,-6.401863098E-1
1.599393746E1,8.055779338E-2,-3.307985544E0,-1.360701323E-1
1.601060340E1,2.386954129E-1,-2.649167776E0,-2.362519503E-1
1.602726934E1,-9.461531639E-1,-1.367420793E0,-3.972911835E-1
1.604393527E1,-2.447658777E0,-4.605156779E-1,4.238637984E-1
1.606060121E1,-2.419406414E0,-1.669951528E-1,2.435288906E0
1.607726715E1,1.718820781E-1,1.827020168E0,2.851135015E0
1.609393308E1,1.668118954E0,4.043237686E0,-2.829830945E-1
1.611059902E1,-8.704823256E-2,4.314538002E0,-2.696815252E0
1.612726496E1,-2.516839266E0,4.463741779E0,-2.025398493E0
1.614393090E1,-1.944764376E0,4.844615936E0,-4.889208972E-1
1.616059684E1,1.473253131E0,4.072406292E0,6.312524080E-1
1.617726277E1,4.049804211E0,3.171991825E0,2.786307037E-1
1.619392871E1,4.245281219E0,3.315010548E0,-9.430988431E-1
1.621059465E1,4.178238869E0,2.235764980E0,4.110356271E-1
1.622726058E1,4.599048138E0,1.724394917E0,1.652694702E0
1.624392652E1,3.669693708E0,1.511355877E0,1.355432630E0
1.626059246E1,1.391015410E0,8.042798638E-1,5.747473836E-1
1.627725840E1,-5.982657075E-1,8.529199362E-1,-4.773908257E-1
1.629392434E1,-8.048143238E-2,3.248273432E-1,-5.948295593E-1
1.631059027E1,2.079765558E0,-1.160184979E0,-2.540434003E-1
1.632725621E1,2.395277262E0,-1.915137410E0,-4.318050444E-1
1.634392215E1,4.987711012E-1,-1.333823204E0,-9.808961153E-1
1.636058808E1,-2.278754711E0,-2.105192691E-1,-3.389535844E-1
1.637725402E1,-2.402149439E0,7.992402315E-1,1.449582100E0
1.639391996E1,1.309006810E0,1.262352109E0,2.522336960E0
1.641058590E1,4.771312237E0,1.093982458E0,1.509599537E-1
1.642725184E1,4.289416313E0,1.096044183E0,-2.709108829E0
1.644391777E1,1.508148789E0,1.597869515E0,-2.714759350E0
1.646058371E1,7.686969638E-1,2.415359259E0,-1.705916286E0
1.647724965E1,2.455370903E0,1.428736329E0,-1.765399277E-1
1.649391558E1,3.845241070E0,-1.553963661E0,2.435899734E0
1.651058152E1,2.272645950E0,-3.109454393E0,3.722304583E0
1.652724746E1,-3.685041666E-1,-2.388557673E0,4.263759613E0
1.654391340E1,-7.880155444E-1,-9.515746236E-1,4.408840179E0
1.656057934E1,4.201986194E-1,-8.971312642E-1,3.937329054E0
1.657724527E1,1.836488605E0,-1.898414969E0,2.871751785E0
1.659391121E1,2.087401390E0,-1.749440312E0,1.751502037E0
1.661057715E1,3.882045746E-1,-1.097876668E0,1.317406297E0
1.662724308E1,-1.632917881E0,-6.110938787E-1,2.067242861E0
1.664390902E1,-1.939953804E0,1.745546162E-1,2.930852890E0
1.666057496E1,4.489092529E-1,-3.674351573E-1,2.982470989E0
1.667724090E1,3.648237228E0,-1.016860843E0,1.019991517E0
1.669390684E1,3.670915604E0,-1.709657758E-1,-1.087797403E0
1.671057277E1,1.554039955E0,1.432554245E0,-8.029817343E-1
1.672723871E1,1.398116797E-1,2.844873667E0,-1.909715980E-1
1.674390465E1,6.849321127E-1,2.826471329E0,-6.117810607E-1
1.676057058E1,4.154644012E0,2.742782831E-1,-1.488677502E0
1.677723652E1,6.597339630E0,-3.927860558E-1,-2.940703154E0
1.679390246E1,5.697306633E0,8.437569737E-1,-3.498422623E0
1.681056840E1,3.722075462E0,1.904676437E0,-1.928271055E0
1.682723434E1,2.703611135E0,2.392528296E0,6.684387922E-1
1.684390027E1,3.482081890E0,9.782235622E-1,6.390409470E-1
1.686056621E1,4.754131317E0,-6.102539301E-1,-2.759123564E0
1.687723215E1,4.141663074E0,-1.224783882E-1,-4.845685005E0
1.689389808E1,2.341521025E0,1.628947258E0,-4.249786377E0
1.691056402E1,1.348254919E0,2.331976414E0,-3.485670805E0
1.692722996E1,7.973312736E-1,2.883739948E0,-2.728427649E0
1.694389590E1,-2.074649483E-1,3.267133951E0,-1.653916359E0
1.696056184E1,-1.355127096E0,3.426340580E0,-6.447677612E-1
1.697722777E1,-1.153159976E0,2.843957424E0,6.719512399E-3
1.699389371E1,2.092211843E-1,1.971184254E0,5.426769853E-1
1.701055965E1,1.353370905E0,9.514219165E-1,1.042517066E0
1.702722558E1,1.680565357E0,3.023780696E-2,1.447367787E0
1.704389152E1,1.157130599E0,-7.245619893E-1,1.891008258E0
1.706055746E1,7.513636947E-1,-9.790635109E-1,2.672151566E0
1.707722340E1,9.356157780E-1,-6.664534807E-1,3.309436321E0
1.709388934E1,1.306792498E0,-7.910698652E-1,3.487274408E0
1.711055527E1,1.273958445E0,-1.207297921E0,3.271715403E0
1.712722121E1,8.248201609E-1,-1.214017391E0,3.186576128E0
1.714388715E1,3.011563420E-1,-8.263473511E-1,3.427944183E0
1.716055308E1,-1.908952487E-3,-4.305832982E-1,3.781405687E0
1.717721902E1,-5.019017458E-1,-4.133263826E-1,3.626245975E0
1.719388496E1,-8.282563090E-1,-7.560978532E-1,3.119762897E0
1.721055090E1,-4.469239414E-1,-1.125747442E0,2.684521675E0
1.722721684E1,1.766926348E-1,-1.202105522E0,2.502789259E0
1.724388277E1,4.986947477E-1,-1.065653563E0,2.244317293E0
1.726054871E1,5.509236455E-1,-4.356993139E-1,1.035034060E0
1.727721465E1,8.214604259E-1,-2.686277926E-1,-5.832231641E-1
1.729388058E1,1.453170896E0,-4.097375572E-1,-1.035110354E0
1.731054652E1,1.965457439E0,-3.477347791E-1,-9.992220402E-1
1.732721246E1,1.613217473E0,-1.436295807E-1,-1.441946268E0
1.734387840E1,4.581485987E-1,-7.544180006E-2,-1.738292098E0
1.736054434E1,-1.036179364E-1,-6.299543381E-2,-1.759825110E0
1.737721027E1,1.067180753E0,-1.345429718E-1,-1.973780513E0
1.739387621E1,2.097862482E0,2.419788092E-1,-2.664973974E0
1.741054215E1,1.202258229E0,8.904881477E-1,-3.446575403E0
1.742720808E1,7.632755637E-1,1.399949312E0,-3.146488190E0
1.744387402E1,4.289263248E0,1.512882948E0,-2.434906960E0
1.746053996E1,7.193161964E0,2.186055899E0,-2.965672255E0
1.747720590E1,5.386376381E0,2.942688465E0,-4.149375439E0
1.749387184E1,2.559981585E0,3.642281294E0,-5.308720589E0
1.751053777E1,2.859839916E0,2.614272118E0,-5.726017475E0
1.752720371E1,4.890048981E0,2.668868303E0,-5.925388336E0
1.754386965E1,5.999837399E0,3.310047150E0,-7.236991405E0
1.756053558E1,4.902571678E0,3.902738810E0,-8.888846397E0
1.757720152E1,3.834398270E0,5.904771805E0,-9.511546135E0
1.759386746E1,4.388910770E0,5.510764122E0,-8.158480644E0
1.761053340E1,5.094459534E0,3.778885841E0,-5.687838554E0
1.762719934E1,3.910985470E0,2.608316183E0,-3.539197922E0
1.764386527E1,3.707720041E0,1.961563110E0,-1.225318432E0
1.766053121E1,5.760149479E0,9.931133986E-1,1.148502111E0
1.767719715E1,6.736464024E0,5.222130418E-1,2.656727314E0
1.769386308E1,5.116909027E0,8.269581795E-1,3.220937252E0
1.771052902E1,2.324416876E0,1.444237113E0,3.250640631E0
1.772719496E1,-3.511708975E-1,1.066111803E0,3.472613573E0
1.774386090E1,-2.238743067E0,-4.254673123E-1,5.606898785E0
1.776052684E1,-2.756832838E0,-6.104066372E-1,8.089452744E0
1.777719277E1,-2.831816435E0,-3.646099269E-1,8.928476334E0
1.779385871E1,-2.280816317E0,-1.264490128E0,9.116393089E0
1.781052465E1,-1.841375470E0,-1.835648656E0,9.147471428E0
1.782719058E1,-2.359770536E0,-1.258915901E0,9.053703308E0
1.784385652E1,-4.152048111E0,-6.873756051E-1,8.460629463E0
1.786052246E1,-6.544958115E0,4.871646687E-2,7.285784245E0
1.787718840E1,-7.234089851E0,-3.711003438E-2,5.218159676E0
1.789385434E1,-5.862545490E0,-1.486615777E0,3.531027555E0
1.791052027E1,-4.463665485E0,-2.051436663E0,2.464686632E0
1.792718621E1,-2.927951336E0,-2.164904833E0,2.046931505E0
1.794385215E1,-6.639336348E-1,-1.855043650E0,1.621235132E0
1.796051808E1,-2.935205400E-1,-1.194164276E0,9.075923562E-1
1.797718402E1,-1.426674724E0,-5.756636858E-1,-1.859319657E-1
1.799384996E1,-2.364275694E0,-5.387063622E-1,-1.464395642E0
1.801051590E1,-3.162141562E0,-1.639408320E-1,-2.167042732E0
1.802718184E1,-3.341735840E0,1.453170896E0,-2.521726131E0
1.804384777E1,-1.902691126E0,3.274082422E0,-3.459480047E0
1.806051371E1,-6.071996093E-1,4.256887436E0,-4.805214882E0
1.807717965E1,-4.298960790E-2,4.884627342E0,-5.405466080E0
1.809384558E1,6.450732350E-1,5.767250538E0,-5.381794930E0
1.811051152E1,2.093051910E0,5.881253242E0,-6.514873028E0
1.812717746E1,3.752695084E0,5.034213066E0,-7.301055908E0
1.814384340E1,5.033754826E0,4.928151608E0,-8.562796593E0
1.816050934E1,5.152186394E0,4.861109257E0,-1.025199127E1
1.817717527E1,4.378907681E0,4.138761520E0,-9.689994812E0
1.819384121E1,1.524718523E0,4.294837475E0,-9.239406586E0
1.821050715E1,1.368642569E0,3.555003881E0,-6.450273991E0
1.822717308E1,3.595855474E0,2.569602728E0,-4.175566196E0
1.824383902E1,5.227475166E0,1.627572894E0,-2.385350704E0
1.826050496E1,6.609022617E0,1.627878308E0,-5.613847375E-1
1.827717090E1,6.650713921E0,1.441640854E0,1.609170556E0
1.829383684E1,5.429442406E0,1.997985959E0,3.670610189E0
1.831050277E1,2.612439632E0,2.186819553E0,4.408076763E0
1.832716871E1,-7.759509683E-1,1.022129536E0,5.387827396E0
1.834383465E1,-3.001331329E0,1.390480995E-1,7.434758663E0
1.836050058E1,-3.500407934E0,-5.395463109E-1,9.212069511E0
1.837716652E1,-2.661003351E0,-1.114446402E0,1.035072231E1
1.839383246E1,-1.863137603E0,-1.215239167E0,1.053757000E1
1.841049840E1,-2.362214088E0,-6.540834904E-1,9.339664459E0
1.842716434E1,-2.873660564E0,-1.171409607E0,9.302172661E0
1.844383027E1,-4.332024097E0,-2.017304659E0,1.004437351E1
1.846049621E1,-6.975770473E0,-2.320522517E-1,7.694758415E0
1.847716215E1,-5.846357822E0,1.999818534E-1,4.157927513E0
1.849382808E1,-1.602680087E0,-1.459508657E0,2.417879105E0
1.851049402E1,3.822486401E-1,-2.088088512E0,1.985081434E0
1.852715996E1,-1.596876860E0,-8.888846040E-1,2.125962257E0
1.854382590E1,-4.219319344E0,2.655734718E-1,1.180496216E0
1.856049184E1,-5.058647633E0,-3.063486814E-1,1.094975099E-1
1.857715777E1,-3.625253439E0,-1.510363221E0,-8.931606412E-1
1.859382371E1,-3.197189808E0,-5.314523727E-2,-2.419024467E0
1.861048965E1,-2.372369766E0,2.677496672E0,-3.787437916E0
1.862715558E1,-5.907825828E-1,4.189310551E0,-4.805367947E0
1.864382152E1,9.226348996E-1,3.348684311E0,-5.603615284E0
1.866048746E1,1.611461282E0,3.046000957E0,-6.598484993E0
1.867715340E1,7.846558094E-1,5.261683941E0,-7.134595394E0
1.869381934E1,-2.222020552E-2,6.384987831E0,-7.700408459E0
1.871048527E1,2.986517906E0,4.755506039E0,-8.069218636E0
1.872715121E1,6.313745499E0,3.236666918E0,-8.970167160E0
1.874381715E1,5.712807655E0,2.195066214E0,-1.021686649E1
1.876048308E1,8.673516512E-1,2.503476620E0,-1.003689003E1
1.877714902E1,-2.550971270E0,3.866086721E0,-8.161230087E0
1.879381496E1,1.808083415E0,3.799960613E0,-5.199604511E0
1.881048090E1,6.393157959E0,2.457127333E0,-3.353724003E0
1.882714684E1,8.319367409E0,1.818773508E0,-1.540219188E0
1.884381277E1,6.731729984E0,2.225685835E0,7.982475758E-1
1.886047871E1,4.047666550E0,2.672991514E0,2.688950300E0
1.887714465E1,-1.840230078E-1,1.121318698E0,5.060021877E0
1.889381058E1,-2.605262041E0,3.843103051E-1,8.006834030E0
1.891047652E1,-2.592586517E0,-3.703367710E-2,9.712291718E0
1.892714246E1,-1.361006737E0,-1.060232162E0,9.704426765E0
1.894380840E1,-3.123046160E-1,-1.382921457E0,9.502306938E0
1.896047434E1,-4.542543292E-1,-8.122211099E-1,9.359211922E0
1.897714027E1,-2.019595385E0,-7.462477088E-1,9.698547363E0
1.899380621E1,-5.131875038E0,4.407389462E-1,8.878308296E0
1.901047215E1,-7.235769749E0,2.175518513E0,4.928838730E0
1.902713808E1,-5.364767075E0,8.685733676E-1,-1.237001177E-2
1.904380402E1,-1.777158380E0,-2.091906548E0,-1.669875264E0
1.906046996E1,-1.525176644E0,-2.423605919E0,-3.370446563E-1
1.907713590E1,-3.874333620E0,-1.003421783E0,-6.788235158E-2
1.909380184E1,-4.599964619E0,-1.230128929E-1,-1.141248107E0
1.911046777E1,-3.687256098E0,-4.147771895E-1,-2.244317293E0
1.912713371E1,-3.208185434E0,-8.978948593E-1,-3.303938627E0
1.914379965E1,-2.903440237E0,7.929024696E-1,-3.812101603E0
1.916046558E1,-1.108414173E0,3.987801552E0,-4.331260204E0
1.917713152E1,1.872147799E0,5.830322742E0,-4.279565811E0
1.919379746E1,3.760483503E0,6.364218235E0,-4.208858490E0
1.921046340E1,5.550851822E0,6.846267223E0,-4.508869171E0
1.922712934E1,8.095867157E0,5.196626663E0,-3.815690517E0
1.924379527E1,6.615665436E0,3.100138903E-1,-3.795684576E0
1.926046121E1,3.897164583E0,1.718057245E-1,-3.272173643E0
1.927712715E1,4.065763474E0,3.818668425E-1,-4.162661552E0
1.929379308E1,4.781773090E0,-2.181703568E0,-4.362796307E0
1.931045902E1,1.693699002E0,-2.697120667E0,-3.187645197E0
1.932712496E1,-1.083979607E0,-1.952629209E0,-1.920100689E0
1.934379090E1,-9.942587614E-1,-2.115348339E0,-9.062942863E-1
1.936045684E1,8.300124854E-2,-3.214141369E0,1.702785492E-2
1.937712277E1,2.368628234E-1,-3.528736830E0,5.312996507E-1
1.939378871E1,-7.091376781E-1,-2.628398418E0,6.967676282E-1
1.941045465E1,-2.281045437E0,-1.326645613E0,1.143767953E0
1.942712058E1,-1.929340005E0,-8.306997418E-1,1.886121392E0
1.944378652E1,4.121046662E-1,1.650098413E-1,2.040059328E0
1.946045246E1,4.883863926E-1,1.623220444E0,2.260199636E-1
1.947711840E1,-1.871002436E0,3.405723810E0,-1.267086267E0
1.949378434E1,-2.738506794E0,4.561861992E0,-1.085888505E0
1.951045027E1,-3.378082216E-1,4.455265999E0,-5.006800294E-1
1.952711621E1,3.167792082E0,3.620595455E0,-3.396408260E-1
1.954378215E1,5.077813625E0,2.223624229E0,-1.000291109E0
1.956044808E1,4.211607456E0,1.551978350E0,-3.622428179E-1
1.957711402E1,1.602451086E0,1.199280262E0,1.391855359E0
1.959377996E1,1.737910360E-1,1.943848133E0,1.078176379E0
1.961044590E1,1.257617831E0,1.348102212E0,-1.558468789E-1
1.962711184E1,2.265544653E0,-6.354520917E-1,-4.640281498E-1
1.964377777E1,2.170784235E0,-9.070578218E-1,-1.380554438E-1
1.966044371E1,5.911644101E-1,-3.442223072E-1,-8.643736690E-2
1.967710965E1,-1.315191865E0,-2.525162399E-1,-2.551124096E-1
1.969377558E1,-1.729052782E0,-1.320307851E0,3.401753306E-1
1.971044152E1,8.162680268E-2,-1.832976103E0,1.806021690E0
1.972710746E1,2.305785418E0,6.032289471E-3,1.757305264E0
1.974377340E1,2.343353748E0,1.958432436E0,-1.258457780E0
1.976043934E1,3.536143601E-1,2.941466570E0,-2.758512735E0
1.977710527E1,-5.554288030E-1,3.634569168E0,-2.152382135E0
1.979377121E1,1.279990792E0,3.497200966E0,-1.379485369E0
1.981043715E1,5.033754826E0,1.151556492E0,-3.830122054E-1
1.982710308E1,5.747855663E0,-1.032743216E0,2.063195854E-1
1.984376902E1,1.860465050E0,-4.051560760E-1,8.191696405E-1
1.986043496E1,-7.345649004E-1,1.151938200E0,1.992335439E0
1.987710090E1,5.543597937E-1,1.474093080E0,2.167424679E0
1.989376684E1,3.711538076E0,-4.555523992E-1,1.624365807E0
1.991043277E1,4.842248917E0,-9.070578218E-1,1.312748432E0
1.992709871E1,2.643440962E0,-1.534797717E-2,9.635628462E-1
1.994376465E1,-4.710530937E-1,7.276926637E-1,8.598685265E-1
1.996043058E1,-1.679267287E0,9.010255337E-1,1.682779789E0
1.997709652E1,4.877755344E-1,-1.062904745E-1,2.656651020E0
1.999376246E1,3.558745384E0,-5.367974043E-1,2.112217665E0
2.001042840E1,3.829205751E0,1.456148922E-1,-9.147699922E-2
2.002709434E1,1.638110280E0,1.461035848E0,-1.045647740E0
2.004376027E1,5.039634649E-3,2.566090107E0,-4.597521126E-1
2.006042621E1,-5.123628303E-2,3.117548466E0,1.444695145E-1
2.007709215E1,2.414137602E0,2.026238441E0,1.132390574E-1
2.009375808E1,5.548713684E0,9.734894037E-1,-1.127350926E0
2.011042402E1,6.558320522E0,5.913934708E-1,-2.087783098E0
2.012708996E1,5.630035400E0,1.266857147E0,-1.442786217E0
2.014375590E1,3.538739681E0,1.705992579E0,-6.312524080E-1
2.016042184E1,2.186666727E0,1.088331938E0,-7.025708556E-1
2.017708777E1,3.450622320E0,-1.185841262E-1,-1.633452415E0
2.019375371E1,4.462749004E0,-6.549997330E-1,-2.599534988E0
2.021041965E1,3.513770580E0,-5.429824591E-1,-2.700480461E0
2.022708558E1,1.828623772E0,1.986074150E-1,-1.892230034E0
2.024375152E1,5.943714380E-1,7.525090575E-1,-1.151709199E0
2.026041746E1,3.283398226E-3,7.093667388E-1,-4.095084667E-1
2.027708340E1,3.979020417E-1,-3.812559843E-1,2.664897740E-1
2.029374934E1,1.433165073E0,-1.158428669E0,4.733438492E-1
2.031041527E1,1.730732679E0,-6.811906099E-1,8.417716622E-1
2.032708121E1,1.138575554E0,-8.162680268E-2,1.753105521E0
2.034374715E1,1.017547965E0,-2.993237413E-2,2.831358194E0
2.036041308E1,1.508912325E0,1.046105940E-2,3.580431223E0
2.037707902E1,1.428430915E0,1.725693047E-1,3.841041327E0
2.039374496E1,3.739255965E-1,8.670461774E-1,3.283932686E0
2.041041090E1,-1.032743216E0,1.553887248E0,3.410687208E0
2.042707684E1,-1.695149779E0,1.413312078E0,4.494361401E0
2.044374277E1,-7.624356151E-1,1.355203509E0,4.588816166E0
2.046040871E1,2.364810258E-1,1.542433619E0,2.772257090E0
2.047707465E1,4.851793647E-1,1.688124776E0,8.122211099E-1
2.049374058E1,7.570141554E-1,2.022726059E0,5.169443041E-2
2.051040652E1,1.634445071E0,2.690324783E0,-3.452913165E-1
2.052707246E1,2.264475822E0,3.138928652E0,-7.572432756E-1
2.054373840E1,1.931401730E0,3.336772442E0,-1.318017125E0
2.056040434E1,1.504178166E0,3.378463984E0,-1.996229768E0
2.057707027E1,1.424307585E0,3.504989386E0,-2.277380228E0
2.059373621E1,1.515937328E0,4.076453209E0,-2.452011108E0
2.061040215E1,1.550985694E0,4.683042049E0,-2.606636286E0
2.062706808E1,1.271744132E0,5.219915867E0,-2.726594925E0
2.064373402E1,1.018617034E0,5.671192169E0,-2.737132311E0
2.066039996E1,8.617011309E-1,5.921112537E0,-2.456287384E0
2.067706590E1,9.713513851E-1,6.124759197E0,-1.718668103E0
2.069373184E1,1.226769209E0,6.323442936E0,-7.803797722E-1
2.071039777E1,1.403614521E0,6.560611248E0,-2.813032269E-1
2.072706371E1,1.696142435E0,6.642390728E0,-4.518872201E-1
2.074372965E1,2.002567530E0,6.410338402E0,-7.242565751E-1
2.076039558E1,2.135965109E0,6.025799274E0,-2.687804960E-2
2.077706152E1,2.295858860E0,5.650728226E0,1.371925950E0
2.079372746E1,2.449414968E0,5.161883831E0,2.432081699E0
2.081039340E1,1.813428402E0,4.208170891E0,2.438266754E0
2.082705934E1,8.613193631E-1,3.888688803E0,1.930409074E0
2.084372527E1,1.732565165E-1,4.586907387E0,1.878256440E0
2.086039121E1,-2.899316847E-1,4.395401001E0,1.803578258E0
2.087705715E1,-2.409097999E-1,2.928867579E0,1.921246052E0
2.089372308E1,1.047404051E0,1.232267022E0,2.318231821E0
2.091038902E1,2.186895847E0,8.667407632E-1,2.894048214E0
2.092705496E1,2.369239092E0,1.817017317E0,3.357694626E0
2.094372090E1,1.727449179E0,3.434281826E0,3.362046957E0
2.096038684E1,1.014188290E0,4.279718876E0,2.813566923E0
2.097705277E1,6.181951761E-1,3.755596638E0,2.094655275E0
2.099371871E1,4.682278633E-1,3.046535254E0,1.756618023E0
2.101038465E1,9.101121426E-1,1.393153429E0,1.495855093E0
2.102705058E1,1.483179688E0,-1.246927753E-1,1.325729251E0
2.104371652E1,1.601305604E0,2.223547846E-1,1.127656341E0
2.106038246E1,1.480507135E0,1.268384337E0,5.749764666E-2
2.107704840E1,1.331685185E0,6.895136237E-1,-4.276053309E-1
2.109371434E1,1.181946993E0,-5.258018374E-1,-1.883754283E-1
2.111038027E1,1.570380688E0,-1.683237910E0,2.609156072E-1
2.112704621E1,2.275013208E0,-1.618028045E0,7.076104879E-1
2.114371215E1,2.588005066E0,-2.609156072E-1,9.100357890E-1
2.116037808E1,2.236681461E0,9.752455950E-1,3.313941360E-1
2.117704402E1,1.574885726E0,1.700342059E0,-1.466075517E-2
2.119370996E1,1.099785686E0,1.397811294E0,3.627009690E-1
2.121037590E1,5.335903764E-1,2.429714650E-1,8.249728680E-1
2.122704184E1,8.720094711E-2,-2.501491308E-1,9.702823162E-1
2.124370777E1,-2.730565667E-1,-2.148716897E-1,5.768090487E-1
2.126037371E1,-3.081049323E-1,1.963395715E0,1.111773923E-1
2.127703965E1,3.046688139E-1,6.367043495E0,-1.120173261E-1
2.129370558E1,3.950004280E-1,1.679114550E-1,-1.443168074E-1
2.131037152E1,-3.688096106E-1,-9.330959618E-2,-4.838049114E-1
2.132703746E1,-1.087415695E0,4.261545539E-1,-3.300960660E-1
2.134370340E1,-8.741474748E-1,4.776198864E-1,-7.544180006E-2
2.136036934E1,4.994583130E-1,1.199203968E0,1.364519149E-1
2.137703527E1,1.471191406E0,1.951865673E0,-2.596175298E-3
2.139370121E1,1.468747973E0,2.093433619E0,-2.271653414E-1
2.141036715E1,7.703005075E-1,1.625663877E0,-3.038288653E-1
2.142703308E1,2.046396956E-2,1.189506412E0,-9.766200930E-2
2.144369902E1,1.997527778E-1,9.327905178E-1,2.050978541E-1
2.146036496E1,8.150463104E-1,8.231402636E-1,3.633118272E-1
2.147703090E1,1.026329160E0,1.113988280E0,4.140899479E-1
2.149369684E1,1.125900149E0,1.442404509E0,3.582721949E-1
2.151036277E1,1.109406829E0,1.272965789E0,2.869537175E-1
2.152702871E1,8.869756460E-1,8.991165757E-1,3.437641561E-1
2.154369465E1,6.866883636E-1,6.511818767E-1,4.938078225E-1
2.156036058E1,3.705658615E-1,8.488729596E-1,6.319395900E-1
2.157702652E1,2.273944169E-1,9.702823162E-1,6.670643687E-1
2.159369246E1,2.986365259E-1,9.820414782E-1,6.749292016E-1
2.161035840E1,5.913934708E-1,9.306524992E-1,6.405680776E-1
2.162702434E1,7.554870248E-1,9.670752883E-1,5.610793233E-1
2.164369027E1,6.383537054E-1,1.070693254E0,5.453495383E-1
2.166035621E1,4.243219495E-1,1.229747176E0,5.541307330E-1
2.167702215E1,4.558578432E-1,1.443702579E0,6.149880886E-1
2.169368808E1,4.689150751E-1,1.469129801E0,6.320159435E-1
2.171035402E1,6.940951198E-2,1.171485901E0,5.932260752E-1
2.172701996E1,-4.918988645E-1,8.613193631E-1,4.450913370E-1
2.174368590E1,-8.671988845E-1,5.857429504E-1,4.437932670E-1
2.176035184E1,-7.406735420E-1,7.762564421E-1,3.956876695E-1
