"Time (s)","Linear Acceleration x (m/s^2)","Linear Acceleration y (m/s^2)","Linear Acceleration z (m/s^2)"
3.907996000E-2,0.000000000E0,0.000000000E0,0.000000000E0
5.574589700E-2,2.429032326E-2,-2.785110474E-2,1.711282730E-1
7.241183500E-2,-1.426858902E-1,2.647161484E-2,-2.306051254E-1
8.907777200E-2,-2.590706348E-1,9.428644180E-2,-4.961228371E-1
1.057437100E-1,-3.138957024E-1,1.866078377E-1,-3.622007370E-1
1.224096470E-1,-3.986985683E-1,6.549835205E-2,-1.950855255E-1
1.390755850E-1,-3.034784794E-1,-2.260160446E-2,-2.451562881E-1
1.557415220E-1,4.685258865E-2,5.789852142E-2,-3.639621735E-1
1.724074600E-1,5.600833893E-2,6.087923050E-2,-7.877159119E-2
1.890733970E-1,-9.030270576E-2,-6.917810440E-2,1.151342392E-1
2.057393350E-1,-4.515581131E-1,1.447153091E-1,2.625617981E-1
2.224052720E-1,-3.962373734E-1,1.784062386E-1,3.295574188E-1
2.390712100E-1,-4.172315598E-1,2.125024796E-1,2.717533112E-1
2.557371470E-1,-3.875517845E-2,1.851797104E-1,3.169536591E-1
2.724030850E-1,8.640122414E-2,-9.680128098E-2,2.891921997E-1
2.890690220E-1,-3.222856522E-1,5.242114067E-1,1.021324158E0
3.057349600E-1,-1.300092697E0,8.384494781E-1,1.338467598E0
3.224008970E-1,-1.351978540E0,1.271308422E0,-6.770062447E-1
3.390668350E-1,6.428363323E-1,-4.791836739E-1,-1.175527573E-1
3.557327720E-1,1.830111861E0,-8.678035736E-1,5.255060196E-1
3.723987100E-1,1.396667242E0,-8.064947128E-1,7.372102737E-1
3.890646470E-1,6.718463898E-1,-1.179169655E0,-4.625740051E-1
4.057305850E-1,6.454706192E-2,-1.121131897E0,-1.706610680E0
4.223965220E-1,-8.639311790E-2,-4.912104607E-1,-3.569034100E0
4.390624600E-1,-5.056886673E-1,-1.259908676E-1,-3.815534115E0
4.557283970E-1,-1.520601034E0,8.105707169E-2,-1.810798645E0
4.723943350E-1,-7.158685923E-1,-2.751045227E-1,-1.240786076E0
4.890602720E-1,1.536785841E0,-1.275864124E0,1.040021420E0
5.057262100E-1,6.532712579E-1,-7.801408768E-1,-2.082241535E0
5.223921470E-1,6.142116785E-1,-2.411303520E-1,-1.824126244E-1
5.390580850E-1,1.201150537E0,-5.130882263E-1,3.589391708E-1
5.557240220E-1,4.810849130E-1,-2.620129585E-1,8.494081497E-1
5.723899600E-1,-8.246475458E-1,3.366198540E-1,2.364759445E-1
5.890558970E-1,-1.589538455E-1,-3.210039139E-1,1.379871368E-1
6.057218350E-1,6.462793350E-1,-5.669407845E-1,1.487846375E-1
6.223877720E-1,2.440791428E-1,-4.009056091E-2,6.508226395E-1
6.390537100E-1,6.611300707E-1,-3.928570747E-1,7.632694244E-1
6.557196470E-1,-1.482921541E-1,-1.012639999E-1,4.807643890E-1
6.723855850E-1,-2.611625195E-1,-7.286882401E-2,1.161479950E-2
6.890515220E-1,-1.026881561E-1,4.668331146E-2,-4.606781006E-1
7.057174600E-1,3.045290709E-1,1.451983452E-1,-5.556006432E-1
7.223833970E-1,7.497459054E-1,-2.427959442E-1,-6.891431808E-1
7.390493350E-1,5.555305481E-1,1.077523232E-1,-8.631482124E-1
7.557152720E-1,1.617058218E-1,1.981639862E-1,-6.967959404E-1
7.723812100E-1,5.009634495E-1,1.592125893E-1,-1.842861176E-1
7.890471470E-1,9.636334181E-1,3.710660934E-1,5.714063644E-1
8.057130850E-1,1.262359381E0,3.161625862E-1,1.566693306E0
8.223790220E-1,9.162914753E-1,2.457580566E-1,1.129974365E0
8.390449600E-1,-9.317427874E-2,5.171976089E-1,-3.545093536E-2
8.557108970E-1,-6.062085629E-1,6.632318497E-1,-4.381971359E-1
8.723768350E-1,-6.486269832E-1,4.738411903E-1,-3.506221771E-1
8.890427720E-1,-5.908954144E-1,7.393198013E-1,-1.183729172E-1
9.057087100E-1,2.400813103E-1,5.787715912E-1,2.286520004E-1
9.223746470E-1,4.385057688E-1,4.988679886E-1,9.923362732E-2
9.390405850E-1,5.770483017E-1,4.603333473E-1,-5.105929375E-1
9.557065220E-1,4.946511984E-1,7.389125824E-1,-8.587265015E-2
9.723724600E-1,-1.900654435E-1,8.300080299E-1,-2.404594421E-1
9.890383970E-1,-1.010139942E0,9.030170441E-1,-4.286575317E-2
1.005704335E0,-1.019099593E0,1.081949711E0,-2.059154510E-1
1.022370272E0,-4.665670991E-1,9.581117630E-1,8.024129868E-1
1.039036210E0,-3.350445032E-1,4.084892273E-1,5.174694061E-1
1.055702147E0,-1.081263661E0,8.577108383E-1,5.315980911E-1
1.072368085E0,-2.866032720E-1,6.743416786E-1,-1.019296646E-1
1.089034022E0,-2.065609694E-1,5.710859299E-1,-2.116298676E-1
1.105699960E0,-4.742352962E-1,4.220504761E-1,-4.858174324E-1
1.122365897E0,-1.488106251E-1,-2.277727127E-1,-5.762066841E-1
1.139031835E0,6.061244011E-2,-6.507678032E-1,-4.049320221E-1
1.155697772E0,6.046569347E-2,-6.883926392E-1,-5.779266357E-4
1.172363710E0,-8.458925486E-1,-4.291410446E-1,3.813562393E-1
1.189029647E0,-1.219370008E0,-1.160860062E-2,1.299076080E-1
1.205695585E0,-6.056004763E-1,-6.064066887E-1,1.443653107E-1
1.222361522E0,-3.815172315E-1,-6.375441551E-1,-4.490900040E-1
1.239027460E0,-3.850027919E-1,-1.637725830E-1,-6.410446167E-1
1.255693397E0,-5.233807564E-1,-7.842588425E-2,-4.805397987E-1
1.272359335E0,-9.565890431E-1,-1.244010925E-1,2.023448944E-1
1.289025272E0,-9.246580601E-1,-2.618417740E-1,8.347749710E-1
1.305691210E0,-6.171310544E-1,-5.783939362E-2,5.518388748E-1
1.322357147E0,-5.070374608E-1,2.143087387E-1,-3.620843887E-1
1.339023085E0,-9.827136993E-3,6.664481163E-1,-7.766022682E-1
1.355689022E0,2.633550167E-1,6.984338760E-1,-6.189870834E-1
1.372354960E0,-1.757353544E-1,8.859539032E-1,-2.635664940E-1
1.389020897E0,-1.120634079E-1,8.459405899E-1,5.692195892E-2
1.405686835E0,-9.484632611E-1,1.069788933E0,6.995344162E-1
1.422352772E0,-9.838039279E-1,7.170839310E-1,1.096821785E0
1.439018710E0,-3.760706186E-1,4.693846703E-1,1.239603043E0
1.455684647E0,1.996216774E-1,3.703498840E-2,1.468308449E0
1.472350585E0,-2.310557365E-1,1.696953773E-1,4.328966141E-1
1.489016522E0,-9.912571311E-1,-5.487155914E-2,9.025096893E-2
1.505682460E0,-1.489164352E0,-1.971845627E-1,6.671142578E-2
1.522348397E0,-1.239596844E0,-8.514380455E-1,-2.870931625E-1
1.539014335E0,-3.682873249E-1,-7.997460365E-1,-1.522731781E-2
1.555680272E0,3.384430408E-1,-4.070668221E-1,-6.791877747E-2
1.572346210E0,9.256148338E-2,-1.425523758E-1,-3.677530289E-1
1.589012147E0,-4.983637333E-1,-3.513002396E-2,-8.595123291E-1
1.605678085E0,-3.524949551E-1,-4.298405647E-1,-8.010935783E-1
1.622344022E0,-1.975555420E-1,-6.151847839E-1,4.457411766E-1
1.639009960E0,-3.351774216E-1,-5.508227348E-1,3.737950325E-1
1.655675897E0,-1.695723534E-1,-2.559771538E-1,5.086336136E-1
1.672341835E0,7.963337898E-1,-9.867858887E-2,7.622275352E-1
1.689007772E0,7.755455971E-1,-3.342199326E-2,9.058423042E-1
1.705673710E0,-3.898026943E-1,-3.056097031E-1,9.423999786E-1
1.722339647E0,-8.320758343E-1,-4.005699158E-1,1.236552238E0
1.739005585E0,-4.172112942E-1,-3.506579399E-1,1.163284302E0
1.755671522E0,-4.016041756E-2,-1.553111076E-1,9.950313568E-1
1.772337460E0,5.358824730E-1,9.085893631E-2,5.967283249E-2
1.789003397E0,8.489265442E-1,2.294797897E-1,-1.324049950E0
1.805669335E0,2.175569534E-1,2.339773178E-1,-1.581050873E0
1.822335272E0,3.734254837E-2,-1.686820984E-1,-9.237976074E-1
1.839001210E0,4.186630249E-3,-4.191384315E-1,-2.535128593E-1
1.855667147E0,-5.217838287E-2,-5.019259453E-1,-9.002971649E-2
1.872333085E0,2.270469666E-1,-4.722685814E-1,2.840471268E-2
1.888999022E0,3.544197083E-1,-6.047053337E-1,-1.691255569E-1
1.905664960E0,-1.056337357E-2,-8.315792084E-1,-6.422224045E-1
1.922330897E0,-2.043766975E-1,-1.169929981E0,-5.412569046E-1
1.938996835E0,-1.531753540E-1,-1.595191479E0,-6.024980545E-2
1.955662772E0,-1.458802223E-1,-1.677329540E0,5.665140152E-1
1.972328710E0,5.267510414E-1,-1.522787571E0,1.457738876E0
1.988994647E0,1.763687611E0,-1.475170612E0,1.821863651E0
2.005660585E0,1.935106754E0,-1.433527470E0,1.492090225E0
2.022326522E0,5.314054489E-1,-1.343739986E0,7.787384987E-1
2.038992460E0,-5.028157234E-1,-1.310656548E0,5.721082687E-1
2.055658397E0,-2.472620010E-1,-1.334982872E0,1.946735382E-1
2.072324335E0,2.688717842E-1,-1.430324554E0,-1.942119598E-1
2.088990272E0,-1.729621887E-1,-1.286068439E0,-1.853203773E-1
2.105656210E0,-4.692025185E-1,-1.134680271E0,-2.283551693E-1
2.122322147E0,-3.682918549E-1,-1.136018276E0,-5.819797516E-2
2.138988085E0,-5.287108421E-1,-1.121897221E0,-8.840823174E-2
2.155654022E0,-8.931851387E-1,-9.299612045E-1,-2.791290283E-1
2.172319960E0,-9.735245705E-1,-7.892193794E-1,-6.372139454E-1
2.188985897E0,-1.248082638E0,-5.711460114E-1,-1.437263250E0
2.205651835E0,-1.120734215E0,-4.942512512E-2,-1.631085873E0
2.222317772E0,-1.000861168E0,-5.223131180E-2,-1.683946371E0
2.238983710E0,-9.216389656E-1,7.505955696E-1,-8.036868572E-1
2.255649647E0,-5.007953644E-1,1.313127518E0,8.361244202E-2
2.272315585E0,-2.955722809E-2,1.770107746E0,2.816603184E-1
2.288981522E0,4.872856140E-1,2.531957150E0,7.856917381E-2
2.305647460E0,1.370013237E0,3.173373699E0,-1.138408184E-1
2.322313397E0,2.134463310E0,3.269122124E0,3.744261265E-1
2.338979335E0,1.959409237E0,3.290084839E0,1.139636993E0
2.355645272E0,1.301772594E0,2.990997791E0,1.461169243E0
2.372311210E0,5.020723343E-1,2.515648842E0,1.380721807E0
2.388977147E0,-1.953740120E-1,2.133923531E0,1.110588789E0
2.405643085E0,-6.731314659E-1,1.751442909E0,3.795077801E-1
2.422309022E0,-8.727178574E-1,1.316532612E0,-4.269330502E-1
2.438974960E0,-8.922934532E-1,1.080152512E0,-5.781056881E-1
2.455640897E0,-8.228106499E-1,8.698611259E-1,-6.770205498E-1
2.472306835E0,-7.148814201E-1,7.158808708E-1,-5.471575260E-1
2.488972772E0,-6.027455330E-1,4.859809875E-1,-5.583977699E-1
2.505638710E0,-3.747119904E-1,3.853430748E-1,-6.029009819E-1
2.522304647E0,-3.988943100E-1,2.833032608E-1,-9.182970524E-1
2.538970585E0,-2.774643898E-1,3.249540329E-1,-1.165279150E0
2.555636522E0,1.048712730E-1,3.651809692E-1,-7.647292614E-1
2.572302460E0,7.368369102E-1,5.889782906E-1,-2.030901909E-1
2.588968397E0,1.433156490E0,6.542077065E-1,2.647936344E-1
2.605634335E0,2.039944172E0,6.634011269E-1,4.238147736E-1
2.622300272E0,1.876856804E0,5.806465149E-1,1.013360023E-1
2.638966210E0,1.105499268E0,3.576169014E-1,-1.626276970E-1
2.655632147E0,4.476761818E-1,8.989429474E-2,-1.932733059E-1
2.672298085E0,1.754217148E-1,-2.566971779E-1,1.370422840E-1
2.688964022E0,4.613447189E-2,-5.029492378E-1,3.077945709E-1
2.705629960E0,-2.038059235E-1,-6.084213257E-1,2.992315292E-1
2.722295897E0,-5.582671165E-1,-5.788269043E-1,-8.654594421E-5
2.738961835E0,-6.456179619E-1,-7.109994888E-1,-2.161674500E-1
2.755627772E0,-4.773244858E-1,-7.591114044E-1,-8.386516571E-2
2.772293710E0,-1.824922562E-1,-7.714557648E-1,-6.860041618E-2
2.788959647E0,-6.082820892E-2,-6.910257339E-1,-1.931056976E-1
2.805625585E0,2.305536270E-1,-5.769772530E-1,-3.564014435E-1
2.822291522E0,1.180443764E-1,-4.862246513E-1,-4.907128811E-1
2.838957460E0,-2.850713730E-1,-4.092836380E-1,-2.434577942E-1
2.855623397E0,-4.603257179E-1,-2.489342690E-1,3.095037937E-1
2.872289335E0,-3.351945877E-1,-9.021997452E-2,5.759937763E-1
2.888955272E0,3.418359756E-1,7.533407211E-2,5.879807472E-1
2.905621210E0,5.718073845E-1,1.713204384E-1,2.707943916E-1
2.922287147E0,-3.220987320E-2,2.082748413E-1,1.302330494E-1
2.938953085E0,-6.681141853E-1,1.580801010E-1,2.186944485E-1
2.955619022E0,-6.948628426E-1,1.182451248E-1,3.361887932E-1
2.972284960E0,-2.692117691E-1,1.275348663E-1,3.034276962E-1
2.988950897E0,1.507720947E-1,2.452158928E-1,2.246730328E-1
3.005616835E0,2.810835838E-1,2.139124870E-1,1.528286934E-1
3.022282772E0,-1.426506042E-2,1.178212166E-1,1.471719742E-1
3.038948710E0,-4.632496834E-1,-1.193284988E-2,6.683540344E-2
3.055614647E0,-7.814736366E-1,-1.221284866E-1,-8.468174934E-2
3.072280585E0,-7.186594009E-1,-2.970361710E-2,1.054048538E-1
3.088946522E0,-2.539834976E-1,-1.145424843E-1,7.618904114E-2
3.105612460E0,6.025218964E-2,-4.950857162E-2,-4.095125198E-2
3.122278397E0,-4.466104507E-2,-5.198144913E-2,-1.519322395E-1
3.138944335E0,-4.028196335E-1,-1.852560043E-2,-2.359189987E-1
3.155610272E0,-5.957775116E-1,1.809120178E-2,-1.911537647E-1
3.172276210E0,-4.179291725E-1,1.128044128E-1,-2.684137821E-1
3.188942147E0,-3.007578850E-1,-6.030559540E-3,-3.115715981E-1
3.205608085E0,-1.468329430E-1,1.003351212E-1,-9.691786766E-2
3.222274022E0,3.266048431E-1,1.265568733E-1,-1.336352825E-1
3.238939960E0,3.358459473E-1,9.573984146E-2,-5.351336002E-1
3.255605897E0,-5.301952362E-3,2.235260010E-1,-5.128467083E-1
3.272271835E0,-9.593009949E-2,2.488121986E-1,-2.514107227E-1
3.288937772E0,-8.721065521E-2,2.035813332E-1,-1.052236557E-1
3.305603710E0,3.107070923E-3,2.073707581E-1,3.107738495E-2
3.322269647E0,-4.684638977E-2,2.262387276E-1,1.059131622E-1
3.338935585E0,-1.416635513E-1,1.849613190E-1,-1.257386208E-1
3.355601522E0,1.102895737E-1,4.226589203E-2,-2.905142307E-1
3.372267460E0,2.028131485E-2,3.571128845E-2,-3.743216991E-1
3.388933397E0,-2.669224739E-1,7.067394257E-2,-1.872258186E-1
3.405599335E0,-3.289155960E-1,8.731460571E-2,3.829479218E-2
3.422265272E0,-6.868648529E-2,8.834171295E-2,1.084399223E-1
3.438931210E0,1.430935860E-1,1.301732063E-1,-5.486822128E-2
3.455597147E0,8.772420883E-2,1.216702461E-1,-1.422452927E-1
3.472263085E0,1.741671562E-1,1.308765411E-1,-2.192423344E-1
3.488929022E0,7.826757431E-2,1.053810120E-2,-2.948956490E-1
3.505594960E0,-2.035174370E-1,-2.395629883E-3,-2.304115295E-1
3.522260897E0,-2.782454491E-1,-9.654569626E-2,-2.949428558E-2
3.538926835E0,-2.178397179E-1,-1.257300377E-1,1.906476021E-1
3.555592772E0,1.158161163E-1,-5.031442642E-2,1.366209984E-1
3.572258710E0,3.815488815E-1,6.298542023E-2,-6.422495842E-2
3.588924647E0,2.904033661E-1,2.167892456E-2,-2.202341557E-1
3.605590585E0,8.536911011E-2,-1.229138374E-1,-1.453566551E-2
3.622256522E0,-2.037305832E-1,-1.557798386E-1,1.833281517E-1
3.638922460E0,-3.971796036E-1,-1.076784134E-1,3.125815392E-1
3.655588397E0,-2.825160027E-1,-9.529161453E-2,1.317501068E-1
3.672254335E0,1.190481186E-1,-1.685786247E-1,-7.192921638E-2
3.688920272E0,1.722464561E-1,-1.027097702E-1,-3.282837868E-1
3.705586210E0,-1.431179047E-1,-1.000423431E-1,-4.429156780E-1
3.722252147E0,-4.056110382E-1,-2.906417847E-2,-3.762326241E-1
3.738918085E0,-3.226561546E-1,-3.750658035E-2,-2.802639008E-1
3.755584022E0,-4.150390625E-2,-4.879331589E-2,-9.360027313E-2
3.772249960E0,7.785892487E-2,-7.674264908E-2,1.138885021E-1
3.788915897E0,-5.965518951E-2,-1.933574677E-2,1.620051861E-1
3.805581835E0,-4.791450500E-2,1.334095001E-2,3.821063042E-2
3.822247772E0,1.045608521E-1,6.204175949E-2,-4.779982567E-2
3.838913710E0,1.769766808E-1,1.096248627E-1,7.856130600E-2
3.855579647E0,2.917332649E-1,8.985280991E-2,1.983017921E-1
3.872245585E0,2.726173401E-1,1.984977722E-2,2.808294296E-1
3.888911522E0,4.711914062E-2,1.535415649E-4,2.219889164E-1
3.905577460E0,-8.427906036E-2,-3.359937668E-2,1.625633240E-2
3.922243397E0,-1.353263855E-2,2.107906342E-2,-2.810392380E-1
3.938909335E0,9.346675873E-2,1.589107513E-2,-3.883445263E-1
3.955575272E0,2.647724152E-1,-4.530477524E-2,-1.303298473E-1
3.972241210E0,1.041030884E-2,1.890850067E-2,-5.284059048E-1
3.988907147E0,-1.382174492E-1,-2.266407013E-2,-6.012923717E-1
4.005573085E0,-1.444935799E-1,-4.866456985E-2,1.294932365E-1
4.022239022E0,2.193369865E-1,3.466176987E-2,5.602707863E-1
4.038904960E0,7.066345215E-1,-1.669406891E-2,5.235400200E-1
4.055570897E0,4.620366096E-1,-8.117628098E-2,3.496513367E-1
4.072236835E0,-7.638502121E-2,-2.547740936E-3,1.926751137E-1
4.088902772E0,-1.108489037E-1,-1.246962547E-1,7.475709915E-2
4.105568710E0,-1.516189575E-1,-5.918025970E-3,3.767204285E-2
4.122234647E0,-3.619480133E-2,1.131110191E-1,-1.931905746E-1
4.138900585E0,1.559643745E-1,1.031026840E-1,-1.689715385E-1
4.155566522E0,1.165494919E-1,1.331439018E-1,-5.989551544E-3
4.172232460E0,-2.581071854E-2,1.233162880E-1,1.181092262E-1
4.188898397E0,-1.730661392E-1,1.405653954E-1,1.209726334E-1
4.205564335E0,-1.715812683E-1,1.554942131E-1,1.532077789E-2
4.222230272E0,-1.594829559E-1,1.533136368E-1,2.579975128E-2
4.238896210E0,-4.030323029E-2,1.120629311E-1,1.792211533E-1
4.255562147E0,3.266334534E-2,5.626392365E-2,2.985167503E-1
4.272228085E0,-1.407327652E-1,8.800506592E-3,2.667212486E-1
4.288894022E0,-1.979022026E-1,3.883123398E-2,1.931529045E-1
4.305559960E0,-9.527254105E-2,2.040672302E-2,1.910300255E-1
4.322225897E0,-1.817312241E-1,5.598545074E-3,2.010865211E-1
4.338891835E0,-3.543119431E-1,-5.070352554E-2,1.195950508E-1
4.355557772E0,-4.139776230E-1,-1.461901665E-1,6.736421585E-2
4.372223710E0,-4.438104630E-1,-5.448484421E-2,7.765483856E-2
4.388889647E0,-1.841154099E-1,1.087331772E-2,5.244731903E-2
4.405555585E0,1.466307640E-1,8.148574829E-2,5.887746811E-2
4.422221522E0,-3.155708313E-3,3.925704956E-2,3.866195679E-2
4.438887460E0,-3.964829445E-1,-8.746671677E-2,5.097150803E-2
4.455553397E0,-5.120182037E-1,-1.407785416E-1,9.350204468E-2
4.472219335E0,-2.578773499E-1,-9.138822556E-2,8.200073242E-2
4.488885272E0,-5.094528198E-2,-1.782274246E-2,1.693248749E-2
4.505551210E0,9.396314621E-2,4.669523239E-2,1.512098312E-2
4.522217147E0,1.123409271E-1,2.344465256E-2,-1.546525955E-2
4.538883085E0,-5.597734451E-2,3.317165375E-2,-5.576753616E-2
4.555549022E0,-1.809091568E-1,6.872653961E-2,-1.045999527E-1
4.572214960E0,-1.778187752E-1,8.542013168E-2,-5.864286423E-2
4.588880897E0,-1.218366623E-1,1.226086617E-1,1.027097702E-1
4.605546835E0,1.796340942E-2,1.110115051E-1,3.249621391E-1
4.622212772E0,7.721567154E-2,1.132426262E-1,3.934960365E-1
4.638878710E0,9.887933731E-2,1.640582085E-1,2.332162857E-1
4.655544647E0,1.425652504E-1,1.723580360E-1,3.468227386E-2
4.672210585E0,1.987075806E-1,1.743712425E-1,-1.934547424E-1
4.688876522E0,1.980676651E-1,9.829378128E-2,-3.457062244E-1
4.705542460E0,1.129674911E-2,-1.486587524E-2,-2.673017979E-1
4.722208397E0,-2.801322937E-1,-7.668161392E-2,-1.266694069E-1
4.738874335E0,-2.825684547E-1,-6.603002548E-2,-8.134889603E-2
4.755540272E0,-8.040952682E-2,-3.503608704E-2,-4.403734207E-2
4.772206210E0,2.599177361E-1,-5.453062057E-2,-2.329955101E-1
4.788872147E0,1.995081902E-1,-5.335950851E-2,-3.513720036E-1
4.805538085E0,-1.678414345E-1,-2.864789963E-2,-2.175767422E-1
4.822204022E0,-7.058906555E-2,-1.511192322E-2,-8.914470673E-2
4.838869960E0,1.108808517E-1,-2.463722229E-2,-7.014274597E-2
4.855535897E0,6.724739075E-2,-1.849126816E-2,-1.384453773E-1
4.872201835E0,-2.899122238E-2,-1.994609833E-3,-1.875634193E-1
4.888867772E0,1.420783997E-2,-5.542325974E-2,-2.106807232E-1
4.905533710E0,-8.688449860E-3,-1.435327530E-2,-1.331424713E-1
4.922199647E0,-1.156029701E-1,3.557586670E-2,-1.144986153E-1
4.938865585E0,-4.446315765E-2,8.567762375E-2,-2.541112900E-2
4.955531522E0,2.009916306E-2,1.144847870E-1,-3.273677826E-2
4.972197460E0,-9.635972977E-2,2.248077393E-1,-2.858374119E-1
4.988863397E0,-1.815223694E-1,1.690392494E-1,-3.588726521E-1
5.005529335E0,-3.569960594E-1,1.669664383E-1,-3.439891338E-1
5.022195272E0,-4.726843834E-1,1.839256287E-1,-3.158402443E-1
5.038861210E0,-4.691958427E-1,2.187895775E-1,-2.074768543E-1
5.055527147E0,-2.298536301E-1,2.833490372E-1,-1.244060993E-1
5.072193085E0,-1.557989120E-1,3.571014404E-1,-1.152703762E-1
5.088859022E0,-1.799545288E-1,3.744678497E-1,-2.333159447E-1
5.105524960E0,-3.277707100E-1,2.850794792E-1,-2.532870770E-1
5.122190897E0,-6.699185371E-1,2.491817474E-1,-2.799484730E-1
5.138856835E0,-6.562604904E-1,1.861968040E-1,-2.191131115E-1
5.155522772E0,-3.877782822E-1,2.459836006E-1,-1.484060287E-2
5.172188710E0,-1.005382538E-1,3.480935097E-1,-4.937648773E-2
5.188854647E0,2.128167152E-1,4.318823814E-1,-1.797828674E-1
5.205520585E0,5.454134941E-1,4.810314178E-1,-1.780159473E-1
5.222186522E0,5.748114586E-1,4.298715591E-1,1.267619133E-1
5.238852460E0,2.463278770E-1,3.929548264E-1,5.127716064E-1
5.255518397E0,1.727833748E-1,2.483382225E-1,6.562371254E-1
5.272184335E0,2.216401100E-1,1.559958458E-1,4.365396500E-1
5.288850272E0,1.999301910E-1,7.332754135E-2,-5.017566681E-2
5.305516210E0,5.024480820E-2,2.041387558E-2,-3.421938419E-1
5.322182147E0,-2.137207985E-1,-1.032495499E-1,-2.870357037E-1
5.338848085E0,-4.328041077E-1,-2.198185921E-1,-1.209273338E-1
5.355514022E0,-3.541264534E-1,-2.892265320E-1,-5.825757980E-2
5.372179960E0,-2.675228119E-1,-3.228607178E-1,-2.116739750E-1
5.388845897E0,-4.104423523E-1,-3.014082909E-1,-5.036175251E-1
5.405511835E0,-6.361312866E-1,-2.551755905E-1,-5.622541904E-1
5.422177772E0,-5.696935654E-1,-1.140508652E-1,-2.494606972E-1
5.438843710E0,-1.212449074E-1,3.866004944E-2,7.877063751E-2
5.455509647E0,2.930312157E-1,6.107711792E-2,8.664035797E-2
5.472175585E0,2.460727692E-1,1.000990868E-1,-1.000308990E-1
5.488841522E0,9.893798828E-2,1.281256676E-1,-2.188642025E-1
5.505507460E0,8.401441574E-2,2.215676308E-1,6.161499023E-2
5.522173397E0,1.624035835E-1,2.284641266E-1,3.644099236E-1
5.538839335E0,3.999342918E-1,2.072277069E-1,2.692937851E-1
5.555505272E0,2.407455444E-1,9.064197540E-2,-2.003448009E-1
5.572171210E0,-3.961997032E-1,-1.183738708E-1,-6.051287651E-1
5.588837147E0,-9.959459305E-1,-3.728022575E-1,-7.484090328E-1
5.605503085E0,-1.567437649E0,-4.886789322E-1,-6.756341457E-1
5.622169022E0,-1.975677490E0,-3.682560921E-1,-7.372369766E-1
5.638834960E0,-1.996109486E0,-2.762594223E-1,-9.144489765E-1
5.655500897E0,-1.679366112E0,-1.273775101E-1,-9.749505520E-1
5.672166835E0,-1.397514343E0,2.723360062E-2,-1.012744904E0
5.688832772E0,-1.874917984E0,1.839413643E-1,-1.161322355E0
5.705498710E0,-2.763371944E0,3.313102722E-1,-1.049091578E0
5.722164647E0,-3.490286350E0,6.415038109E-1,-1.047095537E0
5.738830585E0,-3.660945654E0,9.697284698E-1,-1.045399427E0
5.755496522E0,-3.277424097E0,1.404373169E0,-1.169905186E0
5.772162460E0,-3.171586752E0,1.935300350E0,-9.669506550E-1
5.788828397E0,-3.249342203E0,2.314373493E0,-6.255218983E-1
5.805494335E0,-3.102458715E0,3.129892349E0,-1.324568033E0
5.822160272E0,-3.141989231E0,3.878564835E0,-2.542711496E0
5.838826210E0,-3.787109137E0,4.421177387E0,-2.614536524E0
5.855492147E0,-4.362413406E0,4.638995171E0,-1.938048005E0
5.872158085E0,-3.209360838E0,4.757503986E0,-6.773636341E-1
5.888824022E0,-1.459698200E0,4.998954773E0,-1.742651463E-1
5.905489960E0,-1.504686356E0,4.879953384E0,-1.642360687E-1
5.922155897E0,-2.309811115E0,4.087422848E0,6.106972694E-2
5.938821835E0,-2.856788397E0,2.742899895E0,5.037803650E-1
5.955487772E0,-2.776009798E0,1.005415440E0,8.124036789E-1
5.972153710E0,-1.643126965E0,-1.489915848E0,2.043161392E-1
5.988819647E0,-2.966146469E-1,-4.070001125E0,-9.311730862E-1
6.005485585E0,-4.458956718E-1,-7.255942822E0,-2.715755224E0
6.022151522E0,-2.392526627E0,-9.640670776E0,-5.024886131E0
6.038817460E0,-2.661011696E0,-1.173060036E1,-6.287205219E0
6.055483397E0,1.674647331E-1,-1.366493988E1,-4.949947834E0
6.072149335E0,3.637016296E0,-1.487447357E1,-3.317676783E0
6.088815272E0,3.431718826E0,-1.357856178E1,-3.285121202E0
6.105481210E0,3.339976311E0,-1.282781601E1,-4.388921261E0
6.122147147E0,8.236613274E0,-1.154524326E1,-3.111738682E0
6.138813085E0,1.807832146E1,-6.641824722E0,-2.979087830E-1
6.155479022E0,2.668389702E1,-9.171627760E-1,6.610846519E-1
6.172144960E0,3.012795258E1,4.235867023E0,1.690731287E0
6.188810897E0,3.376847458E1,7.924130440E0,8.917783499E-1
6.205476835E0,3.577288818E1,1.289361858E1,8.028092980E-1
6.222142772E0,2.934358215E1,1.544597340E1,3.268779039E0
6.238808710E0,1.714227486E1,1.659571075E1,8.976684570E0
6.255474647E0,6.271048546E0,1.504997253E1,1.321927071E1
6.272140585E0,-2.861469746E0,1.428913975E1,8.482832909E0
6.288806522E0,-1.380450726E1,1.668614197E1,5.377280235E0
6.305472460E0,-2.167748260E1,1.972233963E1,1.684539413E1
6.322138397E0,-2.055628586E1,2.060567284E1,2.486230850E1
6.338804335E0,-1.538109016E1,2.282903481E1,1.550254250E1
6.355470272E0,-2.140701294E1,2.644173050E1,2.321071386E0
6.372136210E0,-2.773928261E1,2.649371338E1,2.579776049E0
6.388802147E0,-2.615393066E1,2.283634377E1,1.980237198E1
6.405468085E0,-2.003615189E1,2.415500259E1,3.992027664E1
6.422134022E0,-2.953985214E0,2.824613953E1,3.517314911E1
6.438799960E0,1.643867493E1,3.221263123E1,1.526957703E1
6.455465897E0,2.401213074E1,3.321654892E1,9.512207985E0
6.472131835E0,3.267486572E1,3.484110260E1,2.242267799E1
6.488797772E0,5.185066986E1,2.900148010E1,3.043087387E1
6.505463710E0,6.411486053E1,1.366971684E1,2.313992310E1
6.522129647E0,6.316337204E1,-2.286139965E0,5.745446205E0
6.538795585E0,5.323767090E1,-1.730673218E1,-2.877118587E0
6.555461522E0,3.498927689E1,-2.658980942E1,-4.858226776E0
6.572127460E0,1.401860046E1,-3.128712845E1,-2.801434278E0
6.588793397E0,-1.017160416E-1,-3.778717422E1,1.982212067E0
6.605459335E0,-1.184769535E1,-4.068828201E1,5.905493736E0
6.622125272E0,-1.523826885E1,-4.351548004E1,3.100038171E-1
6.638791210E0,-7.478336811E0,-4.458306503E1,-2.357946873E0
6.655457147E0,4.670078754E0,-4.633253479E1,-6.390353203E0
6.672123085E0,-4.155788422E0,-4.788237000E1,-1.805455780E1
6.688789022E0,-2.102842712E1,-4.575220490E1,-1.497699547E1
6.705454960E0,-2.115121078E1,-4.346625137E1,-2.950984001E0
6.722120897E0,-1.021679688E1,-3.920016861E1,6.137685776E0
6.738786835E0,5.546883583E0,-3.331298828E1,4.506634712E0
6.755452772E0,2.144114304E1,-2.926005363E1,-1.005016446E0
6.772118710E0,3.715105438E1,-2.215387917E1,-1.507542729E0
6.788784647E0,5.888961792E1,-1.577454662E1,-5.840301514E-2
6.805450585E0,6.856928253E1,-4.493400574E0,9.448810577E0
6.822116522E0,6.305273438E1,9.149322510E0,1.654848099E1
6.838782460E0,4.265976334E1,1.568803978E1,1.853888893E1
6.855448397E0,2.774096298E1,1.916533279E1,1.762596321E1
6.872114335E0,1.820508385E1,2.433256531E1,1.020825481E1
6.888780272E0,1.133037472E1,3.139117050E1,6.669186592E0
6.905446210E0,-2.183729649E0,3.969694519E1,1.799703407E1
6.922112147E0,-1.505678749E1,4.659566498E1,3.304568863E1
6.938778085E0,-2.208399200E1,5.032665253E1,3.578041458E1
6.955444022E0,-2.217968941E1,4.656124878E1,3.797463608E1
6.972109960E0,-1.599770546E1,3.973641586E1,4.491828537E1
6.988775897E0,-5.682224274E0,3.544088745E1,4.191370010E1
7.005441835E0,8.172222137E0,3.363441467E1,2.657733536E1
7.022107772E0,2.158747864E1,3.149060059E1,1.779549408E1
7.038773710E0,3.751398849E1,3.028682518E1,2.069961357E1
7.055439647E0,6.193076706E1,2.897688675E1,2.145090485E1
7.072105585E0,6.930747223E1,1.570425606E1,1.209673691E1
7.088771522E0,6.985189819E1,-9.111825943E0,8.182094097E-1
7.105437460E0,6.390617752E1,-2.927932358E1,-4.594537735E0
7.122103397E0,3.479480362E1,-3.990331650E1,4.004839420E0
7.138769335E0,1.960583496E1,-4.709076691E1,1.968945861E0
7.155435272E0,4.601735115E0,-5.043324661E1,-2.357311726E0
7.172101210E0,-2.742202997E0,-5.248763275E1,-6.509438753E-1
7.188767147E0,-3.620176792E0,-5.510203552E1,-2.480702400E0
7.205433085E0,-4.068908215E0,-5.835932541E1,-8.504509926E0
7.222099022E0,-1.336744881E1,-5.701290512E1,-1.981402588E1
7.238764960E0,-2.201475334E1,-5.184643936E1,-2.100148010E1
7.255430897E0,-1.939128685E1,-4.793254852E1,-7.362196922E0
7.272096835E0,-1.161379528E1,-4.359115601E1,7.278872013E0
7.288762772E0,-1.857306480E0,-3.652822495E1,8.180456161E0
7.305428710E0,1.432330418E1,-3.056960869E1,-1.944194078E0
7.322094647E0,3.169792175E1,-2.198693848E1,-2.982664347E0
7.338760585E0,5.744854736E1,-1.656622314E1,-3.308269501E0
7.355426522E0,6.903231049E1,-9.278856277E0,-2.562602758E0
7.372092460E0,6.702762604E1,2.529206038E0,4.822593689E0
7.388758397E0,4.510275650E1,1.234998703E1,1.514689350E1
7.405424335E0,2.625519943E1,1.516141510E1,1.653096581E1
7.422090272E0,1.553905201E1,2.284777451E1,1.577905655E1
7.438756210E0,1.353881168E1,3.316845703E1,1.237218571E1
7.455422147E0,1.128396511E1,3.964318466E1,1.123554993E1
7.472088085E0,1.720774651E0,4.073249435E1,1.823818970E1
7.488754022E0,-1.688659859E1,3.909931564E1,2.489308357E1
7.505419960E0,-2.748915482E1,3.743575668E1,3.006888580E1
7.522085897E0,-2.258031273E1,3.307438278E1,3.471294403E1
7.538751835E0,-2.305985641E1,2.670426941E1,3.791835785E1
7.555417772E0,-1.683632851E1,2.272129631E1,3.554650879E1
7.572083710E0,-2.195748329E0,2.320875359E1,2.392367363E1
7.588749647E0,1.058662605E1,2.595441437E1,1.772072411E1
7.605415585E0,2.868134499E1,2.742705727E1,1.981358528E1
7.622081522E0,5.869834137E1,2.476334000E1,2.258390045E1
7.638747460E0,7.001560211E1,1.116103268E1,1.376746082E1
7.655413397E0,7.056596375E1,-1.169848347E1,-2.080010176E0
7.672079335E0,6.020304489E1,-2.646497536E1,-1.231487274E1
7.688745272E0,2.855653191E1,-3.219650269E1,-4.833878994E0
7.705411210E0,1.223306274E1,-3.680884552E1,4.949684143E0
7.722077147E0,1.358677864E0,-4.157230759E1,3.356447935E0
7.738743085E0,-8.830980301E0,-4.381800842E1,-2.091935158E0
7.755409022E0,-7.976448059E0,-4.680417633E1,-8.303415298E0
7.772074960E0,-6.729214668E0,-4.879062653E1,-1.473726368E1
7.788740897E0,-1.090206623E1,-4.963456345E1,-1.352103519E1
7.805406835E0,-1.569340134E1,-4.849301147E1,-8.472690582E0
7.822072772E0,-1.595849991E1,-4.558944321E1,-1.309580326E0
7.838738710E0,-9.005501747E0,-3.950158310E1,1.041920781E0
7.855404647E0,5.516952991E0,-3.067196274E1,1.916313171E-1
7.872070585E0,2.423414421E1,-2.001085663E1,-2.793864727E0
7.888736522E0,4.370970154E1,-1.131554222E1,-6.290875912E0
7.905402460E0,5.303780365E1,1.046070337E0,-8.160748482E-1
7.922068397E0,5.966819000E1,1.278441715E1,8.543649673E0
7.938734335E0,5.388978577E1,1.922617531E1,1.200130081E1
7.955400272E0,2.726210022E1,1.659565926E1,1.082806206E1
7.972066210E0,5.337495804E0,1.618281555E1,7.342238426E0
7.988732147E0,3.659875870E0,1.808341599E1,6.603561878E0
8.005398085E0,7.282638550E-1,1.963285255E1,1.125907135E1
8.022064022E0,-1.342925644E1,2.163535690E1,1.476379681E1
8.038729960E0,-2.814005280E1,2.926536942E1,1.388482475E1
8.055395897E0,-2.830076027E1,3.566515732E1,1.858099174E1
8.072061835E0,-2.646319389E1,3.556772232E1,3.433649826E1
8.088727772E0,-2.371493149E1,3.249077606E1,4.189373779E1
8.105393710E0,-1.222478867E1,3.015170479E1,2.739679527E1
8.122059647E0,-7.415096760E0,2.744035149E1,1.758510208E1
8.138725585E0,-1.209743023E0,2.632856750E1,2.314414406E1
8.155391522E0,2.469972229E1,2.497493553E1,2.739993668E1
8.172057460E0,5.570718765E1,2.009989166E1,2.303217506E1
8.188723397E0,6.957473755E1,1.082742977E1,9.377380371E0
8.205389335E0,7.128285980E1,-1.273588657E0,4.659159184E0
8.222055272E0,6.822657013E1,-1.940292358E1,7.210701704E-3
8.238721210E0,3.617039108E1,-2.919648361E1,5.384580612E0
8.255387147E0,1.378671169E1,-3.529151917E1,9.048681259E0
8.272053085E0,2.658026218E0,-4.086994553E1,1.528560996E0
8.288719022E0,-7.079038620E0,-4.533737946E1,3.303533554E0
8.305384960E0,-4.907807350E0,-5.082682800E1,3.804057837E-1
8.322050897E0,-3.805997133E0,-5.156008911E1,-1.212530613E1
8.338716835E0,-1.063643837E1,-4.912012100E1,-1.790855217E1
8.355382772E0,-1.706568146E1,-4.771697235E1,-1.075104713E1
8.372048710E0,-1.797077179E1,-4.556027985E1,-3.053752422E0
8.388714647E0,-1.274476814E1,-3.831187820E1,-1.241340995E0
8.405380585E0,4.216230869E0,-2.641032791E1,-2.119751692E0
8.422046522E0,2.722165108E1,-1.456534958E1,-7.060264111E0
8.438712460E0,4.155530548E1,-7.961170673E0,-9.930744171E0
8.455378397E0,4.163218689E1,4.712891102E0,-1.257011175E0
8.472044335E0,5.509755707E1,1.600711632E1,1.211471462E1
8.488710272E0,5.886099625E1,2.248407936E1,1.470915794E1
8.505376210E0,2.941596031E1,2.023411369E1,8.597729683E0
8.522042147E0,-9.372243881E-1,1.713815117E1,4.813623428E0
8.538708085E0,-7.895332813E0,1.590827751E1,9.869769096E0
8.555374022E0,-1.580829430E1,1.566606808E1,1.217226219E1
8.572039960E0,-2.567790222E1,1.882788277E1,1.225588989E1
8.588705897E0,-3.482838440E1,2.701587677E1,1.466543579E1
8.605371835E0,-4.008887100E1,2.926143265E1,2.207666779E1
8.622037772E0,-3.809270859E1,2.951222038E1,3.136492348E1
8.638703710E0,-1.564330864E1,3.489087677E1,3.688044357E1
8.655369647E0,1.304639244E1,3.850398254E1,2.981993675E1
8.672035585E0,2.023543358E1,3.683706284E1,2.044562912E1
8.688701522E0,3.414459229E1,2.861629677E1,1.686863327E1
8.705367460E0,5.838871384E1,1.284722900E1,1.290297699E1
8.722033397E0,7.096883392E1,1.004838943E0,-1.051208377E-1
8.738699335E0,6.902466583E1,-8.649935722E0,-1.505532503E0
8.755365272E0,4.880498886E1,-2.143740273E1,9.990818024E0
8.772031210E0,2.297500229E1,-3.278575897E1,1.554135895E1
8.788697147E0,8.110665321E0,-4.159043503E1,-5.401592255E0
8.805363085E0,-5.715691090E0,-4.652551270E1,-1.455194664E1
8.822029022E0,-1.404502296E1,-4.626049805E1,-1.002346611E1
8.838694960E0,-1.172441769E1,-4.780364227E1,-6.038188934E0
8.855360897E0,-1.329930305E1,-4.777507782E1,-2.715453148E0
8.872026835E0,-1.921201706E1,-4.645091629E1,-5.288250923E0
8.888692772E0,-1.541114616E1,-4.387845230E1,-7.835782051E0
8.905358710E0,-4.831413269E0,-3.906503296E1,-7.902263165E0
8.922024647E0,5.263984203E0,-2.968354034E1,-2.763316393E0
8.938690585E0,2.088264847E1,-1.623759079E1,3.142910242E0
8.955356522E0,4.693983459E1,-4.363281727E0,3.658881664E0
8.972022460E0,5.571422577E1,1.258085346E1,6.654814720E0
8.988688397E0,5.303329086E1,2.319520569E1,1.280528164E1
9.005354335E0,4.280556488E1,2.271825790E1,1.209300995E1
9.022020272E0,1.792743683E1,1.707590866E1,6.929808617E0
9.038686210E0,-2.503575325E0,1.307564163E1,8.080112457E0
9.055352147E0,-1.520884132E1,1.592399025E1,8.472158432E0
9.072018085E0,-3.089535522E1,2.525081635E1,9.013176918E0
9.088684022E0,-3.583022690E1,3.519647980E1,1.671181297E1
9.105349960E0,-3.327465439E1,4.045385742E1,2.979636002E1
9.122015897E0,-2.892164230E1,3.667290878E1,3.330045700E1
9.138681835E0,-2.144185448E1,3.202539444E1,2.898733521E1
9.155347772E0,-2.749836922E0,2.981259918E1,2.373912430E1
9.172013710E0,3.090167618E1,1.986609077E1,1.723013306E1
9.188679647E0,5.926736832E1,1.409850597E0,8.320057869E0
9.205345585E0,6.896880341E1,-9.778844833E0,-7.590004921E0
9.222011522E0,7.071623230E1,-1.097490597E1,-6.621919274E-1
9.238677460E0,5.685343170E1,-2.782556915E1,1.273004627E1
9.255343397E0,1.733362579E1,-4.179187775E1,3.873938560E0
9.272009335E0,-2.082591057E0,-4.354814148E1,-2.672660255E1
9.288675272E0,-1.037127495E1,-3.822544098E1,-3.109063911E1
9.305341210E0,-1.364805126E1,-3.455114365E1,-1.098926544E1
9.322007147E0,-1.104225159E1,-2.860979462E1,1.001127815E1
9.338673085E0,-2.729717255E0,-2.013313293E1,9.023614883E0
9.355339022E0,5.887605667E0,-1.322099972E1,-3.331915140E0
9.372004960E0,4.259057045E-1,-6.139692783E0,-7.459795475E-1
9.388670897E0,-4.462203979E0,5.176577568E-1,2.213365364E1
9.405336835E0,2.340916157E0,2.591682911E0,3.258925629E1
9.422002772E0,6.180175304E0,4.469956398E0,1.451597309E1
9.438668710E0,-1.013434219E1,8.172571182E0,-2.231912613E0
9.455334647E0,-2.788961411E1,1.263401031E1,3.807997465E0
9.472000585E0,-3.529737473E1,1.434947205E1,1.694062996E1
9.488666522E0,-2.176330566E1,1.287628460E1,1.956398582E1
9.505332460E0,5.056363583E0,1.098273182E1,6.880307198E0
9.521998397E0,2.248537064E1,3.768544197E0,-6.863176823E-1
9.538664335E0,2.259264565E1,-1.215676785E0,1.115303993E0
9.555330272E0,3.253373337E1,-8.752498627E0,7.934622765E0
9.571996210E0,4.899563599E1,-4.106007576E0,2.422556686E1
9.588662147E0,6.050787354E1,-8.679934502E0,2.087200928E1
9.605328085E0,4.414737701E1,-2.010661888E1,-9.335511208E0
9.621994022E0,5.881150723E0,-2.397838783E1,-3.149548149E1
9.638659960E0,-9.961383820E0,-2.109708786E1,-2.460355759E1
9.655325897E0,-1.319532013E1,-1.815976334E1,-1.051854515E1
9.671991835E0,-1.743794632E1,-1.422876358E1,-2.359271526E0
9.688657772E0,-2.191582870E1,-7.841090202E0,-2.302108288E0
9.705323710E0,-2.026755714E1,-2.361000538E0,4.980449200E0
9.721989647E0,-1.061645985E1,1.453524113E0,1.681332588E1
9.738655585E0,2.355923653E0,5.607555866E0,1.971680069E1
9.755321522E0,8.541630745E0,9.352685928E0,4.538056374E0
9.771987460E0,-2.858665228E0,1.154617882E1,-3.553353786E0
9.788653397E0,-9.122261047E0,7.892332554E0,1.114253330E1
9.805319335E0,-2.956916094E0,3.635400772E0,1.910320854E1
9.821985272E0,7.022871971E0,-1.719596863E0,1.401035690E1
9.838651210E0,1.180630684E1,-4.704940796E0,9.500433207E-1
9.855317147E0,1.297373390E1,-4.952630043E0,-7.208979607E0
9.871983085E0,1.606508827E1,-8.814238548E0,-1.427021265E0
9.888649022E0,1.469124794E1,-1.191415596E1,6.285809994E0
9.905314960E0,9.855209351E0,-1.238883209E1,5.794082642E0
9.921980897E0,7.889159679E0,-9.695137024E0,1.476190448E0
9.938646835E0,7.686623573E0,-6.308398247E0,-2.676579237E0
9.955312772E0,2.469691277E0,-2.661343336E0,-5.070348740E0
9.971978710E0,-7.071755886E0,1.782507896E-1,-2.526855707E0
9.988644647E0,-1.134911060E1,3.313261509E0,3.871478796E0
1.000531058E1,-7.890424252E0,9.044740677E0,8.638973236E0
1.002197652E1,7.681716919E0,1.656753922E1,1.509519768E1
1.003864246E1,1.795995712E1,1.738089943E1,1.373147964E1
1.005530840E1,7.344213963E0,1.423214531E1,7.603522301E0
1.007197434E1,2.311607838E0,8.182664871E0,5.575472832E0
1.008864027E1,3.970182896E0,-9.663143158E-1,2.923816204E0
1.010530621E1,4.303404808E0,-1.015064144E1,-4.428737164E-1
1.012197215E1,4.038224220E0,-1.470456123E1,-3.383789301E0
1.013863808E1,3.724021435E0,-1.558995247E1,-2.132440090E0
1.015530402E1,1.279419899E0,-1.324448204E1,1.484405994E0
1.017196996E1,-2.111844063E0,-8.724283218E0,5.008032322E0
1.018863590E1,-4.096537590E0,-5.087750912E0,6.822641373E0
1.020530184E1,-6.251264095E0,-2.645499229E0,3.518167257E0
1.022196777E1,-1.175445461E1,-2.446956635E-1,3.484201431E-2
1.023863371E1,-1.548775291E1,2.681808472E0,4.114511967E0
1.025529965E1,-1.176125908E1,6.031962872E0,1.294804382E1
1.027196558E1,7.908487320E-2,1.476492500E1,1.470790195E1
1.028863152E1,5.548931599E0,2.360295486E1,1.136171722E1
1.030529746E1,6.253601551E0,2.972702599E1,1.313839626E1
1.032196340E1,1.277126789E1,3.117327309E1,1.172433853E1
1.033862934E1,2.229156113E1,2.883388138E1,7.864133835E0
1.035529527E1,3.144170761E1,2.332810020E1,9.744676590E0
1.037196121E1,3.706137085E1,1.483531189E1,5.787358284E0
1.038862715E1,3.771365738E1,7.220629692E0,-3.633947849E0
1.040529308E1,3.304421997E1,-3.305628300E0,-2.601308346E0
1.042195902E1,2.176316071E1,-1.390130043E1,1.338141632E1
1.043862496E1,1.182601166E1,-2.241588783E1,1.476665211E1
1.045529090E1,6.539183140E0,-3.071106529E1,-5.109400749E-1
1.047195684E1,-4.313620567E0,-3.171965027E1,-2.043021679E0
1.048862277E1,-1.133356762E1,-3.208099747E1,9.539205551E0
1.050528871E1,-6.257299423E0,-3.062555885E1,1.794752884E1
1.052195465E1,4.778621197E0,-2.718469238E1,1.429152870E1
1.053862058E1,3.874192715E0,-2.231894493E1,6.281794071E0
1.055528652E1,-4.059441566E0,-2.094356918E1,3.118438005E0
1.057195246E1,-3.216284990E0,-1.920429993E1,1.422726631E0
1.058861840E1,8.015143394E0,-2.019944572E1,-3.464101791E0
1.060528434E1,1.801658440E1,-1.983170891E1,-6.908744335E0
1.062195027E1,3.012879181E1,-1.897804260E1,-6.742386818E0
1.063861621E1,3.590873718E1,-1.466100311E1,-3.086900234E0
1.065528215E1,3.536682892E1,-7.167632103E0,2.265581608E0
1.067194808E1,4.406135941E1,4.165078163E0,7.460868359E0
1.068861402E1,5.266370392E1,2.054902077E1,6.672744751E-1
1.070527996E1,4.461162949E1,3.101124573E1,-2.697123337E1
1.072194590E1,2.926072121E1,3.492891312E1,-3.136228561E1
1.073861184E1,1.931378746E1,3.495510864E1,-2.673892021E0
1.075527777E1,1.915779114E1,3.760993195E1,1.898395538E1
1.077194371E1,2.323107529E1,3.787094879E1,1.824976158E1
1.078860965E1,2.064898491E1,3.524673462E1,1.718836403E1
1.080527558E1,1.345786285E1,3.272215652E1,1.719494820E1
1.082194152E1,1.143187523E1,3.357535172E1,3.078169441E1
1.083860746E1,1.772034073E1,2.924967003E1,4.488564301E1
1.085527340E1,2.408809280E1,2.350519562E1,3.670749664E1
1.087193934E1,2.911913490E1,1.958931923E1,2.172704697E1
1.088860527E1,3.659842300E1,1.435488987E1,2.128771400E1
1.090527121E1,5.197316742E1,8.790390015E0,2.545183945E1
1.092193715E1,6.888948822E1,3.040371418E0,2.102992249E1
1.093860308E1,6.926103210E1,-6.269493103E0,1.061909676E1
1.095526902E1,6.923710632E1,-2.307165146E1,2.856665611E0
1.097193496E1,6.602607727E1,-3.621048355E1,2.857224464E0
1.098860090E1,4.108443451E1,-3.790692902E1,2.406210709E1
1.100526684E1,3.384621811E1,-4.622004700E1,2.166962242E1
1.102193277E1,2.359560394E1,-5.744883728E1,1.362334824E1
1.103859871E1,3.608295918E0,-5.924327850E1,1.465435410E1
1.105526465E1,-6.186184883E0,-6.031128311E1,1.034717178E1
1.107193058E1,-1.085399055E1,-5.904022217E1,1.130797577E1
1.108859652E1,-1.148151016E1,-6.760189819E1,9.446918488E0
1.110526246E1,-3.189594269E1,-6.877783966E1,2.807315350E0
1.112192840E1,-3.882665253E1,-6.556909180E1,6.175282478E0
1.113859434E1,-1.957414627E1,-6.386809540E1,1.416301060E1
1.115526027E1,1.809638500E0,-5.843347168E1,1.818734550E1
1.117192621E1,2.524744225E1,-5.565320206E1,1.557662582E1
1.118859215E1,4.342945480E1,-5.626050186E1,4.137680531E0
1.120525808E1,6.836647797E1,-5.765885925E1,-7.819775581E0
1.122192402E1,7.220571136E1,-4.051951599E1,-8.965058327E0
1.123858996E1,7.271195984E1,-1.666566277E1,-2.286507130E0
1.125525590E1,6.540019226E1,-4.480979919E0,1.181473541E1
1.127192184E1,5.332569122E1,4.285138130E0,1.078705430E0
1.128858777E1,4.687662506E1,1.527255917E1,-2.492122650E1
1.130525371E1,3.419767761E1,3.097870827E1,-2.466521072E1
1.132191965E1,3.022350121E1,4.740318680E1,9.771185875E0
1.133858558E1,2.608462334E1,6.188419724E1,3.921957779E1
1.135525152E1,1.515737438E1,7.191004181E1,2.698001099E1
1.137191746E1,7.895011902E0,7.552396393E1,1.880937576E1
1.138858340E1,1.906532478E1,6.972756958E1,4.133511353E1
1.140524934E1,3.594866943E1,5.399828339E1,4.625262833E1
1.142191527E1,4.493956375E1,3.834775925E1,3.307834625E1
1.143858121E1,4.796302795E1,2.613096428E1,2.134772491E1
1.145524715E1,5.051556015E1,1.443719387E1,1.605683899E1
1.147191308E1,6.216268921E1,5.576446056E0,1.477043724E1
1.148857902E1,6.902112579E1,-4.866386890E0,1.259243584E1
1.150524496E1,6.899107361E1,-2.718264580E1,9.418388367E0
1.152191090E1,6.941902924E1,-5.377038193E1,5.470800877E0
1.153857684E1,6.453395844E1,-6.056559753E1,8.657831192E0
1.155524277E1,4.450739288E1,-6.781446075E1,5.685734749E0
1.157190871E1,2.141308212E1,-7.097114563E1,3.340837479E0
1.158857465E1,1.904457569E0,-6.827531433E1,1.013902760E1
1.160524058E1,-1.099452496E0,-6.742768097E1,1.252301693E0
1.162190652E1,-6.059659481E0,-6.214927673E1,-7.513695717E0
1.163857246E1,-9.027585030E0,-6.210330963E1,-9.655632019E0
1.165523840E1,-1.630650330E1,-6.102054977E1,-9.149887085E0
1.167190434E1,-2.770167160E1,-5.969887161E1,-2.911984921E-1
1.168857027E1,-2.895311546E1,-5.681202698E1,6.904667377E0
1.170523621E1,-1.825099564E1,-5.248416138E1,1.174150467E1
1.172190215E1,-2.801486969E0,-4.530290985E1,7.936668396E0
1.173856808E1,1.517393017E1,-3.982759857E1,-1.475572586E0
1.175523402E1,4.111313629E1,-2.751639557E1,-6.250645638E0
1.177189996E1,6.877490997E1,-1.842827988E1,-1.231141663E1
1.178856590E1,7.036167908E1,-4.562002182E0,-3.557622910E0
1.180523184E1,7.037017059E1,1.261964893E1,5.795104980E0
1.182189777E1,5.773602295E1,2.217839813E1,8.669441223E0
1.183856371E1,2.587566757E1,2.450531387E1,1.906654549E1
1.185522965E1,1.084855938E1,3.211669922E1,2.453477097E1
1.187189558E1,1.682449722E1,3.889300156E1,1.766579247E1
1.188856152E1,4.756805897E0,4.081144714E1,9.027201653E0
1.190522746E1,-1.507874107E1,4.392911911E1,1.377440357E1
1.192189340E1,-1.984218788E1,4.495196152E1,3.393437958E1
1.193855934E1,-1.371996784E1,3.928729630E1,5.212050629E1
1.195522527E1,-9.156158447E0,3.277950668E1,4.351538849E1
1.197189121E1,-4.473133087E0,3.138069344E1,1.814613342E1
1.198855715E1,8.741622925E0,3.100163841E1,8.146802187E-1
1.200522308E1,2.853508568E1,2.727088547E1,-1.956098318E0
1.202188902E1,4.444355774E1,2.169472122E1,1.140534592E1
1.203855496E1,6.905365753E1,8.467294693E0,8.410149574E0
1.205522090E1,7.111869049E1,-7.992036343E0,-4.483196259E0
1.207188684E1,7.038540649E1,-2.642207527E1,-1.726840401E1
1.208855277E1,4.066421127E1,-3.764664078E1,1.027342319E1
1.210521871E1,1.313645363E1,-4.534381485E1,1.755184746E1
1.212188465E1,3.154861450E0,-4.720264435E1,-9.214562178E-1
1.213855058E1,-8.772710800E0,-4.748920059E1,-2.522642851E0
1.215521652E1,-1.448876953E1,-5.245058823E1,-2.855066299E0
1.217188246E1,-2.156995583E1,-5.383034134E1,-6.143025398E0
1.218854840E1,-2.390566826E1,-5.140554810E1,-6.138987541E0
1.220521434E1,-1.934780121E1,-4.716227341E1,2.219252586E-1
1.222188027E1,-7.664510727E0,-4.070855713E1,3.297000408E0
1.223854621E1,3.341138363E0,-3.214885712E1,3.121432304E0
1.225521215E1,1.957548141E1,-1.895399857E1,-1.002676725E0
1.227187808E1,4.388747406E1,-3.800607681E0,-5.760876656E0
1.228854402E1,5.441522980E1,9.665671349E0,-1.125308037E1
1.230520996E1,5.175649261E1,1.933115005E1,-2.545376062E0
1.232187590E1,4.079077148E1,2.342159653E1,1.347665024E1
1.233854184E1,2.103735733E1,2.430615425E1,2.121724701E1
1.235520777E1,4.401372910E0,2.391526222E1,1.660786247E1
1.237187371E1,-5.785720825E0,2.448043823E1,8.391315460E0
1.238853965E1,-2.329844284E1,3.405554581E1,8.727210999E0
1.240520559E1,-3.274252701E1,4.132611084E1,2.427134514E1
1.242187152E1,-2.992669296E1,3.904569244E1,3.475457001E1
1.243853746E1,-2.621679878E1,3.054151917E1,2.416959190E1
1.245520340E1,-1.739315033E1,2.351931000E1,1.234831905E1
1.247186934E1,2.156877518E0,2.246095467E1,1.422840023E1
1.248853527E1,3.895204163E1,1.381021118E1,1.421047974E1
1.250520121E1,6.002304459E1,1.679266453E0,6.137625694E0
1.252186715E1,6.999803162E1,-9.502451897E0,-1.264666176E1
1.253853309E1,7.179265594E1,-9.454710007E0,-8.616137505E-1
1.255519902E1,6.304644775E1,-3.079700470E1,2.541753197E1
1.257186496E1,2.056102753E1,-4.349512863E1,2.596693993E1
1.258853090E1,-3.777295589E0,-5.181527328E1,4.014217377E0
1.260519684E1,-1.668627167E1,-5.483005524E1,-1.180581665E1
1.262186277E1,-2.683530998E1,-5.280417252E1,-1.556031227E1
1.263852871E1,-3.393846130E1,-4.920043945E1,-1.050864506E1
1.265519465E1,-3.120072174E1,-4.409780121E1,-2.689930916E0
1.267186059E1,-1.489079285E1,-3.467955017E1,3.432021379E0
1.268852652E1,1.120674610E1,-1.886470413E1,4.972342014E0
1.270519246E1,3.850742340E1,1.557478428E0,3.623368740E0
1.272185840E1,4.392898560E1,1.990494728E1,1.037652969E1
1.273852434E1,2.664955521E1,2.881452751E1,1.727838707E1
1.275519027E1,3.037982941E0,3.488325119E1,2.491535950E1
1.277185621E1,-3.278537035E0,3.976465225E1,2.599662399E1
1.278852215E1,-4.235339165E-1,4.034306335E1,2.061580658E1
1.280518809E1,-3.185226917E0,3.205152130E1,1.409853554E1
1.282185402E1,-6.729687691E0,1.864316750E1,9.461402893E0
1.283851996E1,-2.249808311E-1,4.554849625E0,5.336681843E0
1.285518590E1,1.063910580E1,-9.370878220E0,-2.914651632E0
1.287185184E1,2.783193779E1,-1.921926308E1,-1.574221897E1
1.288851777E1,3.761383820E1,-2.169756126E1,-1.268366814E1
1.290518371E1,3.613942719E1,-2.610858154E1,6.306935310E0
1.292184965E1,1.790176964E1,-3.022848129E1,3.739675045E0
1.293851559E1,-5.063386440E0,-2.703503036E1,-9.424549103E0
1.295518152E1,-1.127073193E1,-1.966321564E1,-1.114303017E1
1.297184746E1,-4.233794212E0,-1.329227448E1,-3.179775238E0
1.298851340E1,1.533985138E-1,-8.384880066E0,3.906076193E0
1.300517934E1,-8.206510544E0,1.389592648E0,9.714913368E0
1.302184527E1,-8.099042892E0,1.409439182E1,1.761661148E1
1.303851121E1,1.232679176E1,1.996691513E1,2.345928192E1
1.305517715E1,3.319937897E1,1.837765503E1,2.156633759E1
1.307184309E1,1.493925285E1,1.364604759E1,7.657627106E0
1.308850902E1,-5.680963516E0,4.840865135E0,3.160480976E0
1.310517496E1,-8.876013756E0,-3.048377275E0,6.243368149E0
1.312184090E1,-8.385105133E0,-7.325675011E0,4.984779358E0
1.313850684E1,-2.332674742E0,-1.126470375E1,1.101081371E-1
1.315517277E1,1.126396179E1,-1.506582546E1,-1.075634193E1
1.317183871E1,1.363577080E1,-1.288381004E1,-1.068332481E1
1.318850465E1,1.330523777E1,-9.139542580E0,4.034135342E0
1.320517059E1,9.142162323E0,-6.174440384E0,1.204861641E1
1.322183652E1,4.281746387E0,-2.560614109E0,7.527184486E0
1.323850246E1,4.189242363E0,-6.615962982E-1,-7.501325607E-1
1.325516840E1,2.908782482E0,9.747800827E-1,-5.198178291E0
1.327183434E1,-2.050261736E0,1.970004559E0,-3.270894527E0
1.328850027E1,-9.083710670E0,3.007236958E0,1.170667887E0
1.330516621E1,-1.041408157E1,3.542947769E0,3.918718100E0
1.332183215E1,-3.311198473E0,4.161455631E0,9.477750778E0
1.333849809E1,1.083238125E1,2.349925518E0,1.310693550E1
1.335516402E1,1.242932510E1,-5.374765396E-1,1.085892677E1
1.337182996E1,7.162208557E0,-5.990733147E0,6.818537712E0
1.338849590E1,2.478838444E0,-9.015737534E0,3.880589008E-1
1.340516184E1,-2.029234409E0,-7.192908287E0,-2.964401245E0
1.342182777E1,-4.886698723E-1,-4.093229294E0,1.566381454E-1
1.343849371E1,-1.165584087E0,3.199114323E0,5.829155445E0
1.345515965E1,-1.206161022E1,1.459742165E1,1.320878029E1
1.347182559E1,-1.409068680E1,2.022528839E1,1.836178017E1
1.348849152E1,-6.274218082E0,2.136554337E1,1.858171463E1
1.350515746E1,3.976501465E0,2.041262627E1,1.715506935E1
1.352182340E1,9.674702644E0,1.705244446E1,1.590548897E1
1.353848934E1,7.065238953E0,1.333970261E1,1.051440907E1
1.355515527E1,9.097537994E0,1.493475246E1,6.479660034E0
1.357182121E1,2.263366508E1,1.857924080E1,4.918264389E0
1.358848715E1,3.562903976E1,2.117066574E1,1.051125336E1
1.360515309E1,3.517740250E1,2.071879005E1,1.652070236E1
1.362181902E1,3.316452408E1,1.653185081E1,1.631924057E1
1.363848496E1,3.477604675E1,1.417653656E1,1.469910431E1
1.365515090E1,4.015144348E1,6.298291683E0,9.775793076E0
1.367181684E1,3.331286621E1,-2.488591671E0,1.320030975E1
1.368848277E1,1.844579124E1,-1.137153625E1,2.767477036E1
1.370514871E1,5.170619488E0,-1.800559235E1,2.645702171E1
1.372181465E1,-1.645990849E0,-2.648777008E1,1.108722115E1
1.373848059E1,-9.448760986E0,-2.894477463E1,6.815231323E0
1.375514652E1,-1.102043343E1,-3.016554070E1,9.659580231E0
1.377181246E1,-7.654605865E0,-3.153016853E1,1.008989811E1
1.378847840E1,-3.520476103E0,-3.409354019E1,7.329036713E0
1.380514434E1,-2.230924129E0,-3.671009827E1,2.990123749E0
1.382181027E1,-3.828043699E0,-3.585615540E1,-1.145013571E0
1.383847621E1,1.313211918E0,-3.408484268E1,-4.841065407E0
1.385514215E1,1.089993954E1,-3.031091499E1,-1.020732498E1
1.387180809E1,2.374215126E1,-2.554690552E1,-1.557594681E1
1.388847402E1,3.371997070E1,-2.014488983E1,-1.815410233E1
1.390513996E1,3.718096924E1,-6.683760643E0,-1.444551468E1
1.392180590E1,4.515544510E1,3.462521553E0,-1.304153538E1
1.393847184E1,4.470718002E1,1.162905502E1,-5.899778366E0
1.395513777E1,4.174645996E1,1.893865585E1,-2.802176952E0
1.397180371E1,3.172966194E1,2.682403183E1,-1.084350109E1
1.398846965E1,1.644538498E1,3.186285400E1,-2.374633598E1
1.400513559E1,1.019693565E1,3.854034042E1,-1.631352806E1
1.402180152E1,1.477930832E1,4.156402969E1,1.108630562E1
1.403846746E1,1.488920784E1,4.409985352E1,3.476859283E1
1.405513340E1,5.049017906E0,4.676133347E1,3.992464828E1
1.407179934E1,-1.914373636E0,4.737397385E1,3.724096298E1
1.408846527E1,-1.513004303E-1,4.364914322E1,2.881785965E1
1.410513121E1,5.312616348E0,3.859710312E1,1.805837059E1
1.412179715E1,1.577766514E1,3.469314194E1,1.636564636E1
1.413846309E1,2.517411613E1,3.235095596E1,1.747854424E1
1.415512902E1,3.428403091E1,2.928826523E1,1.345831299E1
1.417179496E1,4.630749512E1,2.411041832E1,1.182534218E1
1.418846090E1,6.174462509E1,1.871916389E1,1.137040615E1
1.420512684E1,6.965623474E1,1.251666164E1,9.059095383E0
1.422179277E1,7.008815765E1,-7.595003128E0,4.387849808E0
1.423845871E1,7.071360779E1,-2.498502922E1,-5.493817329E0
1.425512465E1,5.872573090E1,-3.569959259E1,-3.946312666E0
1.427179059E1,3.706599426E1,-4.343862152E1,1.413717747E1
1.428845652E1,1.727612495E1,-5.233277512E1,2.171661186E1
1.430512246E1,8.654646873E-1,-6.071229172E1,1.787191772E1
1.432178840E1,-1.072489929E1,-6.331773758E1,1.179893589E1
1.433845434E1,-1.068194199E1,-6.484286499E1,5.790110588E0
1.435512027E1,-6.785878181E0,-6.650616455E1,8.232779503E-1
1.437178621E1,-1.422938728E1,-6.524407959E1,-3.238167048E0
1.438845215E1,-2.145894623E1,-6.234888840E1,-8.576555252E-1
1.440511809E1,-1.309506416E1,-5.944345093E1,2.932826281E0
1.442178402E1,5.237235069E0,-5.508890915E1,4.762651443E0
1.443844996E1,2.395729446E1,-5.018252945E1,2.737660408E0
1.445511590E1,4.191593552E1,-4.010882187E1,-3.192304850E0
1.447178184E1,6.783615875E1,-3.197626877E1,-1.328571033E1
1.448844777E1,7.081138611E1,-2.065706444E1,-1.721958160E1
1.450511371E1,7.114472961E1,-5.709959030E0,-4.248842239E0
1.452177965E1,6.672428131E1,1.038203144E1,1.453836441E1
1.453844559E1,5.106999207E1,2.178235626E1,1.934605408E1
1.455511152E1,2.961004257E1,2.906227493E1,9.927887917E0
1.457177746E1,1.520587063E1,3.809957886E1,1.058835125E1
1.458844340E1,1.440052223E1,4.540290833E1,2.439084816E1
1.460510934E1,1.430959415E1,5.303040314E1,4.138796234E1
1.462177527E1,5.219480038E0,5.415382767E1,3.505632019E1
1.463844121E1,-8.332564354E0,5.262854767E1,2.753514862E1
1.465510715E1,-3.731032848E0,4.792469025E1,3.206365967E1
1.467177309E1,7.172549725E0,4.064565277E1,3.580481720E1
1.468843902E1,2.318670273E1,3.632563019E1,2.719858551E1
1.470510496E1,3.491239929E1,3.317201996E1,1.013152027E1
1.472177090E1,3.836326981E1,2.989996719E1,3.671298027E0
1.473843684E1,5.374675751E1,2.629755592E1,5.327776909E0
1.475510277E1,6.922012329E1,1.502036381E1,9.355394363E0
1.477176871E1,7.035560608E1,-9.274232864E0,7.541993260E-1
1.478843465E1,7.116246033E1,-2.969808578E1,-1.244970036E1
1.480510059E1,5.657359314E1,-4.065647507E1,-9.437058449E0
1.482176652E1,2.657363129E1,-5.040745544E1,8.536461830E0
1.483843246E1,9.749271393E0,-5.882340240E1,1.629137039E1
1.485509840E1,-3.620972872E0,-6.507028961E1,1.134383297E1
1.487176434E1,-1.272787094E1,-6.747128296E1,-2.309066296E0
1.488843027E1,-1.193369961E1,-6.527947998E1,-6.183194160E0
1.490509621E1,-1.035032940E1,-6.214675140E1,-9.859971046E0
1.492176215E1,-1.504526138E1,-5.662113190E1,-1.253654480E1
1.493842809E1,-1.864030647E1,-5.089669800E1,-8.966364861E0
1.495509402E1,-1.249979115E1,-4.740892029E1,-2.092530489E0
1.497175996E1,-4.452404976E0,-4.389945221E1,6.623293877E0
1.498842590E1,8.627335548E0,-3.975031662E1,8.981787682E0
1.500509184E1,3.233895493E1,-3.742770386E1,3.938728333E0
1.502175777E1,6.018785858E1,-3.396845245E1,-8.158247471E-1
1.503842371E1,7.070138550E1,-2.439435577E1,-5.044837952E0
1.505508965E1,7.086026764E1,-7.614846706E0,1.154212713E0
1.507175559E1,6.542053986E1,9.523778915E0,1.130986881E1
1.508842152E1,4.140612030E1,1.441844177E1,1.351929092E1
1.510508746E1,2.411996078E1,1.898603630E1,1.203950787E1
1.512175340E1,2.054625893E1,2.542440987E1,5.389394760E0
1.513841934E1,1.877683067E1,3.207043457E1,8.453659058E0
1.515508527E1,1.560381413E1,3.885065842E1,2.281787109E1
1.517175121E1,2.651132584E0,4.663803482E1,2.480174637E1
1.518841715E1,-1.000947857E1,5.281171417E1,2.745656013E1
1.520508309E1,-9.910820961E0,4.879745102E1,3.953611374E1
1.522174902E1,-7.466495991E0,3.958073807E1,4.685513687E1
1.523841496E1,-4.036397934E-1,3.449504089E1,3.599660492E1
1.525508090E1,1.066409206E1,3.144187546E1,1.451669312E1
1.527174684E1,1.835456467E1,2.799647331E1,3.391915321E0
1.528841277E1,2.832921028E1,2.299236870E1,5.191435337E0
1.530507871E1,5.880886078E1,1.676914597E1,3.983864069E0
1.532174465E1,7.019812012E1,-4.819184780E0,-7.845712662E0
1.533841058E1,7.047879028E1,-2.699369049E1,-1.948489761E1
1.535507652E1,4.920899963E1,-3.716975784E1,-8.597658157E0
1.537174246E1,2.051428223E1,-4.636523056E1,9.382391930E0
1.538840840E1,3.653475761E0,-5.000218201E1,-6.955980062E-1
1.540507434E1,-1.027170944E1,-4.918262863E1,-2.482992649E0
1.542174027E1,-1.679367065E1,-5.000075531E1,2.200266123E-1
1.543840621E1,-2.117575264E1,-5.280251312E1,-4.498070717E0
1.545507215E1,-2.912385559E1,-5.409650040E1,-3.609946728E0
1.547173808E1,-3.325433731E1,-5.104228592E1,6.440799713E0
1.548840402E1,-2.474906349E1,-4.524132538E1,1.299306488E1
1.550506996E1,-5.451450825E0,-3.703735352E1,1.078126144E1
1.552173590E1,1.138870430E1,-2.581965637E1,5.408166885E0
1.553840184E1,3.297360992E1,-1.595750141E1,-1.848502874E0
1.555506777E1,5.137681198E1,-5.620169163E0,-1.176511765E1
1.557173371E1,6.046612930E1,2.775345802E0,-1.395434284E1
1.558839965E1,5.756220245E1,1.054848289E1,-4.514662743E0
1.560506558E1,3.992448807E1,1.116470528E1,6.042069435E0
1.562173152E1,1.789381409E1,1.034072304E1,1.071855545E1
1.563839746E1,6.501163483E0,1.235215664E1,6.760231256E-1
1.565506340E1,2.026701927E0,1.702818489E1,-3.345015287E0
1.567172934E1,-4.171857834E-1,2.249399185E1,2.423683643E0
1.568839527E1,4.310045242E-1,2.820120621E1,1.186025047E1
1.570506121E1,1.507644653E-1,3.130908775E1,1.693392372E1
1.572172715E1,-1.115445137E1,3.229034042E1,1.235581112E1
1.573839308E1,-2.270755768E1,3.246720505E1,1.556537437E1
1.575505902E1,-2.465085793E1,2.841107559E1,2.769230270E1
1.577172496E1,-1.878808022E1,1.935948181E1,3.393334198E1
1.578839090E1,-1.118420124E0,7.931500435E0,2.077160072E1
1.580505684E1,1.229210472E1,3.192315102E0,3.279986382E0
1.582172277E1,2.455971527E1,-2.583961010E0,-2.825322151E0
1.583838871E1,3.571485138E1,-4.690728188E0,-8.622941017E0
1.585505465E1,6.096190643E1,-1.029018211E1,-2.467207718E1
1.587172058E1,7.098113251E1,-1.162153149E1,-1.170796204E1
1.588838652E1,5.924769592E1,-2.646021271E1,2.057147598E1
1.590505246E1,1.727168274E1,-4.042461777E1,2.278269386E1
1.592171840E1,-1.178153133E1,-4.093052673E1,-4.908285141E0
1.593838434E1,-1.681636429E1,-3.800460815E1,-1.179230499E1
1.595505027E1,-1.643045998E1,-3.691973495E1,3.385789394E-1
1.597171621E1,-1.746095085E1,-3.281764221E1,1.322903633E1
1.598838215E1,-1.314117622E1,-2.501165581E1,1.672663307E1
1.600504809E1,-6.516016960E0,-1.645432663E1,1.171316814E1
1.602171402E1,-2.505609989E0,-9.967408180E0,8.362972260E0
1.603837996E1,-3.761276722E0,-5.832887650E0,1.059750557E1
1.605504590E1,-2.861549854E-1,2.908394337E0,2.352232933E1
1.607171184E1,2.037239075E1,1.220098686E1,2.838757515E1
1.608837777E1,3.733542633E1,1.664374733E1,1.464062595E1
1.610504371E1,1.609975052E1,1.596617889E1,-1.133410454E0
1.612170965E1,-1.041224766E1,1.318984413E1,6.801879406E-1
1.613837559E1,-1.674371338E1,7.834384441E0,1.252582741E1
1.615504152E1,-9.905426025E0,1.820115566E0,1.761540413E1
1.617170746E1,6.736596584E0,-4.946539879E0,7.510067940E0
1.618837340E1,1.693137360E1,-8.583823204E0,-5.285025597E0
1.620503934E1,1.312798691E1,-6.369711399E0,-6.669607639E0
1.622170527E1,2.393354988E1,-1.295567894E1,-8.985664368E0
1.623837121E1,2.503117561E1,-1.339619732E1,-1.443298817E1
1.625503715E1,1.952359009E1,-1.409024239E1,-1.692005539E1
1.627170309E1,9.895363808E0,-1.195103073E1,-1.182619381E1
1.628836902E1,-1.244705200E0,-8.480155945E0,-5.796828270E-1
1.630503496E1,-4.394429207E0,-6.375241756E0,3.384607553E0
1.632170090E1,-1.312622070E0,-3.600553513E0,-1.761826992E0
1.633836684E1,-1.548710346E0,-3.030805588E-1,-5.489148140E0
1.635503277E1,-8.470945358E0,5.030144215E0,2.171499729E-1
1.637169871E1,-8.285129547E0,9.527009964E0,1.697811508E1
1.638836465E1,5.556195259E0,1.205818558E1,2.673462486E1
1.640503059E1,2.557091141E1,8.471660614E0,1.613205338E1
1.642169652E1,2.054682541E1,2.754286289E0,-3.122280836E0
1.643836246E1,3.576308727E0,-2.045580864E0,-9.739846230E0
1.645502840E1,-3.371031761E0,-1.027418518E1,-4.510890961E0
1.647169434E1,-8.771409035E0,-1.578499413E1,-1.038645029E0
1.648836027E1,-7.464577675E0,-1.981452560E1,-4.920181274E0
1.650502621E1,4.179997444E0,-2.113578033E1,-1.078023148E1
1.652169215E1,1.405996799E1,-1.526653671E1,-5.233511925E0
1.653835809E1,2.033204460E1,-1.010968781E1,5.098588467E0
1.655502402E1,2.040876007E1,-5.063533783E0,1.000516319E1
1.657168996E1,1.637681580E1,4.824762344E-1,9.244693756E0
1.658835590E1,7.757545471E0,3.807707310E0,2.631249905E0
1.660502184E1,-4.635509491E0,5.021234512E0,-2.024172306E0
1.662168777E1,-1.256772518E1,6.660511017E0,1.956745625E0
1.663835371E1,-9.781641960E0,8.645501137E0,1.133275414E1
1.665501965E1,-1.776111603E0,1.220275307E1,2.136192703E1
1.667168559E1,7.727077484E0,1.345388412E1,1.898780441E1
1.668835152E1,3.152275085E-2,1.500424004E1,6.759284496E0
1.670501746E1,-1.225296593E1,1.526555347E1,2.625825882E0
1.672168340E1,-1.205903244E1,1.369629002E1,5.716561794E0
1.673834934E1,-6.204409599E0,1.101942635E1,1.221792412E1
1.675501527E1,5.940723419E-2,8.141463280E0,2.026165962E1
1.677168121E1,9.638492584E0,6.751776695E0,1.280061531E1
1.678834715E1,9.163888931E0,8.580884933E0,2.058870554E0
1.680501309E1,6.548224926E0,1.114231014E1,8.622102737E-1
1.682167902E1,1.305072021E1,1.196043968E1,6.066314697E0
1.683834496E1,3.492433167E1,1.178391552E1,1.400972939E1
1.685501090E1,5.022087479E1,1.068433189E1,1.546581459E1
1.687167684E1,4.207698059E1,7.457498074E0,9.065410614E0
1.688834277E1,2.922026634E1,1.805439115E0,6.774590492E0
1.690500871E1,2.171064568E1,-5.018434525E0,1.001055717E1
1.692167465E1,1.468881226E1,-1.032091713E1,8.963966370E0
1.693834059E1,6.304663658E0,-1.227884007E1,5.804336071E0
1.695500652E1,1.828884125E0,-1.323017693E1,4.907664299E0
1.697167246E1,9.992218018E-2,-1.449958801E1,8.658645630E0
1.698833840E1,-3.335952759E-1,-1.632289124E1,9.851812363E0
1.700500434E1,-2.289031029E0,-1.725398445E1,6.792572021E0
1.702167027E1,-3.848204136E0,-1.774675751E1,1.535934329E0
1.703833621E1,-7.446633339E0,-1.537250519E1,-2.672938824E0
1.705500215E1,-9.356019974E0,-1.263067245E1,-1.950002193E0
1.707166809E1,-8.885293007E0,-1.018192101E1,-9.259140491E-2
1.708833402E1,-7.219260216E0,-7.785763264E0,-2.363691330E-1
1.710499996E1,-5.408963203E0,-5.960757732E0,-2.792344332E0
1.712166590E1,-4.692230225E0,-4.313344002E0,-4.452457428E0
1.713833184E1,-3.963778496E0,-2.935904026E0,-3.706080675E0
1.715499777E1,-1.013654709E0,-2.390049934E0,-2.157743931E0
1.717166371E1,6.379850864E0,-1.780572414E0,-2.268085480E0
1.718832965E1,1.253263283E1,-4.191884995E-1,-6.489171982E-1
1.720499559E1,1.627627945E1,1.760495901E0,2.618509054E0
1.722166152E1,1.869785881E1,3.595630407E0,4.139999390E0
1.723832746E1,2.277648544E1,5.560451508E0,3.827214479E0
1.725499340E1,2.601570129E1,7.005309105E0,3.279284954E0
1.727165934E1,2.393425560E1,8.953776360E0,3.190519094E0
1.728832527E1,1.674208069E1,1.100984764E1,4.067109108E0
1.730499121E1,1.333096123E1,1.271936131E1,3.706976652E0
1.732165715E1,9.821923256E0,1.336959839E1,1.313990831E0
1.733832309E1,1.695357800E0,1.599582291E1,1.544831276E0
1.735498902E1,-2.282612324E0,1.760081291E1,8.166738510E0
1.737165496E1,-3.688724041E0,1.693333244E1,1.657191658E1
1.738832090E1,-8.745367050E0,1.876277542E1,1.717501831E1
1.740498684E1,-2.138848686E1,2.405673218E1,1.764132690E1
1.742165277E1,-2.834445953E1,2.455842018E1,2.808672905E1
1.743831871E1,-1.923978615E1,2.183278275E1,4.027989960E1
1.745498465E1,-1.462524891E0,2.054169273E1,3.187358093E1
1.747165059E1,1.323278236E1,2.459080887E1,1.821445847E1
1.748831652E1,2.272050285E1,2.398902512E1,1.997212410E1
1.750498246E1,3.138776970E1,2.057532692E1,3.472436142E1
1.752164840E1,5.002189636E1,1.457902718E1,4.040219879E1
1.753831434E1,6.866321564E1,8.128457069E0,3.670773315E1
1.755498027E1,7.018606567E1,-1.063223934E1,2.631133842E1
1.757164621E1,6.887075806E1,-2.435352135E1,1.856596184E1
1.758831215E1,4.434704971E1,-3.537802505E1,1.286388683E1
1.760497809E1,2.500153732E1,-4.363797760E1,4.658934593E0
1.762164402E1,1.145318508E1,-5.003742599E1,-3.656102180E0
1.763830996E1,-2.389702559E0,-5.304886627E1,2.310021162E0
1.765497590E1,-8.802141190E0,-5.326212311E1,5.545299530E0
1.767164184E1,-7.836726665E0,-5.249189377E1,-2.213490963E0
1.768830777E1,-6.704424858E0,-4.941064835E1,-1.131491470E1
1.770497371E1,-4.009608746E0,-4.924888992E1,-1.598455238E1
1.772163965E1,-9.530990601E0,-4.822721100E1,-1.822925949E1
1.773830559E1,-1.539419746E1,-4.611006546E1,-1.389637566E1
1.775497152E1,-8.782245636E0,-4.328514862E1,-6.569195747E0
1.777163746E1,4.303873539E0,-3.882266617E1,-2.262250423E0
1.778830340E1,1.538183022E1,-3.327472687E1,2.118379176E-1
1.780496934E1,3.295635605E1,-2.817506790E1,-2.359371662E0
1.782163527E1,5.287038040E1,-2.128967667E1,-6.234230042E0
1.783830121E1,6.531142426E1,-1.013419437E1,-6.551053047E0
1.785496715E1,6.665261078E1,2.221235514E0,-1.155004978E0
1.787163309E1,5.752798462E1,8.026439667E0,8.548761368E0
1.788829902E1,4.368110275E1,1.243309879E1,1.721300697E1
1.790496496E1,3.206192780E1,1.704370499E1,2.018031693E1
1.792163090E1,2.146464157E1,2.220531464E1,2.650889206E1
1.793829684E1,1.494195175E1,2.720573807E1,2.836217690E1
1.795496277E1,5.349982262E0,3.375679016E1,2.038513184E1
1.797162871E1,-8.075737953E-1,3.540351868E1,1.526630306E1
1.798829465E1,-8.030064583E0,3.616774368E1,1.774792290E1
1.800496059E1,-1.962836266E1,3.843179321E1,2.466704178E1
1.802162652E1,-2.223203850E1,3.832610321E1,3.372257614E1
1.803829246E1,-1.225448608E1,3.537222672E1,3.591358566E1
1.805495840E1,-1.930700779E0,3.357394409E1,2.784588432E1
1.807162434E1,1.703407288E0,3.369293976E1,2.201831436E1
1.808829027E1,1.078038311E1,3.171724510E1,2.261772156E1
1.810495621E1,2.965560532E1,2.826790237E1,2.218241882E1
1.812162215E1,4.964147186E1,2.922194481E1,2.129282570E1
1.813828809E1,6.910676575E1,2.570187569E1,1.609542465E1
1.815495402E1,7.091035461E1,7.635014057E0,6.833529949E0
1.817161996E1,7.173533630E1,-1.463298225E1,-3.742763996E-1
1.818828590E1,6.119597244E1,-3.213417053E1,-1.181541348E1
1.820495184E1,2.893397903E1,-3.810580063E1,1.047534108E0
1.822161777E1,1.467228508E1,-4.626155853E1,5.473609924E0
1.823828371E1,2.957243681E0,-5.328799057E1,5.486075401E0
1.825494965E1,-6.051981449E0,-5.887298965E1,4.183361530E0
1.827161559E1,-1.104414272E1,-6.036384201E1,-1.990317106E0
1.828828152E1,-8.825552940E0,-5.964489365E1,-8.212121010E0
1.830494746E1,-7.034753799E0,-5.655297089E1,-1.655956459E1
1.832161340E1,-1.214167786E1,-5.237837982E1,-1.667103577E1
1.833827934E1,-1.177472305E1,-4.989732361E1,-9.708707809E0
1.835494527E1,-1.744565487E0,-4.749232864E1,-2.090639830E0
1.837161121E1,7.783834457E0,-4.152251816E1,2.809286594E0
1.838827715E1,2.527886772E1,-3.327613068E1,1.678781629E0
1.840494309E1,4.810148239E1,-2.484817505E1,-3.589451551E0
1.842160902E1,5.997570038E1,-1.844543266E1,-3.968203783E0
1.843827496E1,6.811921692E1,-7.793439865E0,-4.138455868E0
1.845494090E1,7.032206726E1,2.090883493E0,1.098628879E0
1.847160684E1,6.193415833E1,1.289094353E1,2.055377197E1
1.848827277E1,3.715161133E1,1.634499168E1,2.512719727E1
1.850493871E1,1.985887527E1,2.261950684E1,1.410206604E1
1.852160465E1,1.143666458E1,3.011434937E1,3.575194359E0
1.853827059E1,1.002221870E1,3.478453445E1,4.964579105E0
1.855493652E1,8.979239464E-1,3.753221893E1,1.523126125E1
1.857160246E1,-9.073543549E0,4.197772217E1,3.021366692E1
1.858826840E1,-1.372915268E1,4.574995422E1,3.420355606E1
1.860493434E1,-1.246169662E1,4.174687576E1,3.750221252E1
1.862160027E1,-9.044376373E0,3.526399231E1,3.030808640E1
1.863826621E1,-2.686644077E0,3.216980362E1,2.231431007E1
1.865493215E1,8.685090065E0,3.130738831E1,1.617322540E1
1.867159808E1,1.894235611E1,3.136266518E1,1.002465153E1
1.868826402E1,3.506260681E1,3.013362885E1,9.719266891E0
1.870492996E1,5.511211014E1,2.951428604E1,2.280023384E1
1.872159590E1,7.089608002E1,1.861293030E1,1.454553986E1
1.873826184E1,7.195780182E1,-6.864136219E0,-7.674632549E0
1.875492777E1,7.151411438E1,-2.982467842E1,-2.576532936E1
1.877159371E1,4.522484970E1,-3.983776093E1,-6.547547340E0
1.878825965E1,1.948777962E1,-5.066367340E1,1.750566292E1
1.880492558E1,3.792208910E0,-5.744965744E1,1.587726212E1
1.882159152E1,-8.701395035E0,-6.270640182E1,4.803247452E0
1.883825746E1,-1.084919930E1,-6.850678253E1,-6.312399864E0
1.885492340E1,-1.137108803E1,-7.149304199E1,-1.420437622E1
1.887158934E1,-1.805218887E1,-6.579542542E1,-1.777533913E1
1.888825527E1,-1.439472961E1,-5.895829773E1,-6.668220520E0
1.890492121E1,-1.424989939E0,-5.144820786E1,2.651483774E0
1.892158715E1,1.198041153E1,-4.001306534E1,5.078973770E0
1.893825308E1,2.754878998E1,-2.371007347E1,1.262009740E0
1.895491902E1,4.738423538E1,-1.066947174E1,-6.166272640E0
1.897158496E1,5.686225891E1,2.185071468E0,-9.393985748E0
1.898825090E1,6.817443848E1,1.391855240E1,-9.456736565E0
1.900491684E1,6.970988464E1,2.289990616E1,3.992428780E-1
1.902158277E1,5.281940079E1,2.288822746E1,1.477705097E1
1.903824871E1,1.781390762E1,1.838466263E1,1.439098167E1
1.905491465E1,-2.056564331E0,2.125522232E1,3.056711912E0
1.907158058E1,-1.064826012E0,2.427059174E1,6.365127563E-1
1.908824652E1,-1.916424274E0,2.705097198E1,1.070320606E1
1.910491246E1,-7.355220795E0,3.117029762E1,1.958744431E1
1.912157840E1,-1.400263691E1,3.189186859E1,2.623600769E1
1.913824434E1,-1.744322395E1,2.873382187E1,3.534267807E1
1.915491027E1,-1.539266205E1,2.173067856E1,4.251434708E1
1.917157621E1,-1.233212852E1,1.451713943E1,3.744899750E1
1.918824215E1,4.440237999E0,9.061229706E0,2.167354012E1
1.920490808E1,2.638843918E1,-9.803009033E-2,6.582681656E0
1.922157402E1,4.564234924E1,-7.103263855E0,-5.892073631E0
1.923823996E1,5.917405319E1,-1.651889801E1,-2.028032303E1
1.925490590E1,5.699722672E1,-1.821255875E1,-1.451445484E1
1.927157184E1,4.372817993E1,-2.964140320E1,-5.254264832E0
1.928823777E1,1.901412582E1,-3.834888458E1,-7.688089371E0
1.930490371E1,1.451772690E0,-3.830055618E1,-1.731415367E1
1.932156965E1,-3.140218735E0,-3.553335571E1,-8.655636787E0
1.933823558E1,-5.503314495E0,-3.260828018E1,2.187222481E0
1.935490152E1,-6.041901112E0,-2.626605988E1,6.851437569E0
1.937156746E1,-3.579986811E0,-1.854991341E1,6.623086452E0
1.938823340E1,-2.769142628E0,-1.059476471E1,6.866268158E0
1.940489934E1,-7.632776260E0,-1.288586617E0,1.212511158E1
1.942156527E1,-9.263372421E0,8.626565933E0,2.643145180E1
1.943823121E1,2.533618450E0,1.306953430E1,2.973630333E1
1.945489715E1,1.428276443E1,1.765581131E1,1.772531128E1
1.947156308E1,5.836662769E0,1.734074783E1,9.401514053E0
1.948822902E1,-6.871604919E0,1.279340935E1,1.392106628E1
1.950489496E1,-8.054229736E0,8.688010216E0,1.944885445E1
1.952156090E1,-1.909448862E0,3.134716511E0,1.469753361E1
1.953822684E1,9.353855133E0,-6.374233723E0,2.603299141E0
1.955489277E1,1.161998653E1,-9.384391785E0,-1.025873661E1
1.957155871E1,2.275596619E1,-1.201856804E1,-1.392164230E1
1.958822465E1,3.204110718E1,-1.261430550E1,-7.676058769E0
1.960489058E1,2.648625565E1,-1.609573364E1,-3.295614481E0
1.962155652E1,1.097193718E1,-1.529547024E1,-4.585834503E0
1.963822246E1,2.007243633E0,-1.248003006E1,-8.446382523E0
1.965488840E1,-1.405931473E0,-7.737243176E0,-1.108471203E1
1.967155434E1,-3.887145042E0,-4.626407146E0,-7.257976532E0
1.968822027E1,-1.101124382E1,2.031098843E0,7.087842941E0
1.970488621E1,-1.170618248E1,1.123220634E1,2.190962601E1
1.972155215E1,7.592712402E0,1.409067154E1,2.121661758E1
1.973821808E1,2.070051003E1,1.408005333E1,9.294189453E0
1.975488402E1,6.634720802E0,1.101051331E1,-3.285551071E-2
1.977154996E1,-4.091714859E0,4.351758480E0,3.333461523E0
1.978821590E1,-5.092645645E0,-3.453860998E0,9.612023354E0
1.980488184E1,-3.030883312E0,-1.275441933E1,1.028524685E1
1.982154777E1,2.575616837E0,-1.878806305E1,-3.906701803E0
1.983821371E1,8.454164505E0,-1.655665970E1,-1.308109283E1
1.985487965E1,1.157946396E1,-1.159568787E1,-8.494400978E-2
1.987154558E1,1.383753395E1,-1.031628609E1,1.211527061E1
1.988821152E1,9.552284241E0,-7.796225548E0,1.389458847E1
1.990487746E1,2.703302860E0,-5.193653107E0,1.021705866E0
1.992154340E1,-2.424712181E0,-3.393267155E0,-1.044247627E1
1.993820934E1,-9.137668610E0,-1.556391001E0,-9.273760796E0
1.995487527E1,-1.334993935E1,1.532432079E0,2.746770382E0
1.997154121E1,-8.374730110E0,5.465974808E0,1.753541183E1
1.998820715E1,4.856809139E0,8.274670601E0,1.723065186E1
2.000487308E1,1.140408516E1,1.035630131E1,5.709223270E0
2.002153902E1,1.295864105E0,1.108302784E1,-1.913141727E0
2.003820496E1,-8.172361374E0,1.052045345E1,2.011134148E0
2.005487090E1,-8.127168655E0,8.797500610E0,8.251781464E0
2.007153684E1,-1.662481308E0,7.658609867E0,1.834458923E1
2.008820277E1,9.115300179E0,5.169076920E0,1.715645027E1
2.010486871E1,1.106657791E1,4.644170284E0,8.253519058E0
2.012153465E1,1.112434387E1,8.015003204E0,7.097072601E-1
2.013820058E1,1.702867126E1,1.170620346E1,-2.966643810E0
2.015486652E1,2.450165176E1,1.223585129E1,3.829851389E0
2.017153246E1,2.751453781E1,8.656514168E0,1.322740746E1
2.018819840E1,2.311485100E1,3.535568953E0,1.040774822E1
2.020486434E1,1.522571564E1,5.425755978E-1,4.563378811E0
2.022153027E1,1.057798386E1,-2.605282307E0,3.452977896E0
2.023819621E1,9.522361755E0,-6.298139572E0,5.883417130E0
2.025486215E1,7.689849854E0,-1.159859180E1,7.329771519E0
2.027152808E1,4.757724762E0,-1.372239113E1,1.106264496E1
2.028819402E1,2.930974960E0,-1.468765545E1,1.253546715E1
2.030485996E1,-1.644242287E0,-1.412606430E1,9.033254623E0
2.032152590E1,-6.456831932E0,-1.289743614E1,5.921639442E0
2.033819184E1,-7.117856026E0,-1.193432999E1,6.873554230E0
2.035485777E1,-5.034027576E0,-1.068050003E1,5.871498585E0
2.037152371E1,-1.468249798E0,-8.946945190E0,2.297355175E0
2.038818965E1,2.015408993E0,-5.624961376E0,-1.205356121E0
2.040485558E1,1.026344299E-1,-1.428968191E0,-1.351074219E0
2.042152152E1,1.839820385E0,2.648518562E0,3.994054079E0
2.043818746E1,1.300095177E1,5.847153664E0,1.074726200E1
2.045485340E1,2.458081436E1,1.230642509E1,1.293648052E1
2.047151934E1,2.379935455E1,1.706122398E1,1.182109928E1
2.048818527E1,1.694721985E1,1.818212700E1,1.306362629E1
2.050485121E1,1.305763149E1,1.663696671E1,1.409430218E1
2.052151715E1,1.024752426E1,1.469449711E1,1.051697350E1
2.053818308E1,8.388345718E0,1.291137028E1,6.154463768E0
2.055484902E1,6.690402985E0,1.074859905E1,5.214221001E0
2.057151496E1,4.183457375E0,8.964163780E0,6.253128052E0
2.058818090E1,3.476069450E0,6.796923637E0,6.134522915E0
2.060484684E1,2.092085838E0,5.189540863E0,4.877504349E0
2.062151277E1,6.639442444E-1,3.073734999E0,2.729999065E0
2.063817871E1,-8.433179855E-1,6.890661120E-1,1.834679127E0
2.065484465E1,-2.558432579E0,-1.697418213E0,1.470980167E0
2.067151058E1,-3.966272116E0,-3.233004570E0,2.426417828E0
2.068817652E1,-3.098102570E0,-4.325535297E0,3.093118191E0
2.070484246E1,-8.313894272E-2,-5.503208160E0,3.200932980E0
2.072150840E1,3.029877186E0,-7.091929436E0,3.006478310E0
2.073817434E1,2.718931675E0,-9.136816025E0,1.832417011E0
2.075484027E1,4.246339798E-1,-1.087472630E1,1.959057331E0
2.077150621E1,-3.781998158E-1,-1.130591202E1,4.351804256E0
2.078817215E1,3.556521177E0,-9.834323883E0,6.556290627E0
2.080483808E1,9.990680695E0,-1.149069500E1,7.508969307E0
2.082150402E1,1.057630539E1,-1.161099720E1,8.779438972E0
2.083816996E1,7.360587597E0,-1.148160553E1,7.210533142E0
2.085483590E1,5.279140949E0,-1.021057224E1,6.907568932E0
2.087150184E1,4.208656788E0,-1.004935741E1,7.624855042E0
2.088816777E1,3.089344501E0,-9.534603119E0,8.977622032E0
2.090483371E1,1.943031073E0,-9.136056900E0,5.849114418E0
2.092149965E1,2.622297764E0,-8.198533058E0,2.206342697E0
2.093816558E1,4.039626598E0,-7.099753380E0,-1.938257217E0
2.095483152E1,6.644078732E0,-6.154204845E0,-2.447657108E0
2.097149746E1,6.091412544E0,-4.697687626E0,-2.562794209E0
2.098816340E1,4.696946621E0,-3.649194479E0,-2.714886665E0
2.100482934E1,4.340230465E0,-3.106855631E0,-1.754396915E0
2.102149527E1,3.944655418E0,-2.951796055E0,-1.878782749E0
2.103816121E1,6.809688568E0,-2.466209412E0,-3.859310627E0
2.105482715E1,7.841792583E0,-7.571065426E-1,-2.826163769E0
2.107149308E1,3.555420876E0,-9.869670868E-1,-4.086020470E0
2.108815902E1,1.925244927E-1,-3.223031044E0,-4.285979271E0
2.110482496E1,-1.199848652E0,-3.915900469E0,-2.018523693E0
2.112149090E1,-2.500261664E-1,-4.215312481E0,-8.387713432E-1
2.113815684E1,2.319969416E0,-4.283769608E0,-1.389987469E0
2.115482277E1,5.790835857E0,-2.565523386E0,-2.502109528E0
2.117148871E1,2.685341358E0,-6.475095749E-1,-1.825096130E0
2.118815465E1,-5.390079021E-1,1.188783646E0,1.443999290E0
2.120482058E1,-2.285526693E-1,1.621003628E0,2.423547745E0
2.122148652E1,-2.423613369E-1,-4.758954048E-1,3.225523472E0
2.123815246E1,2.255424023E0,-2.682758808E0,5.327896595E0
2.125481840E1,3.811273575E0,5.205583572E-2,-3.170062780E0
2.127148434E1,4.899886131E0,-2.027387142E0,-4.503562450E0
2.128815027E1,1.559388638E0,-9.675235748E-1,2.423436737E1
2.130481621E1,2.219892979E0,-7.228221893E-1,-4.571785927E-1
2.132148215E1,-6.988044977E-1,3.564662933E-1,-8.048610687E-1
2.133814808E1,-2.294252872E0,1.449284077E0,3.657221794E-1
2.135481402E1,-2.046808958E0,8.906412125E-2,2.532409668E0
2.137147996E1,-7.842460871E-1,-1.832598209E0,1.729810715E0
2.138814590E1,-4.938395023E-1,-1.752261162E0,-1.750345230E-1
2.140481184E1,-1.165813446E0,-1.648199558E0,-1.940000534E0
2.142147777E1,-2.648684263E0,-3.915266991E-1,-2.648410559E0
2.143814371E1,-2.495938063E0,-3.941416740E-1,-1.730985641E0
2.145480965E1,-1.271162510E0,-1.569443703E0,-3.056054115E-1
2.147147558E1,-1.974558830E-2,-1.932780743E0,-2.664361000E-1
2.148814152E1,6.222611666E-1,-1.947777271E0,-4.533953667E-1
2.150480746E1,6.512221098E-1,-1.739778042E0,-4.305243492E-1
2.152147340E1,-2.499127388E-2,-8.170585632E-1,-7.218294144E-1
2.153813934E1,-3.499248028E-1,-3.524103165E-1,-1.025906086E0
2.155480527E1,-1.063268185E0,6.030578613E-1,-1.296920061E0
2.157147121E1,-7.970926762E-1,7.280111313E-1,-7.497606277E-1
2.158813715E1,-2.710165977E-1,3.478474617E-1,5.014872551E-1
2.160480308E1,1.600880623E-1,9.635448456E-2,2.748398304E0
2.162146902E1,-5.726144314E-1,5.634503365E-1,3.430565357E0
2.163813496E1,-1.124040604E0,6.321115494E-1,1.944090366E0
2.165480090E1,-1.469963074E0,1.174698830E0,1.144883156E0
2.167146684E1,-1.744702816E0,1.710794449E0,1.585772991E0
2.168813277E1,-1.659734964E0,1.757347584E0,1.247531414E0
2.170479871E1,-1.373806477E0,2.141843319E0,6.020941734E-1
2.172146465E1,-1.935223103E0,1.481774807E0,9.741711617E-1
2.173813058E1,-4.088575840E0,1.635683537E0,3.899818420E0
2.175479652E1,-3.831206560E0,7.275371552E-1,5.028648853E0
