"Time (s)","Acceleration x (m/s^2)","Acceleration y (m/s^2)","Acceleration z (m/s^2)"
7.883336000E-3,-2.778964281E0,4.324428558E0,9.362815857E0
2.454927300E-2,-2.202294111E0,4.147060871E0,9.882357597E0
4.121521100E-2,-2.042573214E0,4.236492634E0,9.734301567E0
5.788114800E-2,-1.976770639E0,4.102494240E0,9.033802986E0
7.454708600E-2,-2.015953064E0,4.267001152E0,8.293822289E0
9.121302300E-2,-1.960619092E0,4.410570145E0,8.075776100E0
1.078789610E-1,-1.811964989E0,4.247559071E0,7.975277901E0
1.245448980E-1,-1.985444546E0,4.201198578E0,8.051848412E0
1.412108360E-1,-2.211865425E0,4.179363728E0,8.507381439E0
1.578767730E-1,-2.319841623E0,4.158127785E0,8.715557098E0
1.745427110E-1,-2.273480654E0,4.215256214E0,8.746963501E0
1.912086480E-1,-2.122134686E0,4.159024715E0,8.624929428E0
2.078745860E-1,-2.085345030E0,4.129413605E0,8.480761528E0
2.245405230E-1,-2.233999014E0,4.261617184E0,8.606385231E0
2.412064610E-1,-2.309372902E0,4.258625984E0,8.843274117E0
2.578723980E-1,-2.177468538E0,4.106382847E0,9.046066284E0
2.745383360E-1,-2.134098768E0,4.115355968E0,8.927920341E0
2.912042730E-1,-2.221436739E0,4.162015915E0,8.790931702E0
3.078702110E-1,-2.253739834E0,4.177868366E0,8.719146729E0
3.245361480E-1,-2.281257391E0,4.101896286E0,8.788538933E0
3.412020860E-1,-2.329113722E0,4.051646709E0,9.318249702E0
3.578680230E-1,-2.296212435E0,4.048357010E0,9.732208252E0
3.745339610E-1,-2.174178362E0,3.902693748E0,9.924231529E0
3.911998980E-1,-1.801197290E0,3.336791277E0,9.817750931E0
4.078658360E-1,-1.276570916E0,3.084647417E0,9.417850494E0
4.245317730E-1,-1.525424480E0,3.258426189E0,9.499206543E0
4.411977110E-1,-1.595115423E0,3.440280676E0,9.376873970E0
4.578636480E-1,-9.583254457E-1,2.928216696E0,9.146265030E0
4.745295860E-1,-3.418745399E-1,2.672782898E0,8.815756798E0
4.911955230E-1,-2.991028428E-1,2.442772865E0,9.542277336E0
5.078614610E-1,-5.243272781E-1,2.347658157E0,9.982855797E0
5.245273980E-1,-6.370890141E-1,2.553440809E0,1.014437199E1
5.411933360E-1,-1.812563092E-1,2.665006161E0,9.438189507E0
5.578592730E-1,-2.506481707E-1,2.595913410E0,9.060422897E0
5.745252110E-1,-7.791628838E-1,2.349751949E0,9.058628082E0
5.911911480E-1,-4.558327198E-1,1.415952802E0,8.533104897E0
6.078570860E-1,3.451646566E-1,7.624131441E-1,9.578169823E0
6.245230230E-1,-1.444666684E-1,1.029212832E0,9.749555588E0
6.411889610E-1,-7.695915699E-1,2.197209358E0,1.018026352E1
6.578548980E-1,-9.385846853E-1,2.251945257E0,1.019462109E1
6.745208360E-1,-1.051346421E0,1.278365493E0,1.028704357E1
6.911867730E-1,-1.103091240E0,9.622138143E-1,9.764810562E0
7.078527110E-1,-1.398903966E0,1.133001566E0,9.502796173E0
7.245186480E-1,-1.293320656E0,1.269691467E0,9.947562218E0
7.411845860E-1,-1.365105271E0,1.715055585E0,1.052423191E1
7.578505230E-1,-1.284048438E0,2.141277075E0,1.052692413E1
7.745164610E-1,-1.615155339E0,2.808276415E0,1.026042366E1
7.911823980E-1,-1.175474167E0,1.773679733E0,9.709177017E0
8.078483360E-1,-4.785645306E-1,3.951148391E-1,9.699904442E0
8.245142730E-1,-2.871387303E-1,3.081058264E0,8.431708336E0
8.411802110E-1,-2.024926096E-1,3.632902861E0,9.478269577E0
8.578461480E-1,-4.247260094E-1,3.293122053E0,9.706784248E0
8.745120860E-1,-1.202393398E-1,2.107179403E0,1.039232826E1
8.911780230E-1,2.219343036E-1,2.117647976E-1,9.704391479E0
9.078439610E-1,-3.747758567E-1,-1.021735311E0,8.391031265E0
9.245098980E-1,-4.519443810E-1,1.172183990E0,9.430413246E0
9.411758360E-1,1.208375469E-1,1.941476464E0,9.955936432E0
9.578417730E-1,-1.145563871E-1,2.125723839E0,1.026251698E1
9.745077110E-1,-4.420739710E-1,2.201097727E0,1.085713387E1
9.911736480E-1,-1.980060786E-1,1.852642894E0,1.019671440E1
1.007839586E0,3.828516230E-2,1.298405409E0,8.551948547E0
1.024505523E0,1.743769497E-1,1.944766641E0,6.748058796E0
1.041171461E0,-1.138086319E0,1.942672849E0,7.505088329E0
1.057837398E0,-9.194421172E-1,2.519941330E0,9.527621269E0
1.074503336E0,-5.467599630E-1,2.255534410E0,1.061336517E1
1.091169273E0,2.790629268E-1,1.709372640E0,1.043898773E1
1.107835211E0,-1.175474152E-1,1.702194214E0,9.651150703E0
1.124501148E0,-1.612164259E0,2.784348249E0,1.042044353E1
1.141167086E0,5.114658549E-2,2.501995087E0,9.398110390E0
1.157833023E0,6.343970895E-1,2.158026934E0,9.859625816E0
1.174498961E0,1.200000525E0,2.219342947E0,9.286544800E0
1.191164898E0,3.077768087E-1,2.723032236E0,9.384949684E0
1.207830836E0,-7.618148923E-1,2.563909531E0,9.453145027E0
1.224496773E0,-1.859821439E0,4.081557274E0,9.874281883E0
1.241162711E0,-1.868794441E0,4.002295017E0,9.547960281E0
1.257828648E0,-1.411765337E0,4.077369690E0,9.004490852E0
1.274494586E0,-6.939185858E-1,3.555734396E0,8.187341690E0
1.291160523E0,-4.992026389E-1,3.395714521E0,7.969893932E0
1.307826461E0,-1.411765367E-1,3.357728481E0,7.971389771E0
1.324492398E0,5.931209326E-1,3.507279873E0,7.085746288E0
1.341158336E0,3.194418252E-1,4.421637058E0,6.514758587E0
1.357824273E0,5.919244885E-1,5.143970490E0,8.376973152E0
1.374490211E0,1.702194214E0,3.572185040E0,6.821937561E0
1.391156148E0,1.745863199E0,3.491427422E0,7.843373299E0
1.407822086E0,2.157129526E0,3.038286448E0,8.841180801E0
1.424488023E0,-7.806584239E-2,5.022833824E0,8.869296074E0
1.441153961E0,1.024427176E0,3.792922974E0,9.776176453E0
1.457819898E0,1.608574986E0,3.287738323E0,9.054141998E0
1.474485836E0,2.695813894E0,3.273680449E0,8.009973526E0
1.491151773E0,1.613061547E0,3.223431110E0,7.422236919E0
1.507817711E0,4.845465720E-1,2.902194738E0,8.233104706E0
1.524483648E0,1.901097536E0,2.525923491E0,1.075872898E1
1.541149586E0,3.285943747E0,2.710469961E0,1.169581795E1
1.557815523E0,3.705585003E0,2.743371248E0,1.005374336E1
1.574481461E0,2.674278498E0,3.078964472E0,9.468100548E0
1.591147398E0,2.236690998E0,3.269792080E0,9.330811501E0
1.607813336E0,1.981257200E0,3.343969584E0,9.157630920E0
1.624479273E0,2.149353027E0,3.639483213E0,9.255139351E0
1.641145211E0,2.994019270E0,3.554239035E0,9.293125153E0
1.657811148E0,3.588934898E0,3.483052492E0,8.945567131E0
1.674477086E0,3.464807272E0,3.551846027E0,9.089137077E0
1.691143023E0,3.120539904E0,3.545265913E0,9.588040352E0
1.707808961E0,2.800499916E0,3.528217077E0,9.643074989E0
1.724474898E0,2.742473841E0,3.489333630E0,9.515657425E0
1.741140836E0,2.924029350E0,3.337987661E0,9.755837440E0
1.757806773E0,3.359223843E0,3.327219963E0,1.005553818E1
1.774472711E0,3.830011845E0,3.542274714E0,9.825826645E0
1.791138648E0,3.704388618E0,3.594916821E0,9.081958771E0
1.807804586E0,3.273680449E0,3.496811152E0,8.496015549E0
1.824470523E0,2.922234535E0,3.343371391E0,8.767900467E0
1.841136461E0,2.931805849E0,3.160619497E0,9.178269386E0
1.857802398E0,3.121437073E0,3.112463951E0,9.233603477E0
1.874468336E0,3.259921789E0,3.144468069E0,9.179466248E0
1.891134273E0,3.502793312E0,3.152842999E0,8.958129883E0
1.907800211E0,3.734298944E0,3.037090063E0,8.651848793E0
1.924466148E0,3.738187075E0,2.979064226E0,8.765208244E0
1.941132086E0,3.728615999E0,2.819941521E0,9.086744308E0
1.957798023E0,3.751347780E0,2.773879766E0,9.383752823E0
1.974463961E0,3.805784464E0,2.708076954E0,9.653244972E0
1.991129898E0,3.927519321E0,2.650948286E0,9.682557106E0
2.007795836E0,3.962813377E0,2.552543640E0,9.340981483E0
2.024461773E0,3.741477251E0,2.599801779E0,9.168100357E0
2.041127711E0,3.754637718E0,2.606082916E0,8.951549530E0
2.057793648E0,3.995714664E0,2.534896374E0,8.765208244E0
2.074459586E0,3.992424488E0,2.614457846E0,8.670093536E0
2.091125523E0,3.899403572E0,2.555235386E0,8.988637924E0
2.107791461E0,3.857230186E0,2.505285263E0,9.245268822E0
2.124457398E0,3.803092480E0,2.543271303E0,9.165108681E0
2.141123336E0,3.879662752E0,2.584547520E0,8.997312546E0
2.157789273E0,4.077369690E0,2.649452925E0,8.732605934E0
2.174455211E0,4.224229336E0,2.702394009E0,8.442177773E0
2.191121148E0,4.223032951E0,2.752344131E0,8.370392799E0
2.207787086E0,4.200600147E0,2.775076151E0,8.514859200E0
2.224453023E0,4.208376884E0,2.821137905E0,8.363512993E0
2.241118961E0,4.258028030E0,2.820838690E0,8.199007034E0
2.257784898E0,4.183551311E0,2.775375128E0,8.507381439E0
2.274450836E0,4.109074593E0,2.839981318E0,8.923134804E0
2.291116773E0,4.112663746E0,2.912065268E0,9.059226990E0
2.307782711E0,4.217947960E0,2.969492912E0,8.987740517E0
2.324448648E0,4.161716938E0,3.112463951E0,8.728418350E0
2.341114586E0,4.011866093E0,3.105883837E0,8.597412109E0
2.357780523E0,3.821337700E0,3.143869877E0,8.670392990E0
2.374446461E0,3.839283943E0,3.185445070E0,8.796315193E0
2.391112398E0,3.997808456E0,3.265604734E0,8.679664612E0
2.407778336E0,3.936492443E0,3.320639610E0,8.481359482E0
2.424444273E0,3.696312666E0,3.381357431E0,8.382058144E0
2.441110211E0,3.652942896E0,3.387339592E0,8.228019714E0
2.457776148E0,3.663710594E0,3.301496983E0,8.311469078E0
2.474442086E0,3.666701555E0,3.335893869E0,8.356634140E0
2.491108023E0,3.814159393E0,3.403192043E0,8.321938515E0
2.507773961E0,4.040879250E0,3.401098251E0,8.370392799E0
2.524439898E0,4.047758579E0,3.399602890E0,8.443971634E0
2.541105836E0,3.860520124E0,3.381656647E0,8.383852005E0
2.557771773E0,3.713361740E0,3.385245800E0,8.486743927E0
2.574437711E0,3.740580082E0,3.336193085E0,8.583653450E0
2.591103648E0,3.813561201E0,3.329313517E0,8.584251404E0
2.607769586E0,3.940979004E0,3.368795156E0,8.333004951E0
2.624435523E0,4.001397610E0,3.380759239E0,8.277371407E0
2.641101461E0,3.991527319E0,3.387638569E0,8.301898003E0
2.657767398E0,4.005884171E0,3.417848110E0,8.368597984E0
2.674433336E0,4.163810730E0,3.429512978E0,8.490034103E0
2.691099273E0,4.218546391E0,3.425624609E0,8.498707771E0
2.707765211E0,4.113860130E0,3.471387386E0,8.481658936E0
2.724431148E0,3.956532240E0,3.506681681E0,8.410771370E0
2.741097086E0,3.911367655E0,3.543770313E0,8.407182693E0
2.757763023E0,3.859024763E0,3.588037491E0,8.379066467E0
2.774428961E0,3.844368696E0,3.655335665E0,8.265108109E0
2.791094898E0,3.872783422E0,3.708575964E0,8.221439362E0
2.807760836E0,3.896113396E0,3.760021687E0,8.206484795E0
2.824426773E0,3.828217030E0,3.789632797E0,8.171489716E0
2.841092711E0,3.752843142E0,3.803092480E0,8.136195183E0
2.857758648E0,3.779164314E0,3.830610037E0,8.249854088E0
2.874424586E0,3.854238987E0,3.842574120E0,8.344968796E0
2.891090523E0,3.897010803E0,3.861716747E0,8.356634140E0
2.907756461E0,3.880560160E0,3.883252144E0,8.217251778E0
2.924422398E0,3.789333820E0,3.847359657E0,8.225626945E0
2.941088336E0,3.668197155E0,3.778566122E0,8.365607262E0
2.957754273E0,3.605983734E0,3.746263027E0,8.521739006E0
2.974420211E0,3.597309828E0,3.802195072E0,8.685049057E0
2.991086148E0,3.615854025E0,3.806382656E0,8.584849358E0
3.007752086E0,3.647259951E0,3.823730469E0,8.377870560E0
3.024418023E0,3.655335665E0,3.818944931E0,8.256134987E0
3.041083961E0,3.683750391E0,3.803092480E0,8.268099785E0
3.057749898E0,3.683451414E0,3.785146236E0,8.248059273E0
3.074415836E0,3.712763548E0,3.799802303E0,8.244171143E0
3.091081773E0,3.716053486E0,3.800101519E0,8.281858444E0
3.107747711E0,3.739682674E0,3.788137436E0,8.312366486E0
3.124413648E0,3.767200232E0,3.751945972E0,8.390731812E0
3.141079586E0,3.727419376E0,3.779762506E0,8.347960472E0
3.157745523E0,3.749852180E0,3.794119358E0,8.191828728E0
3.174411461E0,3.757927895E0,3.753441334E0,8.168498039E0
3.191077398E0,3.688536167E0,3.772583961E0,8.307580948E0
3.207743336E0,3.710968733E0,3.731307745E0,8.334200859E0
3.224409273E0,3.665505171E0,3.701397419E0,8.331808090E0
3.241075211E0,3.682255030E0,3.712763548E0,8.269295692E0
3.257741148E0,3.814757586E0,3.682554007E0,8.186743736E0
3.274407086E0,3.759124279E0,3.710968733E0,8.292924881E0
3.291073023E0,3.718147278E0,3.654737473E0,8.409276009E0
3.307738961E0,3.794119358E0,3.661616802E0,8.468797684E0
3.324404898E0,3.876073599E0,3.628416538E0,8.426025391E0
3.341070836E0,3.875475407E0,3.674478292E0,8.332705498E0
3.357736773E0,3.908974886E0,3.632902861E0,8.319246292E0
3.374402711E0,3.864707708E0,3.614956856E0,8.455636978E0
3.391068648E0,3.821935892E0,3.558725595E0,8.616853714E0
3.407734586E0,3.796512127E0,3.566502094E0,8.504091263E0
3.424400523E0,3.819842339E0,3.592225075E0,8.367402077E0
3.441066461E0,3.830909014E0,3.556930780E0,8.316853523E0
3.457732398E0,3.757927895E0,3.600898981E0,8.332705498E0
3.474398336E0,3.843770504E0,3.590430260E0,8.360522270E0
3.491064273E0,3.914358854E0,3.603291750E0,8.318946838E0
3.507730211E0,3.917948008E0,3.641875982E0,8.357830048E0
3.524396148E0,4.025625229E0,3.618845224E0,8.491828918E0
3.541062086E0,4.041477680E0,3.590430260E0,8.660522461E0
3.557728023E0,4.011268139E0,3.565006733E0,8.647661209E0
3.574393961E0,3.986143351E0,3.562015533E0,8.535497665E0
3.591059898E0,4.058227062E0,3.576671600E0,8.407182693E0
3.607725836E0,4.090530396E0,3.569194078E0,8.333304405E0
3.624391773E0,4.047459602E0,3.572185040E0,8.387441635E0
3.641057711E0,3.969393730E0,3.541377544E0,8.397910118E0
3.657723648E0,3.921238184E0,3.512364626E0,8.367700577E0
3.674389586E0,3.869493246E0,3.476771355E0,8.278268814E0
3.691055523E0,3.876971006E0,3.470191002E0,8.210073471E0
3.707721461E0,3.881158352E0,3.476173162E0,8.160123825E0
3.724387398E0,3.878167391E0,3.491128206E0,8.222037315E0
3.741053336E0,3.868296862E0,3.478864908E0,8.386544228E0
3.757719273E0,3.874577999E0,3.454338551E0,8.445467949E0
3.774385211E0,3.886841297E0,3.488735437E0,8.475078583E0
3.791051148E0,3.973282099E0,3.513561010E0,8.453244209E0
3.807717086E0,3.957429647E0,3.498007536E0,8.420043945E0
3.824383023E0,3.960121393E0,3.520440340E0,8.383254051E0
3.841048961E0,4.012464523E0,3.483351469E0,8.417651176E0
3.857714898E0,3.976572037E0,3.491427422E0,8.484051704E0
3.874380836E0,3.953242064E0,3.500998735E0,8.453842163E0
3.891046773E0,3.954438448E0,3.508775234E0,8.387142181E0
3.907712711E0,3.918546200E0,3.492324591E0,8.221140862E0
3.924378648E0,3.844966888E0,3.528516054E0,8.201698303E0
3.941044586E0,3.848855257E0,3.474378586E0,8.216653824E0
3.957710523E0,3.902992725E0,3.520440340E0,8.207980156E0
3.974376461E0,3.980759621E0,3.539582968E0,8.165207863E0
3.991042398E0,3.964308977E0,3.551547050E0,8.180462837E0
4.007708336E0,3.862314939E0,3.537788391E0,8.279166222E0
4.024374273E0,3.818645954E0,3.541676521E0,8.322834969E0
4.041040211E0,3.839582920E0,3.540779352E0,8.286643982E0
4.057706148E0,3.920639992E0,3.560520172E0,8.125128746E0
4.074372086E0,3.999304056E0,3.584448338E0,8.036594391E0
4.091038023E0,3.956831455E0,3.605684519E0,8.191529274E0
4.107703961E0,3.850649834E0,3.591626883E0,8.301599503E0
4.124369898E0,3.717549086E0,3.586242914E0,8.338388443E0
4.141035836E0,3.709772348E0,3.617648840E0,8.245666504E0
4.157701773E0,3.853940010E0,3.657728434E0,8.123931885E0
4.174367711E0,4.052843571E0,3.693022728E0,8.256434441E0
4.191033648E0,4.163511276E0,3.748954773E0,8.587840080E0
4.207699586E0,4.214358807E0,3.757329702E0,8.758029938E0
4.224365523E0,4.164707661E0,3.820739508E0,8.754440308E0
4.241031461E0,4.077070713E0,3.796811342E0,8.583951950E0
4.257697398E0,3.975973845E0,3.793521166E0,8.512466431E0
4.274363336E0,3.944568157E0,3.809672832E0,8.521739006E0
4.291029273E0,3.961018801E0,3.835993767E0,8.411369324E0
4.307695211E0,4.007080555E0,3.844667673E0,8.338687897E0
4.324361148E0,4.165007114E0,3.750151396E0,8.297112465E0
4.341027086E0,4.253242016E0,3.760919094E0,8.340781212E0
4.357693023E0,4.293322086E0,3.707379580E0,8.168797493E0
4.374358961E0,4.253840446E0,3.653241873E0,8.006085396E0
4.391024898E0,4.251148701E0,3.643670797E0,7.800900936E0
4.407690836E0,4.462913513E0,3.533301830E0,7.441977501E0
4.424356773E0,4.806582451E0,3.491427422E0,7.278966427E0
4.441022711E0,5.175376415E0,3.374478102E0,7.320541859E0
4.457688648E0,5.460720539E0,3.129213810E0,7.412964344E0
4.474354586E0,5.477469921E0,2.924029350E0,7.616653442E0
4.491020523E0,5.545067310E0,2.769093990E0,7.934001446E0
4.507686461E0,5.833402634E0,2.405983210E0,8.012067795E0
4.524352398E0,6.203093529E0,2.141277075E0,7.558926582E0
4.541018336E0,6.582654953E0,2.192722797E0,6.368497372E0
4.557684273E0,7.224230766E0,1.989931107E0,4.821836948E0
4.574350211E0,7.278069019E0,1.663011789E0,3.739682674E0
4.591016148E0,6.582355976E0,1.343270779E0,3.031407118E0
4.607682086E0,6.086742401E0,7.878368497E-1,2.449652195E0
4.624348023E0,6.117550373E0,-1.205384433E-1,1.561915040E0
4.641013961E0,6.168696880E0,-1.052542806E0,1.992024779E-1
4.657679898E0,5.692524910E0,-1.973480463E0,-1.361217022E0
4.674345836E0,5.379962444E0,-2.596511602E0,-2.646461725E0
4.691011773E0,5.267499924E0,-2.817548752E0,-3.858426571E0
4.707677711E0,5.648257732E0,-3.058027267E0,-5.542973518E0
4.724343648E0,6.265605927E0,-3.607479334E0,-6.293422699E0
4.741009586E0,7.104290485E0,-3.812663794E0,-5.414359570E0
4.757675523E0,8.187641144E0,-3.915555239E0,-3.310470104E0
4.774341461E0,9.335896492E0,-3.297309637E0,-3.843471408E-1
4.791007398E0,1.071147060E1,-2.169093609E0,2.499004126E0
4.807673336E0,1.279591846E1,-1.001396298E0,4.508377075E0
4.824339273E0,1.529312801E1,9.101698995E-1,5.880361557E0
4.841005211E0,1.829312897E1,4.114458561E0,7.515257835E0
4.857671148E0,2.116421700E1,7.515556812E0,9.092127800E0
4.874337086E0,2.279552460E1,1.092502975E1,8.974879265E0
4.891003023E0,2.301865387E1,1.387777328E1,6.635297298E0
4.907668961E0,2.064288139E1,1.615753555E1,6.625127792E0
4.924334898E0,1.602144241E1,1.820818329E1,1.298166084E1
4.941000836E0,1.052931690E1,2.044128609E1,2.218176460E1
4.957666773E0,7.459026337E0,2.351606369E1,2.464427948E1
4.974332711E0,8.621041298E0,2.797777939E1,2.201396751E1
4.990998648E0,1.416132259E1,3.159004402E1,1.847558212E1
5.007664586E0,1.996780586E1,3.408396530E1,1.482802296E1
5.024330523E0,2.384417915E1,3.428585815E1,1.468415451E1
5.040996461E0,2.676222610E1,3.351088333E1,1.903221130E1
5.057662398E0,3.557977676E1,3.353002548E1,2.602015114E1
5.074328336E0,5.010032272E1,3.154667473E1,3.073789978E1
5.090994273E0,6.346274185E1,2.413849640E1,3.203959656E1
5.107660211E0,6.329344940E1,1.206700420E1,2.868067169E1
5.124326148E0,5.175645447E1,-6.478567123E-1,2.094796562E1
5.140992086E0,4.040490341E1,-1.002054310E1,1.410868073E1
5.157658023E0,3.274368286E1,-1.574567032E1,9.611370087E0
5.174323961E0,2.531068039E1,-1.961187363E1,5.202295303E0
5.190989898E0,1.752443504E1,-2.304168510E1,6.441179276E0
5.207655836E0,9.747162819E0,-2.424826622E1,1.104138088E1
5.224321773E0,5.278566837E0,-2.702753067E1,1.202782249E1
5.240987711E0,7.788637877E-1,-2.706611443E1,1.060917759E1
5.257653648E0,-9.433703423E-1,-2.647538567E1,1.139821053E1
5.274319586E0,-1.079462171E0,-2.586192703E1,1.099831009E1
5.290985523E0,-1.734796464E-1,-2.452463722E1,9.052945137E0
5.307651461E0,3.046362400E0,-2.470499611E1,6.932007313E0
5.324317398E0,5.471786976E0,-2.445046043E1,6.684948444E0
5.340983336E0,8.329116821E0,-2.305245399E1,8.230412483E0
5.357649273E0,1.388943768E1,-2.153660011E1,9.883553505E0
5.374315211E0,2.012812424E1,-2.057977104E1,9.744770050E0
5.390981148E0,2.413490677E1,-1.925982857E1,9.930513382E0
5.407647086E0,3.038286591E1,-1.756271935E1,9.788438797E0
5.424313023E0,4.145415497E1,-1.298465252E1,9.217152596E0
5.440978961E0,5.336203766E1,-3.261716366E0,1.014108181E1
5.457644898E0,5.920920181E1,8.536993027E0,1.386640739E1
5.474310836E0,5.661537933E1,1.518515205E1,1.768535233E1
5.490976773E0,4.520580292E1,1.982573128E1,2.121745682E1
5.507642711E0,3.944956970E1,2.263669968E1,1.980628967E1
5.524308648E0,3.133191872E1,2.615175629E1,1.367587852E1
5.540974586E0,1.842054749E1,2.814019203E1,9.856335640E0
5.557640523E0,4.370789528E0,2.925016403E1,1.805025673E1
5.574306461E0,-6.059823513E0,3.081387329E1,2.576561546E1
5.590972398E0,-8.193922043E0,3.207339478E1,2.047867393E1
5.607638336E0,-5.627619743E0,3.147279549E1,5.831906796E0
5.624304273E0,-5.309972763E0,2.646880531E1,-6.577271461E0
5.640970211E0,-8.693424225E0,1.964866257E1,-7.380661488E0
5.657636148E0,-1.017547798E1,1.724626923E1,4.438686073E-1
5.674302086E0,-5.375775337E0,2.012453651E1,7.779365540E0
5.690968023E0,3.096013308E0,2.728864670E1,1.039920712E1
5.707633961E0,1.651825333E1,3.719224167E1,1.069771194E1
5.724299898E0,3.389971542E1,5.074698257E1,1.520608902E1
5.740965836E0,5.609045410E1,5.456383514E1,3.398017502E1
5.757631773E0,7.252555847E1,3.899134445E1,4.453371811E1
5.774297711E0,7.335855865E1,1.741675758E1,3.284178925E1
5.790963648E0,6.645077515E1,-1.633998752E0,1.525005722E1
5.807629586E0,5.506363297E1,-1.084696388E1,1.190548897E1
5.824295523E0,4.443172455E1,-1.898974037E1,1.759741592E1
5.840961461E0,2.897947502E1,-2.709183693E1,2.063929176E1
5.857627398E0,1.333280754E1,-2.961177826E1,2.368535423E1
5.874293336E0,3.704986811E0,-3.369602585E1,1.851715660E1
5.890959273E0,-4.149154663E0,-3.367718506E1,6.981359005E0
5.907625211E0,-4.704289436E0,-3.137798119E1,-7.899305820E-1
5.924291148E0,-3.230011463E0,-2.823261452E1,2.335993052E-1
5.940957086E0,-1.909771562E0,-2.626481819E1,4.830211639E0
5.957623023E0,1.810768485E0,-2.499153709E1,6.028118610E0
5.974288961E0,6.930212498E0,-2.344278336E1,5.797510147E0
5.990954898E0,1.159442234E1,-2.093959045E1,7.556832790E0
6.007620836E0,1.592632866E1,-1.958016777E1,9.532406807E0
6.024286773E0,1.984248161E1,-1.894008827E1,9.893424034E0
6.040952711E0,2.564268303E1,-1.853659821E1,1.003220844E1
6.057618648E0,3.207638550E1,-1.710239983E1,9.353842735E0
6.074284586E0,4.060829544E1,-9.422935486E0,1.078953648E1
6.090950523E0,5.425485992E1,4.503591537E0,1.593380642E1
6.107616461E0,6.171927261E1,1.740329742E1,1.777807426E1
6.124282398E0,4.894488907E1,2.328156662E1,1.315364552E1
6.140948336E0,3.358685684E1,2.404726982E1,1.305374527E1
6.157614273E0,2.323131752E1,2.547428894E1,1.508824253E1
6.174280211E0,1.616890144E1,2.517219543E1,1.399950790E1
6.190946148E0,7.484450340E0,2.497389030E1,1.281446266E1
6.207612086E0,5.374878049E-1,2.662404060E1,1.002024364E1
6.224278023E0,-1.859821439E0,2.664108849E1,4.982454777E0
6.240943961E0,-3.327818155E0,2.453002167E1,2.227418661E0
6.257609898E0,-6.513562202E0,1.986700821E1,1.847259045E0
6.274275836E0,-1.155434227E1,1.571037579E1,1.256231904E0
6.290941773E0,-1.504427433E1,1.593709564E1,-9.684949517E-1
6.307607711E0,-1.232363510E1,1.903998947E1,-2.725125790E0
6.324273648E0,-5.596812248E0,2.672962379E1,-1.409372568E0
6.340939586E0,7.023532867E0,4.084488297E1,4.018147469E0
6.357605523E0,2.761586571E1,5.601837158E1,1.091545868E1
6.374271461E0,4.946532822E1,6.498726654E1,2.130359840E1
6.390937398E0,7.387331390E1,5.778367615E1,3.591327667E1
6.407603336E0,7.839604950E1,3.610948944E1,3.148715401E1
6.424269273E0,7.455855560E1,1.502423382E1,1.178913784E1
6.440935211E0,6.256692886E1,3.861417532E0,2.346162558E0
6.457601148E0,5.295884705E1,-9.997511864E0,7.433004379E0
6.474267086E0,2.828525734E1,-2.291396904E1,2.206361961E1
6.490933023E0,9.285946846E0,-2.811117935E1,3.254388428E1
6.507598961E0,7.387241840E0,-3.275235748E1,2.699851608E1
6.524264898E0,7.077969551E0,-3.371756363E1,1.584676743E1
6.540930836E0,6.774380207E0,-3.274966812E1,6.936493874E0
6.557596773E0,2.686242580E0,-3.244577789E1,4.655236244E0
6.574262711E0,-2.260020971E0,-3.062992477E1,1.134168053E1
6.590928648E0,1.965105653E0,-2.759702110E1,1.932353783E1
6.607594586E0,1.220548916E1,-2.438854599E1,1.853330803E1
6.624260523E0,1.940519333E1,-2.062014961E1,1.167697430E1
6.640926461E0,2.397129631E1,-1.861436462E1,4.621737003E0
6.657592398E0,2.825385094E1,-1.719183159E1,-8.988040090E-1
6.674258336E0,3.643102264E1,-1.259731388E1,-6.543173313E0
6.690924273E0,5.075924683E1,2.438585281E0,-8.257331848E0
6.707590211E0,6.952286530E1,2.091506386E1,1.539482236E0
6.724256148E0,6.718507385E1,3.483112335E1,1.740509224E1
6.740922086E0,4.972255707E1,3.754009628E1,1.610339737E1
6.757588023E0,3.268326569E1,3.304936600E1,6.166004658E0
6.774253961E0,1.992892265E1,2.875155830E1,4.976771832E0
6.790919898E0,8.368897438E0,2.395125771E1,9.009276390E0
6.807585836E0,-2.401197433E0,2.232054901E1,1.290269756E1
6.824251773E0,-9.069396019E0,2.114627075E1,1.082632637E1
6.840917711E0,-1.255484104E1,1.960977936E1,3.810869217E0
6.857583648E0,-1.412602806E1,1.675215149E1,-3.972982883E0
6.874249586E0,-1.812772560E1,1.349222946E1,-5.255236626E0
6.890915523E0,-2.271536446E1,1.174367428E1,-8.883354068E-2
6.907581461E0,-2.193500519E1,1.441914940E1,4.976472855E0
6.924247398E0,-1.436261845E1,2.513301277E1,2.781357288E0
6.940913336E0,2.088335991E0,4.232275009E1,-4.947459698E0
6.957579273E0,2.391745949E1,6.072654724E1,-7.581957817E0
6.974245211E0,3.965565109E1,7.523213959E1,1.064028454E1
6.990911148E0,6.534349823E1,7.390860748E1,3.360868835E1
7.007577086E0,7.830272675E1,5.050919724E1,2.644756889E1
7.024243023E0,7.495726013E1,2.416092873E1,5.845665932E0
7.040908961E0,6.240032959E1,3.858426571E0,-2.135893345E0
7.057574898E0,4.833322144E1,-1.361815166E1,9.126225471E0
7.074240836E0,2.818774986E1,-2.898934555E1,2.217937279E1
7.090906773E0,1.366570950E1,-3.750988770E1,3.420479965E1
7.107572711E0,1.098096180E1,-4.927479935E1,3.078276634E1
7.124238648E0,4.800899506E0,-5.395396423E1,1.446999645E1
7.140904586E0,1.057029366E0,-5.181537628E1,5.315057278E0
7.157570523E0,-1.639083475E-1,-4.959005356E1,8.101200104E0
7.174236461E0,8.727222443E0,-4.608277130E1,1.492044544E1
7.190902398E0,2.787518692E1,-4.301427841E1,2.156411743E1
7.207568336E0,4.054518509E1,-3.740699768E1,2.217937279E1
7.224234273E0,4.813820648E1,-3.053062248E1,1.779033661E1
7.240900211E0,6.130950165E1,-1.999831390E1,9.126823425E0
7.257566148E0,7.674829102E1,8.587242126E0,-1.456630826E0
7.274232086E0,7.839843750E1,3.334218979E1,4.089034557E0
7.290898023E0,7.610820770E1,4.693970108E1,1.559133339E1
7.307563961E0,5.503312683E1,4.353980255E1,1.937827492E1
7.324229898E0,3.115843964E1,3.713182068E1,1.140748310E1
7.340895836E0,1.510259914E1,3.082972527E1,8.706883192E-1
7.357561773E0,5.213362217E0,2.683879662E1,-1.238285750E-1
7.374227711E0,-1.304686546E0,2.512254333E1,3.664906979E0
7.390893648E0,-4.167100430E0,2.372902489E1,4.254737854E0
7.407559586E0,-6.754340172E0,2.139931107E1,1.488634825E0
7.424225523E0,-8.177471161E0,1.800090599E1,-2.106282234E0
7.440891461E0,-1.166560841E1,1.554317760E1,-4.794319153E0
7.457557398E0,-1.500269890E1,1.492313766E1,-4.345067024E0
7.474223336E0,-1.329242897E1,1.506700611E1,-2.754737139E0
7.490889273E0,-9.164510727E0,1.651047707E1,-2.929712296E0
7.507555211E0,-5.994020939E0,2.044666862E1,-4.185046673E0
7.524221148E0,-1.222134113E0,2.410828590E1,-5.074279308E0
7.540887086E0,4.116552353E0,2.887598610E1,-4.374378681E0
7.557553023E0,1.217737389E1,3.943491364E1,-6.646065116E-1
7.574218961E0,3.369722366E1,5.517161179E1,1.017757225E1
7.590884898E0,6.695326996E1,6.247330856E1,1.821446419E1
7.607550836E0,7.836284637E1,5.065635300E1,2.857030153E0
7.624216773E0,7.652725220E1,2.852603531E1,-9.043074608E0
7.640882711E0,6.376573181E1,5.548058510E0,3.165405273E0
7.657548648E0,4.545884323E1,-1.497398472E1,1.937558174E1
7.674214586E0,2.625913429E1,-2.554966354E1,2.494876480E1
7.690880523E0,1.883629990E1,-3.200071335E1,2.119981003E1
7.707546461E0,1.726391602E1,-4.227818680E1,1.438325691E1
7.724212398E0,6.736692905E0,-4.713621140E1,7.069295406E0
7.740878336E0,-1.969592094E0,-4.768745804E1,2.921935558E0
7.757544273E0,-1.375872970E0,-4.674737930E1,3.933800459E0
7.774210211E0,8.745168686E0,-4.424089813E1,8.211568832E0
7.790876148E0,2.130210304E1,-4.048835373E1,1.075394344E1
7.807542086E0,2.775464821E1,-3.386232758E1,9.132506371E0
7.824208023E0,3.143092155E1,-2.749532700E1,5.846263885E0
7.840873961E0,3.892942810E1,-2.091835403E1,3.651447296E0
7.857539898E0,5.201846695E1,-4.893322468E0,6.376872063E-1
7.874205836E0,7.003612518E1,1.843161392E1,4.213760853E0
7.890871773E0,7.412455750E1,3.776352692E1,9.876375198E0
7.907537711E0,6.390690994E1,5.049155045E1,1.449302769E1
7.924203648E0,5.145106888E1,4.945276642E1,1.284257793E1
7.940869586E0,2.902703285E1,4.030350876E1,4.092324734E0
7.957535523E0,1.155135155E1,2.852274513E1,6.837490797E-1
7.974201461E0,3.019443035E0,2.094377899E1,4.135395527E0
7.990867398E0,-2.461915493E0,1.608784485E1,5.042574406E0
8.007533336E0,-7.988438606E0,1.230359459E1,-1.567298770E-1
8.024199273E0,-9.737591743E0,9.683155060E0,-6.422635078E0
8.040865211E0,-9.491430283E0,7.815557003E0,-1.018505001E1
8.057531148E0,-1.048265648E1,7.224828720E0,-1.276152134E1
8.074197086E0,-1.050957584E1,7.217650414E0,-1.145683479E1
8.090863023E0,-8.377271652E0,8.078168869E0,-7.924131393E0
8.107528961E0,-6.606583118E0,1.032682419E1,-6.803691864E0
8.124194898E0,-6.776473522E0,1.389900970E1,-9.935597420E0
8.140860836E0,-4.694119930E0,1.881267166E1,-1.522373581E1
8.157526773E0,9.945169091E-1,2.723181725E1,-1.794437599E1
8.174192711E0,1.406531048E1,3.953780365E1,-9.590732574E0
8.190858648E0,3.437947845E1,4.859224701E1,1.317697525E1
8.207524586E0,4.832395172E1,4.971926498E1,1.593440437E1
8.224190523E0,5.812824249E1,4.054458618E1,2.333899498E0
8.240856461E0,6.143273163E1,2.089891243E1,5.576772213E0
8.257522398E0,4.537868500E1,-2.043171406E0,1.618983841E1
8.274188336E0,2.200320053E1,-1.614317703E1,2.147558403E1
8.290854273E0,8.733802795E0,-2.342334175E1,1.870648956E1
8.307520211E0,3.835096598E0,-2.904288483E1,1.133390331E1
8.324186148E0,6.041877344E-2,-3.133281517E1,6.873981476E0
8.340852086E0,-1.867598057E0,-3.258695602E1,6.026024818E0
8.357518023E0,-2.687737942E0,-3.055963516E1,7.147361279E0
8.374183961E0,4.364508629E0,-2.592892456E1,9.831809044E0
8.390849898E0,1.874507332E1,-2.158296204E1,1.136800098E1
8.407515836E0,2.326810646E1,-1.650269890E1,7.127022266E0
8.424181773E0,1.867358780E1,-1.168714428E1,1.046859860E0
8.440847711E0,1.850250053E1,-7.373483181E0,-1.726122379E0
8.457513648E0,2.483121872E1,-2.069791555E0,-5.234299660E0
8.474179586E0,3.074836922E1,6.951448917E0,-9.726823807E0
8.490845523E0,4.019643021E1,2.601058006E1,-1.469791293E0
8.507511461E0,5.398865891E1,4.090979004E1,1.232004547E1
8.524177398E0,4.191567230E1,3.881427383E1,1.382692528E1
8.540843336E0,7.684549809E0,2.830529785E1,-2.147558212E0
8.557509273E0,-8.361120224E0,2.072513390E1,-1.351346588E1
8.574175211E0,-5.701498032E0,1.616740608E1,-1.238076305E1
8.590841148E0,-5.657230854E0,1.370369530E1,-9.898209572E0
8.607507086E0,-8.104190826E0,1.172722340E1,-8.889934540E0
8.624173023E0,-1.029661465E1,1.076082230E1,-8.640482903E0
8.640838961E0,-9.700203896E0,1.013838959E1,-5.418846130E0
8.657504898E0,-7.089335442E0,9.784252167E0,-2.697010279E0
8.674170836E0,-4.495515347E0,1.166620636E1,-1.415354609E0
8.690836773E0,1.761715710E-1,1.506999683E1,3.678964674E-1
8.707502711E0,5.303990364E0,1.704945946E1,1.691725612E0
8.724168648E0,8.497511864E0,1.751396561E1,4.937589645E0
8.740834586E0,9.182157516E0,1.726870155E1,8.449056625E0
8.757500523E0,1.190937710E1,1.740868187E1,9.231808662E0
8.774166461E0,1.901905251E1,1.683530235E1,6.581159592E0
8.790832398E0,2.603241539E1,1.254736328E1,5.165505886E0
8.807498336E0,2.707598495E1,2.771486759E0,8.150851250E0
8.824164273E0,1.938814545E1,4.161716938E0,1.349312687E1
8.840830211E0,3.292494202E1,2.810669184E0,2.103410721E1
8.857496148E0,2.776990318E1,-4.916353226E0,2.273749733E1
8.874162086E0,8.854939461E0,-1.107338524E1,1.376142216E1
8.890828023E0,4.499403954E0,-1.825963020E1,-2.420938253E0
8.907493961E0,5.049753189E0,-2.014098549E1,-1.860270119E1
8.924159898E0,4.624728203E0,-1.825843239E1,-2.663750076E1
8.940825836E0,2.499303341E0,-1.407877064E1,-2.044966125E1
8.957491773E0,1.974676847E0,-9.136993408E0,-1.051167011E1
8.974157711E0,-1.947159469E-1,-3.157927752E0,-7.476075172E0
8.990823648E0,-7.878368497E-1,8.237590790E0,3.635594845E0
9.007489586E0,1.089332485E1,1.774487305E1,2.020858383E1
9.024155523E0,2.474746895E1,2.387528610E1,1.967827415E1
9.040821461E0,2.445285225E1,2.257807541E1,-1.155733347E0
9.057487398E0,1.148883915E1,1.823570061E1,-1.335464191E1
9.074153336E0,3.509971619E0,1.259312630E1,-3.006880760E0
9.090819273E0,6.828517914E-1,1.087029457E1,9.074481010E0
9.107485211E0,3.829712629E0,9.669994354E0,7.184749126E0
9.124151148E0,8.252246857E0,9.528818130E0,-2.422433853E0
9.140817086E0,1.422652721E1,5.694917679E0,-6.707979202E0
9.157483023E0,1.471256924E1,-1.076770201E-1,-4.954937458E0
9.174148961E0,4.380660057E0,-2.419741869E0,-3.891626835E0
9.190814898E0,3.504886866E0,-1.307079315E0,5.160421371E0
9.207480836E0,1.099501991E1,-1.896910191E0,7.065706253E0
9.224146773E0,1.551087475E1,1.283151209E-1,1.811366796E0
9.240812711E0,1.388166142E1,1.765304923E0,-5.083551884E0
9.257478648E0,8.646165848E0,1.287637711E0,-9.097810745E0
9.274144586E0,1.402792215E0,4.001995921E-1,-1.127886868E1
9.290810523E0,-4.813162804E0,2.924926519E0,-6.937690258E0
9.307476461E0,-2.164906263E0,5.391328335E0,2.363510609E0
9.324142398E0,8.003393173E0,6.704091072E0,9.434301376E0
9.340808336E0,1.789771461E1,7.776075363E0,5.841478348E0
9.357474273E0,2.161646080E1,9.525827408E0,-3.564707518E0
9.374140211E0,1.910010910E1,8.954839706E0,-5.656333447E0
9.390806148E0,1.138265705E1,6.987640381E0,1.789831281E0
9.407472086E0,5.472983360E0,5.237290382E0,8.258528709E0
9.424138023E0,9.090332985E0,3.583251953E0,6.812664986E0
9.440803961E0,1.591406536E1,2.650051117E0,-8.787640929E-1
9.457469898E0,1.278933811E1,1.989632010E0,-1.049432182E1
9.474135836E0,7.756932735E0,4.815555573E0,-5.724828243E0
9.490801773E0,1.083260727E1,5.883053780E0,4.465605259E0
9.507467711E0,1.353649712E1,8.911469460E0,1.166142082E1
9.524133648E0,1.571964836E1,1.056820011E1,8.995517731E0
9.540799586E0,1.205892849E1,1.035613632E1,5.228317380E-1
9.557465523E0,7.603193760E0,7.969594955E0,-3.702594042E0
9.574131461E0,3.908675671E0,4.992026329E0,-2.749353170E0
9.590797398E0,3.017947674E-1,3.428316593E0,-1.237986565E0
9.607463336E0,1.929213256E-1,4.371985912E0,1.505384564E0
9.624129273E0,2.064108610E0,4.219443798E0,-2.434697002E-1
9.640795211E0,2.577967405E0,4.532006264E0,-3.505485058E0
9.657461148E0,2.362912416E0,5.158028126E0,-4.897210598E0
9.674127086E0,2.980559587E0,4.561018944E0,-5.110171795E0
9.690793023E0,2.504986286E0,2.703291416E0,-6.052345753E0
9.707458961E0,3.001197815E0,2.015055656E0,-8.569893837E0
9.724124898E0,7.251150131E0,5.923731327E0,-1.142363453E1
9.740790836E0,1.227368450E1,1.154447174E1,-8.201997757E0
9.757456773E0,8.413463593E0,2.016132545E1,8.486444473E0
9.774122711E0,6.023332596E0,2.959443092E1,2.041436577E1
9.790788648E0,1.493151283E1,3.429542923E1,1.787378693E1
9.807454586E0,2.504088974E1,3.699782562E1,1.317308712E1
9.824120523E0,2.926212692E1,3.891208267E1,2.076102638E1
9.840786461E0,3.498456192E1,3.598386383E1,2.640988350E1
9.857452398E0,3.646931076E1,3.657907867E1,2.266780663E1
9.874118336E0,4.227220154E1,4.110031891E1,2.029472542E1
9.890784273E0,5.161647415E1,3.651985550E1,2.184916306E1
9.907450211E0,4.928227615E1,2.389801788E1,2.023400688E1
9.924116148E0,4.059991837E1,8.880064011E0,1.690947914E1
9.940782086E0,3.172763252E1,-2.362015009E0,1.277557945E1
9.957448023E0,2.261755753E1,-9.472287178E0,6.718746662E0
9.974113961E0,1.315603828E1,-1.253390408E1,1.583450437E0
9.990779898E0,7.680362701E0,-1.408415413E1,-1.001396298E0
1.000744584E1,8.110771179E0,-1.867089653E1,-4.917250574E-1
1.002411177E1,7.657331467E0,-2.430300140E1,1.585245013E0
1.004077771E1,6.443572044E0,-2.835464859E1,1.979761600E0
1.005744365E1,8.480463028E0,-3.195614624E1,-9.403793216E-1
1.007410959E1,1.221954727E1,-3.432683563E1,-7.780262947E0
1.009077552E1,1.540588951E1,-3.390091324E1,-1.215434265E1
1.010744146E1,2.156651115E1,-3.250529861E1,-1.193031502E1
1.012410740E1,2.714208603E1,-3.107618523E1,-1.168624687E1
1.014077334E1,2.915714264E1,-2.731676292E1,-1.079162979E1
1.015743927E1,3.273979568E1,-2.419502640E1,-9.455837250E0
1.017410521E1,4.000380707E1,-2.201426697E1,-8.183753014E0
1.019077115E1,4.847439957E1,-1.847588158E1,-8.056933403E0
1.020743709E1,5.512016678E1,-1.273430347E1,-8.497810364E0
1.022410302E1,6.111418533E1,-6.640681267E0,-7.844570160E0
1.024076896E1,6.538597107E1,7.028318405E0,-6.622136593E0
1.025743490E1,6.853372955E1,2.123151588E1,-3.253939629E0
1.027410084E1,5.875725555E1,3.046900749E1,-4.914259613E-1
1.029076677E1,3.828426361E1,3.201327515E1,-3.580559969E0
1.030743271E1,1.928585052E1,3.510510254E1,-1.781755567E0
1.032409865E1,1.093609715E1,4.019014740E1,7.595118046E0
1.034076459E1,9.712467194E0,4.446971130E1,1.212203979E1
1.035743052E1,1.023799038E1,4.556861496E1,2.854039192E0
1.037409646E1,1.055892849E1,4.349283981E1,-1.161356449E1
1.039076240E1,1.045184898E1,4.058615875E1,-1.336331654E1
1.040742834E1,1.487019634E1,4.009263992E1,-6.733702183E0
1.042409427E1,3.128914642E1,4.264698029E1,4.351946115E-1
1.044076021E1,5.149145126E1,4.473411942E1,8.551051140E0
1.045742615E1,7.027391052E1,4.183880234E1,2.202832603E1
1.047409209E1,7.833144379E1,3.617977905E1,2.836003304E1
1.049075802E1,7.839843750E1,2.264806557E1,1.577617836E1
1.050742396E1,7.839843750E1,5.786742687E0,7.357032299E0
1.052408990E1,7.839096069E1,-9.336793900E0,1.567807293E1
1.054075584E1,7.158338165E1,-1.790878105E1,2.155544281E1
1.055742177E1,5.793980789E1,-2.307668114E1,1.898166466E1
1.057408771E1,4.396961212E1,-3.013730240E1,1.853211212E1
1.059075365E1,2.612423897E1,-3.763461304E1,3.029133987E1
1.060741959E1,1.587637806E1,-4.745595551E1,4.252344894E1
1.062408552E1,1.479990673E1,-5.708108139E1,3.786133194E1
1.064075146E1,1.711167336E1,-5.932136536E1,1.948894310E1
1.065741740E1,1.356999588E1,-5.700690460E1,4.953741074E0
1.067408334E1,1.714158297E0,-5.711547852E1,1.118943691E0
1.069074927E1,1.084546804E0,-5.680411530E1,7.869395256E0
1.070741521E1,2.054178429E1,-5.551827240E1,1.232034492E1
1.072408115E1,3.958476257E1,-5.105176926E1,1.119541931E1
1.074074709E1,5.394917679E1,-4.512983322E1,6.600900173E0
1.075741302E1,7.316384125E1,-3.967838287E1,2.177169561E0
1.077407896E1,7.839485168E1,-2.343859482E1,-9.439685345E-1
1.079074490E1,7.839843750E1,1.329870987E1,9.992427826E0
1.080741084E1,7.814659882E1,3.452573776E1,1.853151321E1
1.082407677E1,6.283941269E1,3.743630981E1,-1.027807045E1
1.084074271E1,4.595355988E1,4.252913284E1,-7.750651836E0
1.085740865E1,2.392284203E1,5.223830795E1,7.031907439E-1
1.087407459E1,7.483253479E0,6.590551758E1,3.620938778E0
1.089074052E1,-2.860619545E0,7.514091492E1,8.209774017E0
1.090740646E1,-2.137687922E0,7.741200256E1,1.792642975E1
1.092407240E1,-1.030708313E0,6.800461578E1,2.321875381E1
1.094073834E1,4.258925438E0,5.635127258E1,2.861157799E1
1.095740427E1,1.990320015E1,5.094917679E1,2.727279472E1
1.097407021E1,4.282913208E1,5.065545654E1,2.585385132E1
1.099073615E1,6.782874298E1,5.022803879E1,3.283221817E1
1.100740209E1,7.836943054E1,4.694388962E1,3.066761208E1
1.102406802E1,7.839843750E1,3.506442261E1,1.678894043E1
1.104073396E1,7.839843750E1,1.315424347E1,8.222934723E0
1.105739990E1,7.839843750E1,-7.611867905E0,8.760123253E0
1.107406584E1,6.822206879E1,-2.321755791E1,1.533918953E1
1.109073177E1,4.893711090E1,-3.660420609E1,2.474417877E1
1.110739771E1,3.453381348E1,-4.616951370E1,3.026442146E1
1.112406365E1,3.034697342E1,-5.371946716E1,2.697399139E1
1.114072959E1,2.453749847E1,-5.954030609E1,1.487109375E1
1.115739552E1,1.255813122E1,-6.564708710E1,8.539685249E0
1.117406146E1,-6.654738903E0,-6.950222778E1,6.477370739E0
1.119072740E1,-1.006481051E0,-7.113951111E1,9.152845383E0
1.120739334E1,2.755275536E1,-6.806473541E1,1.210798168E1
1.122405927E1,5.408078384E1,-6.116503143E1,9.785747528E0
1.124072521E1,7.119245911E1,-5.234359360E1,1.212921810E1
1.125739115E1,7.830332947E1,-4.244209290E1,1.559073544E1
1.127405709E1,7.839843750E1,-2.495085907E1,1.346261883E1
1.129072302E1,7.839843750E1,3.890729666E0,3.130410194E1
1.130738896E1,7.839843750E1,2.815155792E1,4.359064865E1
1.132405490E1,7.358378601E1,3.608675766E1,6.698407650E0
1.134072084E1,5.363153076E1,4.000380707E1,-5.012365341E0
1.135738677E1,2.299053955E1,4.573402023E1,1.281894875E1
1.137405271E1,3.966103554E0,5.722375488E1,1.347518063E1
1.139071865E1,-8.571988106E0,6.560341644E1,-7.074978352E0
1.140738459E1,-1.118016434E1,6.657161713E1,-1.526590919E1
1.142405052E1,-8.368597984E0,5.434668350E1,-4.558028221E0
1.144071646E1,-8.014460564E0,3.812693787E1,1.303370476E1
1.145738240E1,-5.505286694E0,2.965814018E1,2.337458801E1
1.147404834E1,4.775176525E0,3.273321533E1,1.947069740E1
1.149071427E1,3.028356361E1,4.125196457E1,1.309621716E1
1.150738021E1,5.641677475E1,5.471368408E1,1.759711647E1
1.152404615E1,7.752626038E1,6.353243256E1,2.271386909E1
1.154071209E1,7.839843750E1,5.031687164E1,6.476174355E0
1.155737802E1,7.839843750E1,2.692792892E1,-5.024628639E0
1.157404396E1,7.839843750E1,1.212562919E0,4.886143684E0
1.159070990E1,7.492585754E1,-1.425553989E1,1.129651546E1
1.160737584E1,6.460681152E1,-2.052084732E1,9.811769485E0
1.162404177E1,5.230949402E1,-2.892922592E1,9.361619949E0
1.164070771E1,2.963540840E1,-3.446860886E1,1.740808296E1
1.165737365E1,1.765304947E1,-4.517320251E1,2.686750984E1
1.167403959E1,1.337228966E1,-5.997071457E1,2.600968361E1
1.169070552E1,1.652543068E1,-7.582017517E1,1.486002636E1
1.170737146E1,7.191628456E0,-7.839694214E1,6.731309414E0
1.172403740E1,4.798506737E0,-7.839843750E1,9.000003815E0
1.174070334E1,2.789163780E1,-7.826773071E1,1.573460388E1
1.175736927E1,5.894359589E1,-7.397171783E1,2.021785545E1
1.177403521E1,7.755347443E1,-6.349953079E1,2.566421890E1
1.179070115E1,7.839843750E1,-4.613601303E1,2.290798759E1
1.180736709E1,7.839843750E1,-1.633639908E1,8.548059464E0
1.182403302E1,7.839843750E1,1.480977726E1,2.943919563E1
1.184069896E1,7.839843750E1,4.034478378E1,3.134388351E1
1.185736490E1,7.117481232E1,4.612075806E1,-1.572024632E1
1.187403084E1,4.699832535E1,4.400311279E1,-2.132603168E0
1.189069677E1,1.923949051E1,5.209204865E1,3.000958443E1
1.190736271E1,1.154566860E1,6.117729568E1,2.425933266E1
1.192402865E1,-4.067798555E-1,6.507939148E1,6.587141514E0
1.194069459E1,-1.231017494E1,5.839444351E1,-2.030609131E0
1.195736052E1,-2.084567261E1,4.915545654E1,-8.225327730E-1
1.197402646E1,-1.190489101E1,4.089962006E1,7.292426109E0
1.199069240E1,5.267798901E0,3.825914001E1,1.593470287E1
1.200735834E1,2.732214546E1,4.233411789E1,1.474068451E1
1.202402427E1,4.578666306E1,4.787619400E1,2.717349291E0
1.204069021E1,6.127211380E1,5.190241623E1,2.711367130E0
1.205735615E1,7.730611420E1,5.556822205E1,1.811994934E1
1.207402209E1,7.839843750E1,3.625156403E1,1.724567032E1
1.209068802E1,7.839843750E1,9.939785004E0,9.751649857E0
1.210735396E1,7.839843750E1,-7.326822758E0,8.935098648E0
1.212401990E1,7.601369476E1,-2.064706802E1,1.032981491E1
1.214068584E1,5.966323853E1,-3.273471069E1,1.394716454E1
1.215735177E1,3.336552048E1,-4.312763596E1,1.790848351E1
1.217401771E1,1.448734474E1,-4.627659225E1,2.147139549E1
1.219068365E1,8.186145782E0,-5.159015274E1,1.334387493E1
1.220734959E1,1.523031592E0,-5.836214066E1,4.504488468E0
1.222401552E1,-7.871489048E0,-6.017709732E1,2.166700840E0
1.224068146E1,-1.853241086E0,-5.732814407E1,6.218348026E0
1.225734740E1,2.016551208E1,-5.263432312E1,1.162343502E1
1.227401334E1,3.326651764E1,-4.383262253E1,1.197607708E1
1.229067927E1,3.726641846E1,-3.641606903E1,1.146700478E1
1.230734521E1,4.575764847E1,-2.903271484E1,1.381017590E1
1.232401115E1,5.620531082E1,-1.413260841E1,1.095553875E1
1.234067709E1,7.124658966E1,1.273968697E1,5.984449387E0
1.235734302E1,7.817710876E1,2.846860695E1,-1.887937069E0
1.237400896E1,6.491458893E1,3.773750687E1,5.688936114E-1
1.239067490E1,4.825216675E1,4.023471451E1,1.917428589E1
1.240734084E1,2.566451836E1,3.712733459E1,1.718315887E1
1.242400677E1,1.148255730E1,3.202703476E1,2.738286495E0
1.244067271E1,3.246163130E0,2.766372108E1,-5.655137062E0
1.245733865E1,-3.842274904E0,2.374966240E1,-5.156532764E0
1.247400459E1,-5.029414177E0,2.089173508E1,-1.309771299E0
1.249067052E1,-2.163410664E0,1.773829269E1,1.272682548E0
1.250733646E1,1.740180254E0,1.420050526E1,2.521735907E0
1.252400240E1,7.168896675E0,1.117567825E1,8.626125455E-1
1.254066834E1,1.146341515E1,9.115756989E0,-3.562912941E0
1.255733427E1,1.160698414E1,7.256833076E0,-6.309275150E0
1.257400021E1,9.650552750E0,5.584548950E0,-5.256732464E0
1.259066615E1,7.336394310E0,4.410869598E0,-3.499802113E0
1.260733209E1,6.299404621E0,3.303590775E0,-2.092822552E0
1.262399802E1,7.218248844E0,2.208575249E0,-2.871686220E0
1.264066396E1,9.243174553E0,1.754836321E0,-4.011268139E0
1.265732990E1,1.126570797E1,2.255534410E0,-9.164510965E-1
1.267399584E1,1.269601822E1,2.211566210E0,4.546063900E0
1.269066177E1,1.337827110E1,-3.161516786E-1,1.158305645E1
1.270732771E1,2.039731789E1,-6.940382004E0,1.390349579E1
1.272399365E1,2.386003113E1,-6.516852379E0,2.278056908E1
1.274065959E1,2.800798988E1,-5.857031822E0,3.240928650E1
1.275732552E1,2.008266068E1,-1.016351414E1,2.562892532E1
1.277399146E1,6.585047722E0,-1.756630898E1,7.459624767E0
1.279065740E1,-1.208076358E0,-1.969412613E1,-1.193031502E1
1.280732334E1,-3.508775234E0,-1.675843239E1,-2.465594292E1
1.282398927E1,-2.532802820E0,-1.368096352E1,-2.199931145E1
1.284065521E1,-1.894517303E0,-1.326251888E1,-1.545045567E1
1.285732115E1,-4.631607533E0,-1.014646530E1,-3.366402388E0
1.287398709E1,3.450151205E0,-2.956631422E0,2.210489464E1
1.289065302E1,1.949671936E1,-1.680957913E0,2.904647446E1
1.290731896E1,2.738106918E1,-5.111667514E-1,1.524856186E1
1.292398490E1,3.236232758E1,6.786643267E-1,-1.297508121E0
1.294065084E1,2.719203568E1,2.015354872E0,-6.858129025E0
1.295731677E1,1.431386471E1,2.969193697E0,-3.224627733E0
1.297398271E1,7.743174076E0,2.489432812E0,-1.872682810E0
1.299064865E1,6.670292377E0,2.380559444E0,-5.864509106E0
1.300731459E1,1.061545849E1,3.285345554E0,-1.276361465E1
1.302398052E1,1.853749657E1,3.369991541E0,-1.084397316E1
1.304064646E1,2.125843430E1,-1.349851131E0,-5.208277702E0
1.305731240E1,1.501436424E1,-5.480760098E0,-4.208376706E-1
1.307397834E1,1.454776382E1,-2.824128866E0,5.146064281E0
1.309064427E1,1.663699722E1,2.169392824E0,2.021636009E0
1.310731021E1,1.540020657E1,6.540481567E0,-2.793919563E0
1.312397615E1,8.855836868E0,5.255835056E0,-7.181458950E0
1.314064209E1,2.128714800E0,1.930409670E0,-8.239385605E0
1.315730802E1,2.282453775E0,-3.900300860E-1,-8.461020470E0
1.317397396E1,7.454838753E0,-1.314257860E0,-8.569893837E0
1.319063990E1,1.232363510E1,3.792623878E-1,-1.958525300E0
1.320730584E1,1.548096466E1,8.748757839E-1,1.028495026E1
1.322397177E1,1.633430481E1,-1.031904742E-1,1.741825294E1
1.324063771E1,1.787109566E1,-2.221137524E0,1.509482288E1
1.325730365E1,1.968814468E1,-9.982855797E0,3.547658682E0
1.327396959E1,1.054008484E1,-1.931277084E1,-2.851646423E0
1.329063552E1,-3.327818155E0,-2.357049942E1,6.179464459E-1
1.330730146E1,-1.194078350E1,-2.196342087E1,4.832903385E0
1.332396740E1,-3.299702406E0,-2.222663116E1,8.601000786E0
1.334063334E1,2.079063797E1,-2.917957497E1,4.850849628E0
1.335729927E1,3.414348602E1,-2.681965256E1,-5.277370453E0
1.337396521E1,3.611606979E1,-1.565534115E1,-5.165206909E0
1.339063115E1,3.571228027E1,-7.886145115E0,-1.118943691E0
1.340729709E1,3.108545876E1,-2.452643216E-2,2.796910524E0
1.342396302E1,2.488714981E1,8.985946655E0,4.123431683E0
1.344062896E1,1.945963097E1,1.391366577E1,1.322034478E0
1.345729490E1,1.179332542E1,1.652722549E1,-3.786043644E0
1.347396084E1,4.593621254E0,1.678385544E1,-7.941778183E0
1.349062677E1,-1.217647672E0,1.863201332E1,-7.921140194E0
1.350729271E1,-2.676970363E-1,1.970399666E1,-3.796811342E0
1.352395865E1,3.233600616E0,1.907438660E1,2.185245275E0
1.354062459E1,7.161418915E0,1.935673904E1,3.181556702E0
1.355729052E1,8.460124016E0,1.889013863E1,-6.254240274E-1
1.357395646E1,7.896015644E0,1.755793381E1,-1.483849168E0
1.359062240E1,8.339883804E0,1.546182156E1,2.120938063E0
1.360728834E1,9.222537041E0,1.487647724E1,6.429514408E0
1.362395427E1,1.333520031E1,1.563230991E1,1.182383442E1
1.364062021E1,2.162304115E1,1.702612877E1,1.875314903E1
1.365728615E1,3.144109154E1,1.445803261E1,2.126770592E1
1.367395209E1,3.572304916E1,1.366600800E1,2.173789597E1
1.369061802E1,4.072045898E1,2.033929253E1,2.400868416E1
1.370728396E1,5.912724686E1,2.925734138E1,3.579154205E1
1.372394990E1,7.544360352E1,3.530101395E1,5.434548950E1
1.374061584E1,7.839843750E1,2.670031166E1,5.950202179E1
1.375728177E1,7.839843750E1,1.389661694E1,4.594159698E1
1.377394771E1,7.835985565E1,2.873480797E0,2.926930618E1
1.379061365E1,7.135905457E1,-7.045068264E0,2.278415871E1
1.380727959E1,5.479474258E1,-1.633998680E1,1.965494347E1
1.382394552E1,4.211338043E1,-2.281376839E1,1.533619881E1
1.384061146E1,3.483501053E1,-2.610120773E1,1.149571800E1
1.385727740E1,3.114557838E1,-3.200160980E1,6.376872540E0
1.387394334E1,2.368415833E1,-3.920938873E1,1.160518974E-1
1.389060927E1,1.772244072E1,-4.659663010E1,-8.487939835E0
1.390727521E1,1.485912991E1,-5.532176208E1,-1.441645718E1
1.392394115E1,8.235198021E0,-6.072744751E1,-1.837777519E1
1.394060709E1,8.764310837E0,-6.161488342E1,-1.419900990E1
1.395727302E1,2.803281403E1,-6.031498337E1,-5.750551224E0
1.397393896E1,5.180490875E1,-5.335994339E1,-3.578167200E0
1.399060490E1,6.644838715E1,-4.343989944E1,-7.863114357E0
1.400727084E1,7.585845947E1,-3.652165222E1,-1.108744240E1
1.402393677E1,7.839156342E1,-2.990549660E1,-8.631808281E0
1.404060271E1,7.839843750E1,-2.382892418E1,-5.823532104E0
1.405726865E1,7.839843750E1,-1.042074299E1,-6.826424122E0
1.407393459E1,7.824500275E1,7.199405193E0,-1.519950867E1
1.409060052E1,7.481309509E1,1.996092606E1,-1.902802467E1
1.410726646E1,5.964499283E1,2.755903625E1,-6.102894306E0
1.412393240E1,3.845146179E1,3.384378433E1,2.384148598E0
1.414059834E1,2.453450775E1,4.284887314E1,-9.902696609E0
1.415726427E1,2.093779564E1,5.765655899E1,-2.754109001E1
1.417393021E1,2.616402054E1,6.550890350E1,-2.251586342E1
1.419059615E1,2.421446800E1,6.369664001E1,6.011966705E0
1.420726209E1,2.230798721E1,5.540042496E1,2.614547539E1
1.422392802E1,2.687797928E1,4.375784683E1,1.808136368E1
1.424059396E1,3.349861908E1,3.638854980E1,-2.679363251E0
1.425725990E1,4.375425720E1,3.442015457E1,-8.505587578E0
1.427392584E1,5.853382492E1,3.434717560E1,6.531209469E0
1.429059177E1,7.207092285E1,3.034577751E1,2.970300484E1
1.430725771E1,7.804221344E1,2.395364952E1,3.919862366E1
1.432392365E1,7.839843750E1,2.325973129E1,1.430309772E1
1.434058959E1,7.839843750E1,2.596900558E1,-1.456032562E1
1.435725552E1,7.839843750E1,1.338664627E1,-1.156720352E1
1.437392146E1,7.839843750E1,-3.562912941E0,1.125613689E1
1.439058740E1,7.650183105E1,-1.812533188E1,3.220440292E1
1.440725334E1,5.681727600E1,-2.774926567E1,4.366392899E1
1.442391927E1,3.942324829E1,-3.972922897E1,3.818316650E1
1.444058521E1,3.760739517E1,-4.954608536E1,3.169323540E1
1.445725115E1,4.010669708E1,-6.387580109E1,3.561746597E1
1.447391709E1,2.754378128E1,-7.166503906E1,3.133700371E1
1.449058302E1,7.099504948E0,-7.395018005E1,1.478405476E1
1.450724896E1,-2.264806747E0,-7.456663513E1,3.305385351E0
1.452391490E1,1.157737350E1,-7.735487366E1,3.426522017E0
1.454058084E1,4.205565262E1,-7.510202789E1,5.546562672E0
1.455724677E1,7.332326508E1,-6.730979919E1,-3.537189960E0
1.457391271E1,7.839694214E1,-5.443252945E1,-1.144816113E1
1.459057865E1,7.839843750E1,-4.182743835E1,-1.381047535E1
1.460724459E1,7.839843750E1,-2.381636238E1,-1.584587002E1
1.462391052E1,7.839843750E1,-1.354935765E-1,2.277967215E0
1.464057646E1,7.839843750E1,2.031267166E1,3.939483404E0
1.465724240E1,7.764469910E1,2.944667435E1,-1.126421261E1
1.467390834E1,5.949155426E1,3.515774155E1,-4.966602325E0
1.469057427E1,3.661168289E1,4.806103897E1,1.249801159E1
1.470724021E1,2.418545532E1,5.986812210E1,3.776472330E0
1.472390615E1,1.176730347E1,6.928657532E1,-1.810798454E1
1.474057209E1,1.092622638E0,7.377431488E1,-1.750469398E1
1.475723802E1,-5.019842625E0,6.624080658E1,-1.744367719E0
1.477390396E1,-7.864011765E0,5.437091064E1,8.642276764E0
1.479056990E1,8.545367718E-1,4.616054153E1,1.027298546E1
1.480723584E1,1.951586151E1,4.578725815E1,9.731908798E0
1.482390177E1,4.534309006E1,4.768745804E1,1.604237938E1
1.484056771E1,6.972356415E1,5.582664490E1,3.062543869E1
1.485723365E1,7.838497925E1,5.461647415E1,1.959123611E1
1.487389959E1,7.839843750E1,3.763880157E1,-1.501496220E1
1.489056552E1,7.839843750E1,1.642702675E1,-2.007099724E1
1.490723146E1,7.839843750E1,-2.248655081E0,-4.046861231E-1
1.492389740E1,7.828807068E1,-1.719901085E1,1.912044716E1
1.494056334E1,6.939664459E1,-2.976701355E1,3.181138039E1
1.495722927E1,5.463143158E1,-4.179663086E1,2.309073830E1
1.497389521E1,3.819124222E1,-4.530091858E1,1.250399399E1
1.499056115E1,2.700479889E1,-5.626782227E1,1.724267960E1
1.500722709E1,1.123190975E1,-6.896533966E1,1.366989708E1
1.502389302E1,-7.211967468E0,-7.730342865E1,5.034498692E0
1.504055896E1,-1.302174091E1,-7.839575195E1,3.541377544E0
1.505722490E1,5.262415409E0,-7.839843750E1,9.979565620E0
1.507389084E1,3.858277130E1,-7.747212219E1,1.503111362E1
1.509055677E1,6.475217438E1,-6.848377991E1,1.494108391E1
1.510722271E1,7.751459503E1,-5.841897202E1,1.587548065E1
1.512388865E1,7.839843750E1,-4.678805923E1,1.527847195E1
1.514055459E1,7.839843750E1,-2.295315170E1,1.443948841E1
1.515722052E1,7.839843750E1,4.936991215E0,3.085843849E1
1.517388646E1,7.839843750E1,3.107648468E1,1.801526260E1
1.519055240E1,7.628438568E1,4.185345840E1,-2.522124863E1
1.520721834E1,5.155635452E1,4.585156631E1,-1.471436405E1
1.522388427E1,2.659532547E1,5.083462143E1,-6.150152206E0
1.524055021E1,1.766800499E1,5.182554626E1,-1.599033642E1
1.525721615E1,8.009375572E0,4.815106964E1,-1.635554123E1
1.527388209E1,-7.055835724E-1,4.234847260E1,-1.294816136E0
1.529054802E1,-5.519942760E0,3.433012390E1,9.520442963E0
1.530721396E1,-1.010399246E1,2.762603378E1,1.348564911E1
1.532387990E1,-8.484649658E0,2.392045021E1,1.063400269E1
1.534054584E1,-1.289432287E0,2.643171692E1,2.644368172E0
1.535721177E1,1.313689518E1,3.555584717E1,-4.264308929E0
1.537387771E1,3.530520248E1,4.797489929E1,4.311866283E0
1.539054365E1,5.742206192E1,5.501248932E1,2.080260277E1
1.540720959E1,7.530811310E1,5.515306473E1,2.199931145E1
1.542387552E1,7.839754486E1,4.050988770E1,8.419744492E0
1.544054146E1,7.839843750E1,1.684666824E1,1.226321578E0
1.545720740E1,7.839843750E1,-2.285444736E0,6.868896484E0
1.547387334E1,7.771887970E1,-1.274447250E1,1.755793381E1
1.549053927E1,6.365177536E1,-2.483630180E1,2.589781952E1
1.550720521E1,4.135934067E1,-3.825824356E1,2.808007240E1
1.552387115E1,2.317717934E1,-4.902384949E1,2.617000198E1
1.554053709E1,1.359422398E1,-6.186582947E1,1.999263191E1
1.555720302E1,1.318445325E0,-6.972266388E1,7.552645683E0
1.557386896E1,-5.432903767E0,-7.151039886E1,2.196012974E0
1.559053490E1,-2.358126640E0,-7.053742218E1,3.564408541E0
1.560720084E1,1.007438183E1,-6.632156372E1,6.800701141E0
1.562386677E1,3.088326454E1,-6.184160233E1,1.086580753E1
1.564053271E1,4.788696289E1,-5.424259567E1,1.343001652E1
1.565719865E1,6.015945053E1,-4.644049835E1,1.468744469E1
1.567386459E1,7.256713104E1,-3.751377487E1,1.412303734E1
1.569053052E1,7.835656738E1,-1.404856110E1,1.515015697E1
1.570719646E1,7.839843750E1,1.591466331E1,2.138196373E1
1.572386240E1,7.837331390E1,2.853919601E1,1.183131123E1
1.574052834E1,6.646603394E1,3.476681519E1,8.983553886E0
1.575719427E1,4.876871490E1,3.553551102E1,9.544371605E0
1.577386021E1,2.526521683E1,3.174707413E1,-4.332504272E0
1.579052615E1,1.220997620E1,2.903331375E1,-9.410672188E0
1.580719209E1,8.387142181E0,2.633809853E1,-2.573181629E0
1.582385802E1,1.750947952E0,2.575245476E1,1.845165372E0
1.584052396E1,-2.902493954E0,2.624806786E1,9.334999323E-1
1.585718990E1,-4.936692238E0,2.539383125E1,-2.094018936E0
1.587385584E1,-6.396613121E0,2.452822685E1,-2.573779821E0
1.589052177E1,-3.119642496E0,2.303570366E1,1.275075316E0
1.590718771E1,3.926621914E0,2.269053841E1,4.804189682E0
1.592385365E1,6.988537788E0,2.211985016E1,2.482553482E0
1.594051959E1,4.348656178E0,2.170020866E1,-1.222732425E0
1.595718552E1,5.328217983E0,2.257209396E1,-2.168495506E-1
1.597385146E1,1.402911949E1,2.413729858E1,4.698606491E0
1.599051740E1,2.725036240E1,2.531875610E1,8.190931320E0
1.600718334E1,4.761208725E1,2.537050056E1,8.797511101E0
1.602384927E1,6.081687927E1,1.895145416E1,2.084447622E0
1.604051521E1,6.647709656E1,1.706291962E1,6.352046967E0
1.605718115E1,6.958178711E1,6.270989895E0,1.400309753E1
1.607384709E1,5.857360458E1,-5.982954025E0,1.773978806E1
1.609051302E1,4.304388809E1,-1.617009735E1,1.895803452E1
1.610717896E1,2.716780853E1,-2.638774872E1,1.243131161E1
1.612384490E1,1.142243767E1,-3.279363251E1,7.892426491E0
1.614051084E1,1.110867858E0,-3.788855362E1,5.661717415E0
1.615717677E1,-3.272184849E0,-4.290301132E1,4.256233275E-1
1.617384271E1,-8.169395447E0,-4.709374237E1,-4.049553394E0
1.619050865E1,-1.124596691E1,-4.707310104E1,-2.378166676E0
1.620717459E1,-3.745963812E0,-4.417120743E1,4.337888241E0
1.622384052E1,7.289434910E0,-4.092654037E1,6.862615108E0
1.624050646E1,1.096271706E1,-3.456910706E1,6.101398468E0
1.625717240E1,1.394327641E1,-2.802892685E1,5.819344521E0
1.627383834E1,2.248266220E1,-1.999352837E1,6.764509678E0
1.629050427E1,3.341157913E1,-4.617549419E0,6.526722908E0
1.630717021E1,4.793481827E1,1.193898869E1,4.597210407E0
1.632383615E1,5.877909088E1,2.390160561E1,-1.385743380E0
1.634050209E1,5.824459457E1,3.349084473E1,4.912465096E0
1.635716802E1,4.861707306E1,3.496242905E1,1.219621658E1
1.637383396E1,2.952384186E1,2.808485794E1,5.121238708E0
1.639049990E1,1.051107121E1,1.979103661E1,-5.361717224E0
1.640716584E1,-5.174478889E-2,1.477448368E1,-6.884449959E0
1.642383177E1,-3.982554197E0,1.225274754E1,-4.555335999E0
1.644049771E1,-4.814060211E0,1.084427261E1,-2.270788670E0
1.645716365E1,-5.047659397E0,9.547960281E0,-5.976074338E-1
1.647382959E1,-4.818247318E0,8.236693382E0,1.100399256E0
1.649049552E1,-2.235195398E0,7.220342159E0,2.250150681E0
1.650716146E1,8.602197170E-1,7.412964344E0,2.458027124E0
1.652382740E1,2.470290184E0,8.002495766E0,1.205683470E0
1.654049334E1,3.829712629E0,7.978568077E0,-1.187438220E-1
1.655715927E1,4.984548569E0,7.314858913E0,-1.228714466E0
1.657382521E1,4.459323883E0,6.164509296E0,-2.923431158E0
1.659049115E1,5.514259815E0,5.346463203E0,-2.988037348E0
1.660715709E1,7.746763229E0,4.352245331E0,-1.999801517E0
1.662382302E1,1.368126297E1,1.388734460E0,-3.269194067E-1
1.664048896E1,2.387528610E1,-4.142873287E0,1.868794441E0
1.665715490E1,3.359822083E1,-2.908176899E0,1.339143181E1
1.667382084E1,3.707289886E1,-2.550150633E0,1.855544281E1
1.669048677E1,2.040449524E1,-4.746462822E0,1.271127224E1
1.670715271E1,3.208476067E0,-7.127620220E0,6.633203506E0
1.672381865E1,-9.221340418E-1,-8.738288879E0,-8.045866340E-2
1.674048459E1,-1.454237938E0,-7.900801182E0,-1.038275623E1
1.675715052E1,-3.343969584E-1,-6.274280071E0,-1.649013710E1
1.677381646E1,2.142772675E0,-6.312864304E0,-1.619163322E1
1.679048240E1,2.333600283E0,-4.707878590E0,-1.091575813E1
1.680714834E1,3.966103554E0,-3.002394199E0,2.620440006E0
1.682381427E1,6.464210510E0,-1.173679471E0,1.730070686E1
1.684048021E1,1.434527111E1,8.566305041E-1,1.909980965E1
1.685714615E1,2.731197739E1,1.278365493E0,6.579065800E0
1.687381209E1,3.368585968E1,1.207478166E0,-9.728618622E0
1.689047802E1,2.534597397E1,2.043769598E0,-1.192373466E1
1.690714396E1,1.177089310E1,-1.212562919E0,-7.390831113E-1
1.692380990E1,2.090728760E0,-3.929612875E0,1.141825008E1
1.694047584E1,4.153940201E0,-5.035396099E0,1.237388420E1
1.695714177E1,1.317607784E1,-6.335297108E0,2.874677420E0
1.697380771E1,1.827189255E1,-7.613363266E0,-9.086444855E0
1.699047365E1,1.585185146E1,-7.330412388E0,-6.987939358E0
1.700713959E1,1.760698700E1,-4.466502666E0,5.402993679E0
1.702380552E1,1.915005875E1,-4.546363056E-1,1.015125084E1
1.704047146E1,1.765125465E1,3.374478102E0,6.474678993E0
1.705713740E1,1.340818214E1,5.265406132E0,-1.887338907E-1
1.707380334E1,1.056820011E1,6.123233318E0,-5.608776093E0
1.709046927E1,9.603593826E0,5.333900928E0,-8.516354561E0
1.710713521E1,7.528418064E0,5.503791332E0,-7.584350586E0
1.712380115E1,8.311170578E0,4.775774956E0,-4.767699242E0
1.714046709E1,9.135198593E0,3.571886063E0,-1.111765265E0
1.715713302E1,8.921937943E0,2.290230274E0,2.609373093E0
1.717379896E1,1.000977516E1,1.459023595E0,5.208875656E0
1.719046490E1,1.185733318E1,7.749754190E-1,5.206183910E0
1.720713084E1,1.385593891E1,-5.117649436E-1,3.367000580E0
1.722379677E1,1.390947819E1,-1.783849239E0,5.231308341E-1
1.724046271E1,1.043450165E1,-3.003889799E0,-1.832303882E0
1.725712865E1,8.493324280E0,-4.906782150E0,-2.420041084E0
1.727379459E1,8.925527573E0,-8.187042236E0,-1.774577141E0
1.729046052E1,1.019820976E1,-1.206341553E1,-4.185944080E0
1.730712646E1,8.304590225E0,-1.281625748E1,-8.408378601E0
1.732379240E1,8.712266922E0,-1.013958549E1,-2.468794823E0
1.734045834E1,1.343480206E1,-1.218664551E1,8.181658745E0
1.735712427E1,1.358225918E1,-9.788738251E0,8.047660828E0
1.737379021E1,1.216630650E1,-6.724130630E0,5.365904808E0
1.739045615E1,1.052961636E1,-3.757329702E0,2.595913410E0
1.740712209E1,9.995717049E0,-1.817647934E0,-5.976074338E-1
1.742378802E1,1.007617569E1,-8.503493667E-1,-3.679563046E0
1.744045396E1,9.820143700E0,2.012962103E-1,-5.513661385E0
1.745711990E1,9.554840088E0,1.274776220E0,-5.891129494E0
1.747378584E1,9.227322578E0,2.850749016E0,-5.259424210E0
1.749045177E1,9.096015930E0,5.163412094E0,-3.823730469E0
1.750711771E1,9.076873779E0,8.002197266E0,-2.952144861E0
1.752378365E1,9.049057007E0,1.073509979E1,-3.081955671E0
1.754044959E1,8.363512993E0,1.317189026E1,-2.627917528E0
1.755711552E1,7.342974663E0,1.508555031E1,-9.481559694E-2
1.757378146E1,7.976474285E0,1.634597015E1,4.178167343E0
1.759044740E1,1.104317570E1,1.689542198E1,7.998009682E0
1.760711334E1,1.559731483E1,1.610608864E1,9.561420441E0
1.762377927E1,2.155903244E1,1.535205078E1,1.010070229E1
1.764044521E1,3.054767036E1,1.618744469E1,1.195125198E1
1.765711115E1,4.240081787E1,1.883600044E1,1.947757721E1
1.767377709E1,5.302554703E1,1.838196182E1,2.893520737E1
1.769044302E1,5.552873993E1,1.370638752E1,3.253102112E1
1.770710896E1,5.438287735E1,8.729615211E0,3.175873947E1
1.772377490E1,5.445346451E1,3.850051641E0,2.978525734E1
1.774044084E1,5.277759171E1,-1.220339537E0,2.707628441E1
1.775710677E1,4.830301285E1,-6.327819347E0,2.404906464E1
1.777377271E1,4.191297913E1,-1.117179012E1,2.188685036E1
1.779043865E1,3.422813034E1,-1.602293777E1,2.064347839E1
1.780710459E1,2.568455887E1,-2.067009926E1,1.983201408E1
1.782377052E1,1.818754578E1,-2.491765785E1,1.859851265E1
1.784043646E1,1.379432297E1,-3.006133080E1,1.456391525E1
1.785710240E1,1.097707367E1,-3.698585892E1,7.620242596E0
1.787376834E1,5.519942760E0,-4.396452713E1,4.396811724E-1
1.789043427E1,-1.838286042E0,-4.890510559E1,-4.891527653E0
1.790710021E1,-3.205784082E0,-5.139633560E1,-8.830113411E0
1.792376615E1,3.053839922E0,-5.070391083E1,-1.155314636E1
1.794043209E1,1.303071404E1,-4.650151825E1,-1.225633621E1
1.795709802E1,2.407388878E1,-4.089064789E1,-1.162582779E1
1.797376396E1,3.746232986E1,-3.497738266E1,-1.307976723E1
1.799042990E1,4.960261536E1,-2.795295334E1,-1.915813446E1
1.800709584E1,5.423721313E1,-2.049901199E1,-2.598126793E1
1.802376177E1,5.363093185E1,-1.251954746E1,-2.735983276E1
1.804042771E1,5.550989532E1,-3.664308786E0,-1.949043846E1
1.805709365E1,5.598277664E1,5.196612358E0,-8.666803360E0
1.807375959E1,4.924100113E1,1.247318649E1,-3.489034414E0
1.809042552E1,3.606671524E1,2.010748672E1,-6.851249218E0
1.810709146E1,2.200230408E1,2.995185852E1,-1.329512119E1
1.812375740E1,1.609651756E1,4.048297119E1,-1.462971783E1
1.814042334E1,1.939831352E1,4.861617279E1,-9.538688660E0
1.815708927E1,2.549702072E1,5.296991348E1,-2.889632463E0
1.817375521E1,2.963720131E1,5.140800095E1,-7.716853172E-2
1.819042115E1,3.126970482E1,4.705515671E1,2.928216755E-1
1.820708709E1,3.650609970E1,4.332504654E1,1.973480463E0
1.822375302E1,4.920002365E1,4.047100449E1,6.736692905E0
1.824041896E1,6.359105682E1,3.525854111E1,1.472004700E1
1.825708490E1,7.155885315E1,2.619901466E1,2.202084732E1
1.827375084E1,7.525517273E1,1.647039604E1,2.168136597E1
1.829041677E1,7.694001770E1,6.070291996E0,1.425883007E1
1.830708271E1,7.759654999E1,-4.657031059E0,1.053350449E1
1.832374865E1,7.371807861E1,-1.346022511E1,1.102493000E1
1.834041459E1,6.435346985E1,-1.965793610E1,1.006451130E1
1.835708052E1,5.278028488E1,-2.378316116E1,1.062772179E1
1.837374646E1,3.996671677E1,-2.794128990E1,1.558565044E1
1.839041240E1,2.831187820E1,-3.275445175E1,2.115973091E1
1.840707834E1,2.364168549E1,-3.880470276E1,2.259063911E1
1.842374427E1,2.329532433E1,-4.485136795E1,1.986551285E1
1.844041021E1,1.936541367E1,-4.996961594E1,1.439731503E1
1.845707615E1,1.069621658E1,-5.446393204E1,9.265906334E0
1.847374209E1,5.061418056E0,-5.919604111E1,5.735595703E0
1.849040802E1,8.950054169E0,-6.335147476E1,5.543870926E0
1.850707396E1,2.322922325E1,-6.501269531E1,4.400101662E0
1.852373990E1,4.290061951E1,-6.420541382E1,-1.022632599E0
1.854040584E1,6.093651962E1,-6.166034698E1,-5.299204826E0
1.855707177E1,7.035227966E1,-5.456323624E1,-5.753840923E0
1.857373771E1,7.469136047E1,-3.888396454E1,-3.114557743E0
1.859040365E1,7.668667603E1,-1.657538223E1,7.902296782E-1
1.860706959E1,7.760222626E1,4.760221481E0,1.376770377E0
1.862373552E1,7.696514130E1,1.883181381E1,1.473679662E0
1.864040146E1,6.689883423E1,2.834717178E1,7.850552082E0
1.865706740E1,5.214139938E1,3.568236923E1,1.120259762E1
1.867373334E1,3.033740234E1,4.458875275E1,8.635098934E-1
1.869039927E1,1.396570969E1,5.724080276E1,-1.095284653E1
1.870706521E1,8.311469078E0,6.789365387E1,-9.997811317E0
1.872373115E1,1.169492081E-1,7.030920410E1,-2.068295956E0
1.874039709E1,-4.432703972E0,6.583312988E1,7.608876705E0
1.875706302E1,4.526921272E0,5.920351791E1,1.723280907E1
1.877372896E1,2.141875458E1,5.374698257E1,2.555983162E1
1.879039490E1,3.885973740E1,5.197150803E1,3.183979607E1
1.880706084E1,5.792156219E1,5.295974350E1,3.044926643E1
1.882372677E1,6.900242615E1,5.036712265E1,1.533739471E1
1.884039271E1,7.405516815E1,4.105485535E1,-2.427219391E0
1.885705865E1,7.639983368E1,2.801785851E1,-7.645666599E0
1.887372459E1,7.705158234E1,1.492104340E1,-5.132305622E0
1.889039052E1,7.359903717E1,3.033800125E0,3.378067255E0
1.890705646E1,6.485925293E1,-1.186002541E1,1.026670456E1
1.892372240E1,5.100690460E1,-2.655165672E1,1.025145054E1
1.894038834E1,4.183461380E1,-3.999901962E1,1.157856941E1
1.895705427E1,3.559891891E1,-5.418457031E1,1.372074413E1
1.897372021E1,2.384507561E1,-6.563841248E1,1.224078369E1
1.899038615E1,1.125942707E1,-7.223303223E1,8.900403023E0
1.900705209E1,8.676673889E0,-7.492615509E1,7.705487251E0
1.902371802E1,2.192363930E1,-7.526922607E1,1.154118156E1
1.904038396E1,4.291287994E1,-7.293801880E1,1.486182117E1
1.905704990E1,6.047410583E1,-6.811379242E1,1.437548065E1
1.907371584E1,7.014948273E1,-6.302365875E1,1.367348576E1
1.909038177E1,7.459146118E1,-5.306772232E1,1.341506100E1
1.910704771E1,7.664211273E1,-3.423561096E1,1.401745415E1
1.912371365E1,7.758219147E1,-5.370092392E0,1.957628059E1
1.914037959E1,7.792137146E1,1.669861221E1,1.343928814E1
1.915704552E1,7.070910645E1,3.100739288E1,2.708076954E0
1.917371146E1,5.179055405E1,4.370042038E1,-9.164510965E-1
1.919037740E1,3.553580856E1,5.770560837E1,3.828516304E-1
1.920704334E1,2.213121605E1,6.844160461E1,3.333800077E0
1.922370927E1,1.273938751E1,7.302864838E1,6.859624386E0
1.924037521E1,6.569793701E0,6.769893646E1,8.519346237E0
1.925704115E1,1.955235243E0,5.424050522E1,1.128784180E1
1.927370709E1,2.502593279E0,4.162733841E1,1.577258968E1
1.929037302E1,1.109910774E1,3.570749283E1,2.125484467E1
1.930703896E1,2.615893555E1,3.626711655E1,2.512463760E1
1.932370490E1,4.486183548E1,3.995116425E1,2.675534630E1
1.934037084E1,6.192056656E1,4.426183319E1,2.545036125E1
1.935703677E1,7.079405212E1,4.485734940E1,1.894636917E1
1.937370271E1,7.490013123E1,3.669572830E1,1.244178009E1
1.939036865E1,7.677850342E1,2.234567261E1,1.165484047E1
1.940703459E1,7.764799500E1,8.299505234E0,8.645268440E0
1.942370052E1,7.554888916E1,-4.506582260E0,2.196012974E0
1.944036646E1,6.185715866E1,-1.803859329E1,2.925823927E0
1.945703240E1,4.395674896E1,-3.115574646E1,1.256919861E1
1.947369834E1,3.372563934E1,-4.497878265E1,1.698933983E1
1.949036427E1,2.555265427E1,-5.562475204E1,1.206879902E1
1.950703021E1,1.571037579E1,-6.268836594E1,7.527521133E0
1.952369615E1,9.367601395E0,-6.903831482E1,5.854339600E0
1.954036209E1,9.693922997E0,-7.292665100E1,4.857429981E0
1.955702802E1,2.384058952E1,-7.382785034E1,5.448457241E0
1.957369396E1,4.603312302E1,-6.954021454E1,8.409276009E0
1.959035990E1,6.270182419E1,-5.965217209E1,1.054487038E1
1.960702584E1,7.114788818E1,-4.460041809E1,8.571688652E0
1.962369177E1,7.506613922E1,-2.276322174E1,7.193423271E0
1.964035771E1,7.685387421E1,2.159821510E0,2.189343071E1
1.965702365E1,7.764111328E1,2.230828476E1,2.745883560E1
1.967368959E1,7.357241821E1,3.527319717E1,9.191430092E0
1.969035552E1,6.009304810E1,4.218247223E1,-1.878066659E0
1.970702146E1,4.227429581E1,4.300769806E1,3.432504177E0
1.972368740E1,2.569442940E1,4.202634048E1,4.826921463E0
1.974035334E1,1.247647667E1,4.147808456E1,-5.006981492E-1
1.975701927E1,3.529114246E0,4.019014740E1,-6.492326260E0
1.977368521E1,-1.366899967E0,3.733491135E1,-7.923233986E0
1.979035115E1,-5.165206909E0,3.174438095E1,-4.970191956E0
1.980701709E1,-9.298508644E0,2.506541634E1,1.657029688E-1
1.982368302E1,-1.063310528E1,2.016312027E1,3.180659533E0
1.984034896E1,-7.069893837E0,1.891616058E1,2.651845694E0
1.985701490E1,-1.295414329E0,2.179143524E1,-1.034297585E0
1.987368084E1,5.066203594E0,2.857987404E1,-4.441078663E0
1.989034677E1,1.674287987E1,3.663052368E1,5.617151260E-1
1.990701271E1,3.746232986E1,4.573790741E1,1.686850166E1
1.992367865E1,5.882844162E1,4.686433029E1,2.804088974E1
1.994034459E1,6.939544678E1,3.584896851E1,1.910429573E1
1.995701052E1,7.397650146E1,2.259572411E1,4.944169998E0
1.997367646E1,7.269454956E1,8.150253296E0,3.312862873E0
1.999034240E1,6.246792603E1,-5.793920994E0,7.747959614E0
2.000700834E1,4.831019211E1,-1.737458420E1,1.023769188E1
2.002367427E1,3.338077164E1,-2.569472694E1,9.622437477E0
2.004034021E1,2.250778770E1,-3.253221893E1,8.387142181E0
2.005700615E1,1.557817268E1,-3.989523315E1,6.287739754E0
2.007367209E1,8.301300049E0,-4.632056046E1,2.531008244E0
2.009033802E1,1.504188180E0,-4.976682281E1,4.121637046E-1
2.010700396E1,1.319940805E0,-5.090042114E1,2.295913219E0
2.012366990E1,7.568199158E0,-4.930201721E1,6.495615959E0
2.014033584E1,1.636391640E1,-4.580610275E1,9.302098274E0
2.015700177E1,2.456112862E1,-4.034747696E1,9.815059662E0
2.017366771E1,3.442554092E1,-3.335564804E1,7.947760582E0
2.019033365E1,4.666811752E1,-1.910908127E1,3.543471336E0
2.020699959E1,6.105705643E1,8.934201598E-1,-2.175973177E0
2.022366552E1,6.891987610E1,1.546241951E1,-5.399105072E0
2.024033146E1,6.688986206E1,2.653400993E1,1.397109270E0
2.025699740E1,6.303741837E1,3.399542999E1,1.048684406E1
2.027366334E1,5.104817963E1,3.498037338E1,8.653044701E0
2.029032927E1,3.280021286E1,3.110101128E1,1.333101273E0
2.030699521E1,1.881117439E1,2.625285339E1,2.662015148E-2
2.032366115E1,1.044736290E1,2.219103813E1,3.353241920E0
2.034032709E1,4.099503517E0,1.970369720E1,5.336293697E0
2.035699302E1,4.938187599E-1,1.693729591E1,4.418346882E0
2.037365896E1,-3.053839922E0,1.462194061E1,1.842772484E0
2.039032490E1,-5.636293888E0,1.481755447E1,-1.265205026E0
2.040699084E1,-4.073182583E0,1.734706688E1,-4.463810444E0
2.042365677E1,1.008574724E0,2.302044868E1,-7.387241840E0
2.044032271E1,5.628816128E0,3.235993576E1,-8.115856171E0
2.045698865E1,1.259611797E1,4.651288223E1,-3.789632797E0
2.047365459E1,2.694467926E1,4.997380066E1,-5.690431118E0
2.049032052E1,3.762085342E1,3.844279099E1,-1.521924973E1
2.050698646E1,3.993202209E1,2.038176346E1,-1.306840134E1
2.052365240E1,2.794876671E1,4.678566456E0,1.898405671E0
2.054031834E1,1.930110574E0,-1.593919039E0,9.626923561E0
2.055698427E1,-3.647558928E0,-1.585843205E0,9.388538361E0
2.057365021E1,1.737159348E1,4.944169819E-1,3.761218071E0
2.059031615E1,3.635385513E1,-3.074777126E-1,7.148557901E-2
2.060698209E1,4.345306015E1,-5.850152493E0,8.085646629E0
2.062364802E1,4.612644196E1,-1.152443218E1,1.540319729E1
2.064031396E1,3.956562042E1,-1.532573032E1,7.673183918E0
2.065697990E1,2.646611404E1,-1.856381798E1,-7.925028801E0
2.067364584E1,1.748166275E1,-2.084776688E1,-1.313300705E1
2.069031177E1,1.354218006E1,-2.028605080E1,-9.893125534E0
2.070697771E1,1.105603695E1,-1.814985847E1,-9.019744873E0
2.072364365E1,8.854042053E0,-1.509452343E1,-8.716454506E0
2.074030959E1,9.602696419E0,-1.154297638E1,-7.860123158E0
2.075697552E1,1.232513046E1,-6.227919102E0,-6.597609997E0
2.077364146E1,1.637169266E1,8.201399446E-1,-3.645465374E0
2.079030740E1,1.878575134E1,8.131110191E0,1.825424552E0
2.080697334E1,1.625564003E1,1.469282818E1,4.576572418E0
2.082363927E1,1.227488136E1,1.918086624E1,3.053839922E0
2.084030521E1,1.492074490E1,2.294567299E1,5.910272121E0
2.085697115E1,2.244018936E1,2.690250587E1,1.116820049E1
2.087363709E1,2.385016060E1,2.920200729E1,1.247228909E1
2.089030302E1,1.830449486E1,2.835345268E1,1.203589821E1
2.090696896E1,1.197458172E1,2.578625298E1,1.188275719E1
2.092363490E1,7.003193855E0,2.316850471E1,8.890831947E0
2.094030084E1,3.196810961E0,2.067249298E1,4.071985722E0
2.095696677E1,1.564307809E-1,1.849831390E1,1.167996526E0
2.097363271E1,-2.151446581E0,1.700309944E1,6.361917257E-1
2.099029865E1,-3.640978813E0,1.614287949E1,5.548357368E-1
2.100696459E1,-4.229313850E0,1.589462376E1,4.103690982E-1
2.102363052E1,-2.941975355E0,1.543460369E1,4.677968323E-1
2.104029646E1,-4.004986882E-1,1.379252911E1,9.891330600E-1
2.105696240E1,2.172084808E0,1.082154083E1,1.508076429E0
2.107362834E1,4.392324924E0,7.722536087E0,2.208874464E0
2.109029427E1,6.208178520E0,6.676872253E0,3.062813044E0
2.110696021E1,7.293323517E0,8.741280556E0,3.245564699E0
2.112362615E1,6.945765972E0,1.348086357E1,1.891227245E0
2.114029209E1,1.035314560E1,1.886531258E1,4.520041943E0
2.115695802E1,2.351636124E1,2.107658005E1,1.271426296E1
2.117362396E1,3.611487198E1,1.647667694E1,1.440239906E1
2.119028990E1,3.344567871E1,9.260522842E0,8.135597229E0
2.120695584E1,2.258046913E1,1.899602056E0,2.096411705E0
2.122362177E1,1.140269756E1,-3.103790045E0,4.241278172E-1
2.124028771E1,4.408177376E0,-5.331208706E0,-2.153540403E-2
2.125695365E1,2.524727106E0,-6.404389858E0,-1.049850941E0
2.127361959E1,2.294716835E0,-7.028617382E0,-2.111965179E0
2.129028552E1,1.310070395E0,-7.344171047E0,-2.407777786E0
2.130695146E1,2.895315289E-1,-7.761120319E0,-2.164607286E0
2.132361740E1,-5.324030295E-2,-8.210073471E0,-1.715055585E0
2.134028334E1,3.394817114E-1,-8.169993401E0,-1.759023786E0
2.135694927E1,1.997408748E0,-7.599305630E0,-2.910569668E0
2.137361521E1,5.522933960E0,-6.548856258E0,-4.931607246E0
2.139028115E1,9.860223770E0,-4.781457901E0,-6.669394970E0
2.140694709E1,1.405693531E1,-2.085045815E0,-6.457031727E0
2.142361302E1,1.737787437E1,2.008774519E0,-4.634897232E0
2.144027896E1,1.948355865E1,9.374481201E0,-2.910270393E-1
2.145694490E1,2.441217422E1,1.833380699E1,5.027021408E0
2.147361084E1,3.167648506E1,2.509891510E1,6.852146626E0
2.149027677E1,3.361108398E1,2.659143829E1,5.152644634E0
2.150694271E1,2.446810722E1,2.254517555E1,1.397408366E0
2.152360865E1,1.083350468E1,1.651825333E1,-1.285244823E0
2.154027459E1,7.112665176E-1,1.191386414E1,-2.373979092E0
2.155694052E1,-3.480659723E0,8.970393181E0,-3.452843189E0
2.157360646E1,-3.737289906E0,6.932306290E0,-4.102195263E0
2.159027240E1,-2.427219391E0,5.144867897E0,-3.558725595E0
2.160693834E1,-1.301396370E0,3.735794306E0,-2.092224360E0
2.162360427E1,-1.717448473E0,3.018844843E0,-5.946164131E-1
2.164027021E1,-3.024827003E0,2.799004316E0,7.851449251E-1
2.165693615E1,-4.146462440E0,3.075076103E0,2.192722797E0
2.167360209E1,-4.423132420E0,3.623032570E0,3.036491871E0
2.169026802E1,-3.835395575E0,4.362414837E0,3.241975546E0
2.170693396E1,-2.943171740E0,5.161318302E0,3.171686411E0
2.172359990E1,-2.059023857E0,6.030810356E0,2.997010469E0
2.174026584E1,-7.710871100E-1,7.173682213E0,2.940778971E0
2.175693177E1,1.110568762E0,8.633603096E0,2.418545485E0
2.177359771E1,1.792822361E0,1.057567787E1,8.081758618E-1
2.179026365E1,4.486542344E-1,1.350180054E1,3.619144112E-2
2.180692959E1,5.498108387E0,1.595863152E1,3.664906979E0
2.182359552E1,1.868973923E1,1.725673866E1,7.791927814E0
2.184026146E1,2.925764084E1,1.636780357E1,7.855337620E0
2.185692740E1,2.922982407E1,1.346830177E1,5.740381718E0
2.187359334E1,2.228645134E1,9.641879082E0,3.689134359E0
2.189025927E1,1.467906952E1,5.777171135E0,1.996212244E0
2.190692521E1,9.616754532E0,2.759522676E0,7.121638656E-1
2.192359115E1,7.130013466E0,4.606183469E-1,-1.098903775E0
2.194025709E1,5.702096462E0,-1.378864050E0,-3.786941051E0
2.195692302E1,4.236193180E0,-2.745165825E0,-6.341578007E0
2.197358896E1,3.082254648E0,-3.585345745E0,-7.718647480E0
2.199025490E1,1.784148335E0,-3.860819340E0,-8.365607262E0
2.200692084E1,1.292124242E-1,-2.619841576E0,-8.469993591E0
2.202358677E1,-4.001995921E-1,8.356932998E-1,-6.920641422E0
2.204025271E1,4.014857292E0,6.688537598E0,-6.613163352E-1
2.205691865E1,1.499223042E1,1.400339603E1,7.858029366E0
2.207358459E1,2.506511688E1,1.843221283E1,9.944570541E0
2.209025052E1,2.663779831E1,1.846242142E1,5.565705299E0
2.210691646E1,2.133799553E1,1.569721603E1,2.006980032E-1
2.212358240E1,1.394447327E1,1.175683498E1,-2.583351135E0
2.214024834E1,7.597211838E0,8.628817558E0,-2.349153519E0
2.215691427E1,4.121337891E0,6.523731709E0,-1.319342613E0
2.217358021E1,3.288934708E0,5.040780067E0,-7.304090858E-1
2.219024615E1,3.278167009E0,3.766602039E0,-6.523432732E-1
2.220691209E1,2.634497643E0,2.693720102E0,-1.101894855E0
2.222357802E1,1.182652593E0,1.917548299E0,-1.832902193E0
2.224024396E1,-4.594219327E-1,1.658525229E0,-2.300698996E0
2.225690990E1,-2.115554333E0,2.010270119E0,-2.347358942E0
2.227357584E1,-3.911367655E0,3.121138096E0,-2.085045815E0
2.229024177E1,-5.711966991E0,4.976472855E0,-1.395613790E0
2.230690771E1,-4.962415218E0,8.446963310E0,1.460219979E0
2.232357365E1,3.543172121E0,1.261436272E1,6.426224232E0
2.234023959E1,1.656401634E1,1.623889160E1,9.021839142E0
2.235690552E1,2.446810722E1,1.770389748E1,6.802794933E0
2.237357146E1,2.347359085E1,1.649193192E1,4.165306091E0
2.239023740E1,1.858086586E1,1.319402409E1,3.705285788E0
2.240690334E1,1.368186092E1,8.889336586E0,4.332504272E0
2.242356927E1,9.640981674E0,5.396114349E0,4.463511467E0
2.244023521E1,6.924828529E0,3.247658491E0,3.535395384E0
2.245690115E1,5.880361557E0,1.954637051E0,2.101795673E0
2.247356709E1,5.886642933E0,1.342672586E0,3.451646566E-1
2.249023302E1,6.093322754E0,1.041476011E0,-1.982154489E0
2.250689896E1,5.702096462E0,8.841479421E-1,-4.679164886E0
2.252356490E1,5.189135075E0,1.423729420E0,-5.723332882E0
2.254023084E1,6.778866768E0,3.116651535E0,-3.307479143E0
2.255689677E1,1.036241722E1,5.527719498E0,8.796614408E-1
2.257356271E1,1.366152191E1,7.378866673E0,3.791427374E0
2.259022865E1,1.519831181E1,8.184649467E0,4.428815842E0
2.260689459E1,1.454566956E1,8.188239098E0,3.786043644E0
2.262356052E1,1.279711437E1,7.688138962E0,2.643470764E0
2.264022646E1,1.087328529E1,6.886842728E0,1.335494161E0
2.265689240E1,9.160323143E0,6.096014977E0,9.511470050E-2
2.267355834E1,7.675277710E0,5.435595512E0,-6.586244106E-1
2.269022427E1,6.710970402E0,4.950151920E0,-6.281159520E-1
2.270689021E1,6.276373863E0,4.645665169E0,-5.503492057E-2
2.272355615E1,6.131608009E0,4.401298046E0,3.996013701E-1
2.274022209E1,6.047261238E0,4.150949001E0,4.151547253E-1
2.275688802E1,5.918048382E0,3.934398651E0,1.459621787E-1
2.277355396E1,5.816652775E0,3.681357622E0,-9.990034252E-2
2.279021990E1,5.702993870E0,3.399303675E0,-7.776673418E-3
2.280688584E1,5.674279690E0,3.178266764E0,4.298107624E-1
2.282355177E1,5.707480431E0,3.134298563E0,1.068993568E0
2.284021771E1,5.675775528E0,3.148057222E0,1.689631939E0
2.285688365E1,5.635097504E0,3.218944550E0,2.345564365E0
2.287354959E1,5.674878120E0,3.359523058E0,3.150151014E0
2.289021552E1,5.831906796E0,3.499802113E0,3.918546200E0
2.290688146E1,6.218945980E0,3.733401537E0,4.725824833E0
2.292354740E1,7.208677292E0,4.178167343E0,5.700002670E0
2.294021334E1,8.875876427E0,4.718945503E0,7.032804966E0
2.295687927E1,1.088853931E1,5.133502007E0,8.239086151E0
2.297354521E1,1.277707481E1,5.171787262E0,8.753244400E0
2.299021115E1,1.360170078E1,4.761118889E0,8.461917877E0
2.300687709E1,1.273729420E1,4.278666019E0,8.081160545E0
2.302354302E1,1.075005436E1,4.039383888E0,7.854739666E0
2.304020896E1,8.939286232E0,3.907180309E0,7.804789066E0
2.305687490E1,8.068897247E0,3.688236952E0,7.946863174E0
2.307354084E1,7.978867054E0,3.424727440E0,7.742575645E0
2.309020677E1,8.304590225E0,3.005983353E0,7.267301559E0
2.310687271E1,8.390133858E0,2.595614433E0,6.578467846E0
2.312353865E1,7.772187233E0,2.390130758E0,5.964409351E0
2.314020459E1,6.735795975E0,2.349751949E0,5.589633465E0
2.315687052E1,5.860321522E0,2.319243431E0,5.209474087E0
2.317353646E1,5.449653625E0,2.313261271E0,5.019543648E0
2.319020240E1,5.520840168E0,2.348854542E0,5.179563522E0
2.320686834E1,6.014060497E0,2.044068813E0,5.309673309E0
2.322353427E1,6.502794743E0,1.537388563E0,5.465207100E0
2.324020021E1,6.439384937E0,1.337587833E0,5.731707573E0
2.325686615E1,6.132206440E0,1.179960608E0,6.101099491E0
2.327353209E1,6.057729721E0,9.442676306E-1,6.657430649E0
2.329019802E1,6.225227356E0,7.920243144E-1,7.537690639E0
2.330686396E1,6.578467846E0,7.049853802E-1,8.397312164E0
2.332352990E1,6.888338089E0,6.978068948E-1,8.822037697E0
2.334019584E1,6.933502674E0,8.374879360E-1,9.023334503E0
2.335686177E1,6.825227261E0,1.106381416E0,8.896215439E0
2.337352771E1,6.657730103E0,1.342672586E0,8.805587769E0
2.339019365E1,6.580262184E0,1.535593987E0,9.134600639E0
2.340685959E1,7.103094101E0,1.919342875E0,9.727422714E0
2.342352552E1,8.297112465E0,2.362015009E0,9.848857880E0
2.344019146E1,9.591031075E0,2.577668190E0,9.557532310E0
2.345685740E1,1.029302597E1,2.675474882E0,8.764909744E0
2.347352334E1,1.007079220E1,2.768495798E0,7.879864216E0
2.349018927E1,9.438488960E0,2.778067112E0,7.842775345E0
2.350685521E1,9.320941925E0,2.677867651E0,8.430512428E0
2.352352115E1,9.989735603E0,2.485843658E0,9.846764565E0
2.354018709E1,1.052064323E1,2.293221474E0,1.134616661E1
2.355685302E1,1.033759212E1,1.901097536E0,1.196441269E1
2.357351896E1,9.793823242E0,1.268195987E0,1.117866898E1
2.359018490E1,8.979964256E0,7.459624410E-1,9.382855415E0
2.360685084E1,7.752745152E0,4.731806815E-1,7.642077446E0
2.362351677E1,6.457331181E0,2.578266263E-1,6.559025764E0
2.364018271E1,4.910071850E0,1.004686356E0,5.986244202E0
2.365684865E1,2.739482880E0,4.195814610E0,6.185446739E0
2.367351459E1,3.513561010E0,2.861217737E0,6.542874336E0
2.369018052E1,4.648955345E0,3.723830283E-1,6.096313953E0
2.370684646E1,4.601696968E0,-9.535398483E-1,5.557031631E0
2.372351240E1,3.817449331E0,-7.112665176E-1,5.779264927E0
2.374017834E1,2.691028118E0,4.495515525E-1,5.922235966E0
2.375684427E1,1.965404749E0,1.253839016E0,5.824130535E0
2.377351021E1,1.493121386E0,1.871785522E0,5.826822281E0
2.379017615E1,1.215254784E0,2.486441851E0,5.933900833E0
2.380684209E1,1.172483087E0,2.808575630E0,5.662315845E0
2.382350802E1,1.373480201E0,2.873181820E0,5.253442287E0
2.384017396E1,1.590628862E0,3.317947626E0,5.276772022E0
2.385683990E1,1.575075507E0,3.802494287E0,5.681458473E0
2.387350584E1,1.479960799E0,4.007379532E0,6.214160442E0
2.389017177E1,1.411765337E0,4.398606300E0,6.652944088E0
2.390683771E1,1.380957723E0,4.831408024E0,7.101000309E0
2.392350365E1,1.278365493E0,5.022833824E0,7.770691395E0
2.394016959E1,1.127019525E0,5.101198673E0,8.407780647E0
2.395683552E1,1.088734269E0,5.217848778E0,8.860622406E0
2.397350146E1,1.186840057E0,5.278267860E0,9.351449966E0
2.399016740E1,1.251446247E0,5.309673309E0,1.002084255E1
2.400683334E1,1.366002679E0,5.442475319E0,1.037079239E1
2.402349927E1,1.506880045E0,5.546562672E0,1.018355370E1
2.404016521E1,1.633699656E0,5.426323414E0,9.823433876E0
2.405683115E1,1.666600943E0,5.268995285E0,9.523433685E0
2.407349709E1,1.807777524E0,4.777868748E0,9.593723297E0
2.409016302E1,1.493719578E0,4.516751766E0,9.741479874E0
2.410682896E1,9.798609018E-1,4.174877167E0,9.597312927E0
2.412349490E1,5.650052428E-1,3.811168194E0,9.640383720E0
2.414016084E1,-5.623133108E-2,3.881457329E0,9.950552940E0
2.415682677E1,1.217348501E-1,3.347259760E0,9.813264847E0
2.417349271E1,8.165507317E-1,2.615355253E0,9.372088432E0
2.419015865E1,6.272186637E-1,2.836392164E0,8.966505051E0
2.420682459E1,-6.580262445E-3,3.106182814E0,8.302197456E0
2.422349052E1,8.434699476E-2,3.072384357E0,7.694719315E0
2.424015646E1,8.991031051E-1,2.706282377E0,7.875377655E0
2.425682240E1,1.817647934E0,3.041576624E0,7.993822098E0
2.427348834E1,2.155035973E0,3.393919706E0,7.303194046E0
2.429015427E1,2.310569286E0,3.855435371E0,7.048058987E0
2.430682021E1,1.629512191E0,3.689134359E0,7.524529934E0
2.432348615E1,1.040279627E0,2.819941521E0,8.854341507E0
2.434015209E1,1.424925923E0,2.370688915E0,1.072552872E1
2.435681802E1,1.736590981E0,2.765504837E0,1.076500988E1
2.437348396E1,1.076471090E0,3.160918713E0,9.904191971E0
2.439014990E1,-1.345962752E-2,3.151945591E0,9.444171906E0
2.440681584E1,-8.096713424E-1,3.107080221E0,9.416355133E0
2.442348177E1,-1.518245935E0,3.290729284E0,9.227023125E0
2.444014771E1,-1.763809443E0,3.713361740E0,8.470293045E0
2.445681365E1,-1.461416483E0,3.632603884E0,8.387142181E0
2.447347959E1,-7.923234105E-1,3.803391695E0,8.428717613E0
2.449014552E1,-1.354935765E-1,3.997210264E0,9.006883621E0
2.450681146E1,5.276173949E-1,4.156631947E0,9.712467194E0
2.452347740E1,9.711868763E-1,4.358526230E0,1.008066273E1
2.454014334E1,8.231309652E-1,4.641178608E0,1.005793095E1
2.455680927E1,4.235295951E-1,4.763212681E0,9.585049629E0
2.457347521E1,1.734796464E-1,4.793421745E0,8.982057571E0
2.459014115E1,2.356930375E-1,5.048556805E0,8.901000977E0
2.460680709E1,7.471588850E-1,5.221138954E0,9.313164711E0
2.462347302E1,1.048355460E0,4.904688358E0,9.852447510E0
2.464013896E1,1.347757339E0,4.810770035E0,9.914959908E0
2.465680490E1,1.521237016E0,5.029115200E0,9.800403595E0
2.467347084E1,1.813460469E0,5.137988567E0,9.962816238E0
2.469013677E1,2.191227436E0,5.181657314E0,1.021286583E1
2.470680271E1,2.337189436E0,5.311767101E0,9.895218849E0
2.472346865E1,2.439183474E0,5.536692619E0,9.151051521E0
2.474013459E1,2.596511602E0,5.696114540E0,9.045766830E0
2.475680052E1,2.740081072E0,5.464010715E0,9.574581146E0
2.477346646E1,2.982952595E0,5.061418056E0,1.025952625E1
2.479013240E1,4.045365810E0,4.489234447E0,1.073151016E1
2.480679834E1,5.780760288E0,4.441078663E0,1.102463150E1
2.482346427E1,5.042275429E0,4.947160721E0,9.652048111E0
2.484013021E1,3.726222992E0,4.781756878E0,8.059026718E0
2.485679615E1,2.251047850E0,4.653441906E0,7.531110287E0
2.487346209E1,1.342971683E0,4.314857483E0,7.635796070E0
2.489012802E1,9.122636318E-1,3.928117514E0,7.810771465E0
2.490679396E1,1.039980531E0,3.702294827E0,7.778767109E0
2.492345990E1,1.423729420E0,3.777668715E0,7.732107162E0
2.494012584E1,1.601097465E0,4.022634029E0,7.691429138E0
2.495679177E1,1.835594058E0,4.262215137E0,7.843672752E0
2.497345771E1,2.167000055E0,4.460520744E0,8.383553505E0
2.499012365E1,2.316551447E0,4.644468784E0,8.965008736E0
2.500678959E1,2.261217356E0,4.692325115E0,8.923134804E0
2.502345552E1,2.255235434E0,4.795814991E0,8.324929237E0
2.504012146E1,2.248655081E0,5.004887581E0,7.550551891E0
2.505678740E1,2.238784790E0,5.126024246E0,6.945466995E0
2.507345334E1,2.256132603E0,5.221138954E0,6.550352097E0
2.509011927E1,2.204686880E0,5.221437931E0,6.290730953E0
2.510678521E1,2.257328987E0,5.161916733E0,6.348756790E0
2.512345115E1,2.328515530E0,5.114957333E0,6.709175587E0
2.514011709E1,2.239382982E0,5.042574406E0,7.125227451E0
2.515678302E1,2.164009094E0,5.000699997E0,7.624729156E0
2.517344896E1,2.124826431E0,4.957928658E0,8.142476082E0
2.519011490E1,2.111665964E0,4.926522732E0,8.542376518E0
2.520678084E1,2.099701881E0,4.963013172E0,8.542975426E0
2.522344677E1,2.105085611E0,5.131408215E0,8.135895729E0
2.524011271E1,2.181656122E0,5.370092392E0,7.657032490E0
2.525677865E1,2.207378864E0,5.674878120E0,7.417450905E0
2.527344459E1,2.162214279E0,5.940481186E0,7.543672562E0
2.529011052E1,2.240878344E0,6.150451660E0,7.693522930E0
2.530677646E1,2.335694075E0,6.304489613E0,7.753642559E0
2.532344240E1,2.313560486E0,6.356234074E0,7.863712311E0
2.534010834E1,2.132902384E0,6.268298149E0,8.187042236E0
2.535677427E1,1.891825438E0,6.065805435E0,8.536395073E0
2.537344021E1,1.728515267E0,5.898906231E0,8.790931702E0
2.539010615E1,1.638186216E0,5.829514027E0,8.869894028E0
2.540677209E1,1.694118381E0,5.840879917E0,9.125627518E0
2.542343802E1,1.975574136E0,5.781657696E0,9.760921478E0
2.544010396E1,2.075175524E0,5.573482037E0,1.049073315E1
2.545676990E1,1.731506228E0,5.214259624E0,1.073210907E1
2.547343584E1,1.220937729E0,4.977968216E0,1.001216793E1
2.549010177E1,9.565308690E-1,5.134399414E0,7.852645874E0
2.550676771E1,1.228116274E0,5.114957333E0,8.112266541E0
2.552343365E1,1.400997639E0,5.132903576E0,9.061020851E0
2.554009959E1,1.370788217E0,4.939683437E0,9.794421196E0
2.555676552E1,1.362712502E0,4.914857864E0,1.019491959E1
