"Time (s)","Gyroscope x (rad/s)","Gyroscope y (rad/s)","Gyroscope z (rad/s)"
2.454927300E-2,6.902772188E-2,-2.078467458E-1,2.215912044E-1
4.121521100E-2,3.520871997E-1,1.153007243E-2,2.774853408E-1
5.788114800E-2,4.734965563E-1,1.950185746E-1,2.680932879E-1
7.454708600E-2,3.501018882E-1,2.550360560E-1,1.754709035E-1
9.121302300E-2,1.324049383E-1,1.778380126E-1,6.543888897E-2
1.078789610E-1,-2.809977904E-2,2.947422490E-2,-3.107774630E-2
1.245448980E-1,-1.724165827E-1,-9.399681538E-2,-5.291616172E-2
1.412108360E-1,-1.962403059E-1,-1.461493969E-1,2.023489587E-2
1.578767730E-1,-1.246927753E-1,-1.362992078E-1,1.004109010E-1
1.745427110E-1,-7.597630471E-2,-9.987638891E-2,1.356119812E-1
1.912086480E-1,-8.071050793E-2,-6.436987966E-2,1.111773923E-1
2.078745860E-1,-1.591302752E-1,-1.020144150E-1,5.520690605E-2
2.245405230E-1,-2.645808160E-1,-2.022725940E-1,8.552107029E-3
2.412064610E-1,-2.989419401E-1,-2.688568532E-1,1.374445762E-2
2.578723980E-1,-2.603047490E-1,-2.251800299E-1,4.001164436E-2
2.745383360E-1,-2.367101014E-1,-1.459966749E-1,2.336557768E-2
2.912042730E-1,-2.918406427E-1,-1.395062506E-1,-2.504545636E-2
3.078702110E-1,-4.675406218E-1,-2.561050653E-1,-1.366046369E-1
3.245361480E-1,-6.990583539E-1,-4.499019086E-1,-2.322813272E-1
3.412020860E-1,-8.635337353E-1,-6.672934294E-1,-3.016908467E-1
3.578680230E-1,-8.691841960E-1,-8.462004066E-1,-3.489564955E-1
3.745339610E-1,-7.660244107E-1,-8.623120189E-1,-3.852266073E-1
3.911998980E-1,-6.579777002E-1,-7.023417950E-1,-3.367392123E-1
4.078658360E-1,-6.208676696E-1,-5.501601100E-1,-2.734383345E-1
4.245317730E-1,-7.323505282E-1,-6.217076182E-1,-2.730565667E-1
4.411977110E-1,-7.943533063E-1,-8.407790065E-1,-2.564868629E-1
4.578636480E-1,-7.870228887E-1,-8.566614985E-1,-2.480874658E-1
4.745295860E-1,-8.741474748E-1,-6.270527244E-1,-2.416733801E-1
4.911955230E-1,-9.187406301E-1,-3.185659945E-1,-1.882990748E-1
5.078614610E-1,-8.045852780E-1,-9.651663154E-2,-1.437059343E-1
5.245273980E-1,-5.958985686E-1,-1.309541315E-1,-1.020144150E-1
5.411933360E-1,-3.812559843E-1,-4.326449931E-1,-1.658497900E-1
5.578592730E-1,-2.317468226E-1,-7.490729094E-1,-3.527744114E-1
5.745252110E-1,-2.415970266E-1,-1.033964992E0,-5.091558099E-1
5.911911480E-1,-3.482692838E-1,-8.186351657E-1,-4.264599681E-1
6.078570860E-1,-5.693259835E-1,2.145662531E-2,-5.994110554E-2
6.245230230E-1,-7.475457788E-1,5.820778012E-1,2.205221802E-1
6.411889610E-1,-8.539125919E-1,8.791107535E-1,3.540725112E-1
6.578548980E-1,-8.373429179E-1,6.873756051E-1,3.633118272E-1
6.745208360E-1,-6.683624387E-1,3.474293351E-1,1.854738146E-1
6.911867730E-1,-3.275762498E-1,1.382845193E-1,-2.947422490E-2
7.078527110E-1,-6.711876392E-2,3.069595434E-2,-3.688096255E-2
7.245186480E-1,-7.498364896E-2,-5.726857483E-2,2.560287118E-1
7.411845860E-1,-6.643154472E-2,-7.154753804E-2,4.634936452E-1
7.578505230E-1,-8.628465235E-3,1.169806048E-1,5.477929711E-1
7.745164610E-1,9.315688163E-2,2.625191510E-1,6.935606003E-1
7.911823980E-1,2.153298408E-1,2.302960157E-1,7.875574231E-1
8.078483360E-1,3.198640645E-1,1.280525327E-1,5.555815101E-1
8.245142730E-1,4.515817761E-1,-8.132137358E-2,3.738492429E-1
8.411802110E-1,4.991528690E-1,-6.032289565E-2,7.353284955E-1
8.578461480E-1,1.746309698E-1,-4.468475878E-1,7.320450544E-1
8.745120860E-1,5.566505343E-2,-5.158752799E-1,6.856957078E-1
8.911780230E-1,1.004109010E-1,-4.107302129E-1,5.978075266E-1
9.078439610E-1,7.887791097E-2,6.719512399E-3,3.326158822E-1
9.245098980E-1,1.895971596E-1,6.017781496E-1,2.655734718E-1
9.411758360E-1,4.337140024E-1,8.111520410E-1,3.296379149E-1
9.578417730E-1,5.681806207E-1,7.589231133E-1,2.323576957E-1
9.745077110E-1,6.576722860E-1,3.187950552E-1,1.678351015E-1
9.911736480E-1,5.936841965E-1,-4.231002033E-1,1.093447953E-1
1.007839586E0,4.841867089E-1,-5.415316224E-1,-3.970621154E-3
1.024505523E0,3.969857395E-1,-3.779725730E-2,-1.636354029E-1
1.041171461E0,2.612210512E-1,4.094321132E-1,-1.779143661E-1
1.057837398E0,1.369864196E-1,1.910479665E-1,-1.403461844E-1
1.074503336E0,-4.795288667E-2,-4.608974755E-1,-1.275180280E-1
1.091169273E0,-1.807396114E-1,-1.249371171E0,-1.989128441E-1
1.107835211E0,-1.672242284E-1,-1.509065032E0,-2.184605151E-1
1.124501148E0,-1.122464053E-2,-8.397863507E-1,-1.484401375E-1
1.141167086E0,3.777435124E-1,-2.862665057E-1,-1.312595755E-1
1.157833023E0,6.343067288E-1,1.062904745E-1,-2.228129357E-1
1.174498961E0,6.048324704E-1,2.315941155E-1,-3.217730224E-1
1.191164898E0,5.484802127E-1,2.938259542E-1,-4.077522457E-1
1.207830836E0,6.303361058E-1,2.197586000E-1,-3.882045746E-1
1.224496773E0,7.099012136E-1,-2.443459071E-2,-2.218966335E-1
1.241162711E0,7.761800885E-1,-3.546833694E-1,4.245510325E-2
1.257828648E0,8.645263910E-1,-3.946950138E-1,1.853974611E-1
1.274494586E0,7.628937364E-1,-2.903898358E-1,1.387426704E-1
1.291160523E0,6.041452885E-1,-1.905134469E-1,-6.116283685E-2
1.307826461E0,4.222602844E-1,-4.618901312E-1,-9.613484144E-2
1.324492398E0,8.124501258E-2,-6.337721944E-1,-2.419788092E-1
1.341158336E0,-1.775325835E-1,-8.605557680E-2,-2.144898921E-1
1.357824273E0,-4.011854529E-1,4.566214234E-2,-3.871355578E-2
1.374490211E0,-6.650790572E-1,1.840230078E-2,-1.282052398E-1
1.391156148E0,-1.028772593E0,8.552107215E-2,-3.807978332E-1
1.407822086E0,-1.041906238E0,-9.051488638E-1,-3.491092324E-1
1.424488023E0,-7.334195375E-1,-1.924911261E0,-8.552107215E-2
1.441153961E0,-4.060723484E-1,-2.222020626E0,2.794706449E-2
1.457819898E0,-1.108719558E-1,-2.423453331E0,-3.488801420E-1
1.474485836E0,-4.657844082E-3,-2.001193047E0,-5.987238288E-1
1.491151773E0,-2.119700760E-1,-1.945527911E0,-5.739838481E-1
1.507817711E0,-7.637336850E-1,-2.006767273E0,-1.582903415E-1
1.524483648E0,-7.234166265E-1,-2.290361166E0,1.603520066E-1
1.541149586E0,-9.315688163E-3,-1.667355418E0,1.380554438E-1
1.557815523E0,5.326740742E-1,-8.181769848E-1,4.337139800E-2
1.574481461E0,5.015199780E-1,-5.752055645E-1,-9.705114365E-2
1.591147398E0,3.562105298E-1,-6.417897940E-1,-9.651663154E-2
1.607813336E0,2.701549530E-1,-7.389936447E-1,-3.100138716E-2
1.624479273E0,1.947131455E-1,-8.135955334E-1,9.392046183E-2
1.641145211E0,1.015562713E-1,-7.970257998E-1,1.077412739E-1
1.657811148E0,-2.947422490E-2,-6.320923567E-1,4.757109284E-2
1.674477086E0,-1.865428388E-1,-4.428769648E-1,-3.054323897E-4
1.691143023E0,-2.233474404E-1,-3.208567202E-1,-1.313359290E-2
1.707808961E0,-1.524871141E-1,-2.390772104E-1,-3.741546767E-3
1.724474898E0,-1.134681329E-1,-1.873064190E-1,6.398808211E-2
1.741140836E0,-8.987347782E-2,-1.271362305E-1,1.320231557E-1
1.757806773E0,1.061377581E-2,-4.581485689E-2,1.248454899E-1
1.774472711E0,1.330158114E-1,-6.559160352E-2,4.276053514E-3
1.791138648E0,1.320231557E-1,-1.001054645E-1,-2.147189677E-1
1.807804586E0,-4.337139800E-2,-6.856957078E-2,-3.041343093E-1
1.824470523E0,-2.264017612E-1,-1.183550525E-2,-2.254091054E-1
1.841136461E0,-2.232710719E-1,-1.343902480E-2,-9.521854669E-2
1.857802398E0,-1.118646115E-1,-7.506000996E-2,-1.939495653E-2
1.874468336E0,-1.679878100E-3,-2.018144578E-1,-3.130682046E-3
1.891134273E0,6.268999726E-2,-3.077994883E-1,-4.069886729E-2
1.907800211E0,1.427896414E-2,-2.702313066E-1,-7.490729541E-2
1.924466148E0,-1.014035568E-1,-1.860846877E-1,-8.399390429E-2
1.941132086E0,-1.748600453E-1,-8.368847519E-2,-4.650207981E-2
1.957798023E0,-1.660788655E-1,-3.955349326E-2,-1.756236330E-2
1.974463961E0,-6.887500733E-2,-1.023198515E-1,-2.107483521E-2
1.991129898E0,9.437860548E-2,-2.328922004E-1,-5.696314201E-2
2.007795836E0,2.123518735E-1,-3.236056268E-1,-1.014799103E-1
2.024461773E0,2.480874658E-1,-3.439168632E-1,-9.323323518E-2
2.041127711E0,2.169333547E-1,-2.622137070E-1,-3.787361458E-2
2.057793648E0,1.334739476E-1,-9.720385820E-2,-1.649334840E-2
2.074459586E0,4.161516204E-2,2.787070535E-2,-3.359756246E-2
2.091125523E0,9.315688163E-3,1.076649129E-2,-4.474584386E-2
2.107791461E0,1.122464016E-1,-1.283579618E-1,-5.329795182E-2
2.124457398E0,2.603047490E-1,-2.677114904E-1,-3.115410358E-2
2.141123336E0,3.627009690E-1,-3.158170879E-1,2.214384824E-2
2.157789273E0,3.824013472E-1,-2.694677114E-1,5.726857483E-2
2.174455211E0,3.149007857E-1,-1.844048053E-1,5.444332212E-2
2.191121148E0,2.121991515E-1,-1.227838174E-1,2.725984156E-2
2.207787086E0,1.629481763E-1,-1.379790753E-1,-3.054323839E-3
2.224453023E0,1.445458829E-1,-1.415679157E-1,-4.268417507E-2
2.241118961E0,5.833758786E-2,-8.002328873E-2,-6.818778068E-2
2.257784898E0,-3.497200832E-2,4.581485875E-3,-7.070759684E-2
2.274450836E0,-3.016144782E-2,7.238747925E-2,-3.764454275E-2
2.291116773E0,2.160934173E-2,7.964149863E-2,-1.435532235E-2
2.307782711E0,7.124210149E-2,2.443459071E-2,-3.336848691E-2
2.324448648E0,7.933606207E-2,-2.519817278E-2,-8.445205539E-2
2.341114586E0,2.909243479E-2,-2.122755162E-2,-9.376774728E-2
2.357780523E0,-3.741546767E-3,1.320995111E-2,-5.268708616E-2
2.374446461E0,1.259908639E-2,5.360338464E-2,8.552107029E-3
2.391112398E0,6.368265301E-2,7.544180006E-2,2.038761228E-2
2.407778336E0,8.697187155E-2,9.964732081E-2,-1.000291109E-2
2.424444273E0,8.926261961E-2,9.903645515E-2,-1.718057133E-2
2.441110211E0,7.261654735E-2,8.315397054E-2,4.352411721E-3
2.457776148E0,5.986474827E-2,6.253728271E-2,1.382081583E-2
2.474442086E0,7.765618712E-2,3.924806044E-2,1.840230078E-2
2.491108023E0,7.483093441E-2,3.436114267E-2,2.603811212E-2
2.507773961E0,4.100430012E-2,4.329504073E-2,1.221729559E-3
2.524439898E0,2.741255611E-2,6.895136088E-2,-6.261363626E-2
2.541105836E0,7.483093534E-3,1.296560466E-1,-8.429934084E-2
2.557771773E0,-1.298087649E-2,1.546251476E-1,-4.970912263E-2
2.574437711E0,2.817613818E-2,1.001818255E-1,-9.773836471E-3
2.591103648E0,1.130863428E-1,8.704823442E-3,1.221729559E-3
2.607769586E0,1.568395346E-1,-4.871646687E-2,-9.544761851E-3
2.624435523E0,1.145371497E-1,-3.649916872E-2,-2.901607752E-2
2.641101461E0,6.612611562E-2,1.084284950E-2,-3.375028074E-2
2.657767398E0,1.740964688E-2,6.421715766E-2,-1.832594397E-3
2.674433336E0,8.323032409E-3,5.001455545E-2,1.679878123E-2
2.691099273E0,1.962403022E-2,2.832885459E-2,-1.313359290E-2
2.707765211E0,2.764163166E-2,2.779434808E-2,-3.176496923E-2
2.724431148E0,3.046688065E-2,2.794706449E-2,-2.351829410E-2
2.741097086E0,2.924515121E-2,2.832885459E-2,6.185005885E-3
2.757763023E0,4.940368980E-2,3.237583488E-2,2.916879393E-2
2.774428961E0,6.520981342E-2,4.207331315E-2,5.245801434E-2
2.791094898E0,6.398808211E-2,3.665188700E-2,5.215258151E-2
2.807760836E0,7.490729541E-2,-9.162971983E-4,2.321286127E-2
2.824426773E0,8.193223923E-2,-2.359465137E-2,-2.138026757E-3
2.841092711E0,6.475166976E-2,-2.153298259E-2,8.399390616E-3
2.857758648E0,4.046979174E-2,-5.421424750E-3,3.550651670E-2
2.874424586E0,4.046979174E-2,-8.399390499E-4,3.924806044E-2
2.891090523E0,5.726857483E-2,-2.359465137E-2,1.038470119E-2
2.907756461E0,3.940077871E-2,-2.580903657E-2,-2.054032870E-2
2.924422398E0,-1.488982886E-2,1.893680729E-2,-3.787361458E-2
2.941088336E0,-3.749182448E-2,4.428769648E-2,-3.642281145E-2
2.957754273E0,-2.031125315E-2,4.696023092E-2,-1.397353224E-2
2.974420211E0,3.390299529E-2,3.260490671E-2,4.657844082E-3
2.991086148E0,9.071341902E-2,4.963276442E-3,1.252272818E-2
3.007752086E0,1.009454057E-1,2.061668551E-3,2.145662531E-2
3.024418023E0,6.849320978E-2,2.458730713E-2,3.283398226E-2
3.041083961E0,4.558578506E-2,1.901316643E-2,3.840812296E-2
3.057749898E0,4.398226365E-2,3.359756200E-3,4.046979174E-2
3.074415836E0,3.039052337E-2,1.237001177E-2,4.825831577E-2
3.091081773E0,1.282816008E-2,2.199113183E-2,5.031998456E-2
3.107747711E0,6.643154658E-3,2.664897591E-2,5.520690605E-2
3.124413648E0,3.100138716E-2,2.069304511E-2,5.131264031E-2
3.141079586E0,6.582067907E-2,2.550360374E-2,4.642572254E-2
3.157745523E0,4.963276163E-2,1.343902480E-2,4.940368980E-2
3.174411461E0,4.657844082E-3,1.924224012E-2,5.123628303E-2
3.191077398E0,-1.702785492E-2,2.962694131E-2,5.749764666E-2
3.207743336E0,-3.894262947E-3,2.069304511E-2,6.490438432E-2
3.224409273E0,2.244928107E-2,-2.145662531E-2,5.849030241E-2
3.241075211E0,3.909534588E-2,-5.161807314E-2,5.948295817E-2
3.257741148E0,7.635809947E-3,-4.046979360E-3,6.062832847E-2
3.274407086E0,-3.596466407E-2,3.833176568E-2,5.581776798E-2
3.291073023E0,-3.245219216E-2,3.016144782E-2,7.414371520E-2
3.307738961E0,2.367100911E-3,-1.427896414E-2,8.017600328E-2
3.324404898E0,3.627009690E-2,-3.917170316E-2,6.360629201E-2
3.341070836E0,2.725984156E-2,-4.253146052E-2,4.108065739E-2
3.357736773E0,-1.924224012E-2,-1.878409274E-2,3.894263133E-2
3.374402711E0,-4.993819445E-2,1.443168055E-2,4.970912263E-2
3.391068648E0,-1.771507785E-2,3.100138716E-2,6.612611562E-2
3.407734586E0,3.306305781E-2,-1.298087649E-3,6.811141968E-2
3.424400523E0,3.352120519E-2,-2.947422490E-2,6.192641705E-2
3.441066461E0,1.359174121E-2,-3.420842811E-2,4.657844082E-2
3.457732398E0,-7.941242307E-3,-3.741546720E-2,4.604393244E-2
3.474398336E0,-1.107192412E-2,-5.986474827E-2,5.398517475E-2
3.491064273E0,-2.008217946E-2,-5.467239767E-2,5.070177838E-2
3.507730211E0,-5.574141070E-2,-3.657552972E-2,5.543597788E-2
3.524396148E0,-7.918334752E-2,-2.641990222E-2,5.887209252E-2
3.541062086E0,-6.261363626E-2,-1.023198478E-2,4.757109284E-2
3.557728023E0,-1.488982886E-2,-2.328922041E-2,3.917170316E-2
3.574393961E0,2.275471389E-2,-4.276053607E-2,3.779725730E-2
3.591059898E0,2.703076601E-2,-4.841103405E-2,4.245510325E-2
3.607725836E0,-6.261364091E-3,-9.468403645E-3,3.733910993E-2
3.624391773E0,-3.481929377E-2,2.611446939E-2,2.634354308E-2
3.641057711E0,-3.268126398E-2,1.053741761E-2,1.931859925E-2
3.657723648E0,-9.544761851E-3,-2.290742937E-3,1.970038936E-2
3.674389586E0,1.160643063E-2,-1.397353224E-2,2.160934173E-2
3.691055523E0,1.488982886E-2,-4.581485689E-2,1.893680729E-2
3.707721461E0,-1.137735695E-2,-3.245219216E-2,2.244928107E-2
3.724387398E0,-6.017018110E-2,-1.290451828E-2,3.260490671E-2
3.741053336E0,-7.551816106E-2,-3.535379842E-2,3.161225095E-2
3.757719273E0,-4.436405376E-2,-6.146826968E-2,3.214675933E-2
3.774385211E0,-1.198822167E-2,-6.436987966E-2,4.375318810E-2
3.791051148E0,-8.399390499E-4,-5.146535859E-2,5.154171586E-2
3.807717086E0,-6.414080039E-3,-3.008509055E-2,5.154171586E-2
3.824383023E0,-2.344193682E-2,-2.787070535E-2,5.765036494E-2
3.841048961E0,-4.054614902E-2,-2.893971838E-2,5.138900131E-2
3.857714898E0,-3.046688065E-2,-3.436114267E-2,4.245510325E-2
3.874380836E0,-6.719512399E-3,-4.092793912E-2,4.520399496E-2
3.891046773E0,1.076649129E-2,-2.596175298E-2,4.031707719E-2
3.907712711E0,7.712167688E-3,5.803215317E-3,4.161516204E-2
3.924378648E0,-1.557705179E-2,-3.665188793E-3,4.512763396E-2
3.941044586E0,-1.351538301E-2,-4.535670951E-2,5.245801434E-2
3.957710523E0,-1.298087649E-3,-8.933897316E-2,4.978547990E-2
3.974376461E0,-2.054032870E-2,-8.865175396E-2,3.382663801E-2
3.991042398E0,-6.643154472E-2,-2.412915789E-2,1.931859925E-2
4.007708336E0,-9.338594973E-2,3.695731983E-2,2.756527252E-2
4.024374273E0,-7.780890167E-2,3.023780696E-2,4.497491941E-2
4.041040211E0,-3.970621154E-2,-3.061959706E-2,5.352702737E-2
4.057706148E0,-2.611446939E-2,-9.216422588E-2,4.825831577E-2
4.074372086E0,-7.147117704E-2,-9.521854669E-2,3.260490671E-2
4.091038023E0,-1.308014244E-1,-4.528035223E-2,1.756236330E-2
4.107703961E0,-1.473711282E-1,2.664897591E-2,2.420551702E-2
4.124369898E0,-1.195767820E-1,4.573849961E-2,5.291616172E-2
4.141035836E0,-7.444914430E-2,-2.107483521E-2,8.567378670E-2
4.157701773E0,-7.765618712E-2,-1.142317131E-1,9.491311759E-2
4.174367711E0,-1.335503161E-1,-1.694386154E-1,9.300415963E-2
4.191033648E0,-1.663842946E-1,-1.739437431E-1,9.277509153E-2
4.207699586E0,-1.514944583E-1,-1.051450968E-1,1.004109010E-1
4.224365523E0,-1.223256737E-1,-3.344484791E-2,9.789107740E-2
4.241031461E0,-1.081230640E-1,3.817904973E-3,9.743293375E-2
4.257697398E0,-9.888373315E-2,-1.366809942E-2,1.036942974E-1
4.274363336E0,-7.330377400E-2,-5.520690605E-2,1.199585721E-1
4.291029273E0,-3.810269013E-2,-6.261363626E-2,1.378263682E-1
4.307695211E0,-4.390590638E-2,-4.864010960E-2,1.687513888E-1
4.324361148E0,-6.192641705E-2,-2.611446939E-2,2.081521749E-1
4.341027086E0,-3.588830680E-2,-1.359174121E-2,2.170097083E-1
4.357693023E0,2.229656465E-2,-2.916879393E-2,2.176969349E-1
4.374358961E0,6.841685623E-2,-6.070468575E-2,2.317468226E-1
4.391024898E0,1.000291109E-1,-1.273653060E-1,2.614501119E-1
4.407690836E0,6.734783947E-2,-1.623373181E-1,2.998582423E-1
4.424356773E0,-4.780016840E-2,-2.060141414E-1,3.233765364E-1
4.441022711E0,-1.808923334E-1,-2.785543501E-1,3.206276596E-1
4.457688648E0,-3.055087626E-1,-3.314704895E-1,2.897789776E-1
4.474354586E0,-3.912588954E-1,-3.266599476E-1,3.013854027E-1
4.491020523E0,-3.675878942E-1,-3.811796308E-1,3.687332571E-1
4.507686461E0,-1.941786408E-1,-5.794052482E-1,4.488328993E-1
4.524352398E0,1.484401375E-1,-8.886555433E-1,5.056433082E-1
4.541018336E0,4.669297636E-1,-1.221805930E0,5.085449219E-1
4.557684273E0,5.033525825E-1,-1.417664409E0,4.676933587E-1
4.574350211E0,4.039343297E-1,-1.441869974E0,3.223075271E-1
4.591016148E0,3.533852696E-1,-1.550985694E0,2.222784162E-1
4.607682086E0,4.675406218E-1,-1.808465123E0,3.173442483E-1
4.624348023E0,7.818305492E-1,-2.293797255E0,4.436405599E-1
4.641013961E0,1.157436013E0,-2.973384380E0,5.224421024E-1
4.657679898E0,1.368031621E0,-3.591655731E0,5.968148708E-1
4.674345836E0,1.347567677E0,-3.906327486E0,7.828995585E-1
4.691011773E0,1.171180487E0,-3.880747557E0,1.022893071E0
4.707677711E0,5.910880566E-1,-3.413054228E0,1.222340465E0
4.724343648E0,-4.721221030E-1,-2.742935658E0,1.345658779E0
4.741009586E0,-1.625053048E0,-2.309603453E0,1.382157922E0
4.757675523E0,-2.472856998E0,-2.221180677E0,1.392695308E0
4.774341461E0,-2.754770994E0,-2.439412117E0,1.506545305E0
4.791007398E0,-2.450254917E0,-2.934059858E0,1.759214163E0
4.807673336E0,-1.924071312E0,-3.560272694E0,2.227671146E0
4.824339273E0,-1.505934358E0,-3.833252907E0,2.858541727E0
4.841005211E0,-1.230358005E0,-3.827754974E0,3.491168499E0
4.857671148E0,-9.270636439E-1,-3.849211693E0,3.735361814E0
4.874337086E0,-7.221949100E-1,-3.649611712E0,3.510029078E0
4.891003023E0,-1.234939456E0,-2.709185362E0,3.147175312E0
4.907668961E0,-2.815475702E0,-1.069624186E0,2.658407211E0
4.924334898E0,-4.186714649E0,6.826414168E-2,1.964082956E0
4.941000836E0,-3.588448763E0,1.448513120E-1,1.395749688E0
4.957666773E0,-1.126281977E0,-8.903354406E-2,1.003269076E0
4.974332711E0,1.342298985E0,2.199113220E-1,5.972730517E-1
4.990998648E0,2.900233269E0,1.129259944E0,-1.964693815E-1
5.007664586E0,3.255680084E0,2.148640394E0,-1.636964917E0
5.024330523E0,2.634430647E0,2.694066286E0,-3.647244453E0
5.040996461E0,2.220493555E0,2.674976826E0,-5.276955605E0
5.057662398E0,2.740492105E0,2.434754372E0,-5.914163589E0
5.074328336E0,3.903120518E0,2.117104530E0,-6.581991673E0
5.090994273E0,5.223733902E0,2.815933943E0,-7.967356682E0
5.107660211E0,6.987834930E0,4.025827885E0,-9.706870079E0
5.124326148E0,8.229417801E0,3.960847139E0,-1.011935711E1
5.140992086E0,8.459407806E0,3.104491234E0,-9.046907425E0
5.157658023E0,8.128396034E0,2.010508776E0,-7.269901752E0
5.174323961E0,6.987071514E0,1.204167247E0,-5.555509567E0
5.190989898E0,5.254277229E0,1.442404509E0,-3.975431681E0
5.207655836E0,4.356840134E0,1.760588646E0,-2.349920511E0
5.224321773E0,4.117304802E0,1.556559801E0,-8.142827749E-1
5.240987711E0,3.238575935E0,1.075809240E0,5.946004987E-1
5.257653648E0,2.052582026E0,8.618538380E-1,2.079231024E0
5.274319586E0,1.325729251E0,9.119447470E-1,2.924362421E0
5.290985523E0,3.705658615E-1,1.303814530E0,3.440772295E0
5.307651461E0,-1.179885268E0,2.000123978E0,3.968177557E0
5.324317398E0,-2.881983757E0,2.645960808E0,4.314232349E0
5.340983336E0,-4.358367443E0,2.539899349E0,4.828122616E0
5.357649273E0,-5.289478302E0,1.954614520E0,5.264661789E0
5.374315211E0,-5.827344418E0,1.203098178E0,5.373472214E0
5.390981148E0,-6.142321587E0,1.268155336E0,5.761065960E0
5.407647086E0,-5.809018612E0,1.965228319E0,6.799230576E0
5.424313023E0,-5.894539833E0,1.462410331E0,7.108098984E0
5.440978961E0,-6.402550220E0,-8.750637621E-2,6.756851673E0
5.457644898E0,-6.719894409E0,-2.532798052E-1,6.339096546E0
5.474310836E0,-6.270450592E0,5.902481079E-1,5.474646568E0
5.490976773E0,-5.280391693E0,3.404807448E-1,4.978395462E0
5.507642711E0,-3.767508507E0,-1.067944407E0,4.591947079E0
5.524308648E0,-3.062265158E0,-1.760817766E0,3.280191183E0
5.540974586E0,-4.109592915E0,-7.150935531E-1,1.928041935E0
5.557640523E0,-4.850724697E0,-1.382081583E-2,6.203331947E-1
5.574306461E0,-2.621449947E0,-4.822777510E-1,-1.004872546E-1
5.590972398E0,1.081917882E0,-9.372192621E-1,-3.088684976E-1
5.607638336E0,3.028056622E0,-7.969494462E-1,-1.469587922E0
5.624304273E0,1.875660300E0,-2.336557806E-1,-3.515526772E0
5.640970211E0,-1.096807718E0,2.878700197E-1,-5.051011562E0
5.657636148E0,-3.153971195E0,6.028471589E-1,-5.233583927E0
5.674302086E0,-2.525315046E0,7.076868415E-1,-4.676475525E0
5.690968023E0,-1.731801629E-1,8.683443069E-1,-4.490467072E0
5.707633961E0,1.624976635E0,1.440800905E0,-5.182424068E0
5.724299898E0,1.355967045E0,3.010799885E0,-6.245481491E0
5.740965836E0,1.666515470E0,4.580722332E0,-7.290671349E0
5.757631773E0,5.912789345E0,4.523224831E0,-9.065691948E0
5.774297711E0,1.015768909E1,3.494833708E0,-1.023297787E1
5.790963648E0,1.036355019E1,2.493702650E0,-1.001467037E1
5.807629586E0,7.483093739E0,2.363664865E0,-8.701921463E0
5.824295523E0,5.357894897E0,2.148716927E0,-6.709586143E0
5.840961461E0,4.267883301E0,2.110996008E0,-4.922348499E0
5.857627398E0,4.600269794E0,2.940626621E0,-2.491870165E0
5.874293336E0,6.636435032E0,2.780045509E0,1.337030232E-1
5.890959273E0,7.250277519E0,1.587942958E0,1.982485294E0
5.907625211E0,4.607371330E0,9.043089747E-1,2.910770655E0
5.924291148E0,1.019151568E0,1.811366796E0,3.182834625E0
5.940957086E0,-1.325652957E0,2.261497736E0,3.712530613E0
5.957623023E0,-2.387183189E0,1.940030217E0,4.841638088E0
5.974288961E0,-3.354105711E0,1.628183722E0,5.650804520E0
5.990954898E0,-4.534831047E0,1.244407892E0,5.957382202E0
6.007620836E0,-5.389889240E0,8.924734592E-1,6.069934368E0
6.024286773E0,-5.768472672E0,7.782417536E-1,6.182562351E0
6.040952711E0,-5.780537128E0,9.282854199E-1,6.588558674E0
6.057618648E0,-5.653706074E0,9.204205275E-1,6.899183273E0
6.074284586E0,-5.833300591E0,6.411789656E-1,7.349543095E0
6.090950523E0,-5.760912895E0,8.063415438E-2,7.681319237E0
6.107616461E0,-4.410443783E0,3.196350038E-1,6.451801300E0
6.124282398E0,-4.217104912E0,3.475820720E-1,4.112112522E0
6.140948336E0,-4.898142815E0,5.615374446E-1,2.936732531E0
6.157614273E0,-4.524981022E0,-5.444332212E-2,2.098625898E0
6.174280211E0,-3.392361164E0,-8.865175247E-1,1.247233152E0
6.190946148E0,-2.162079573E0,-1.084666729E0,1.356883347E-1
6.207612086E0,-9.072869420E-1,-1.224783897E0,-5.339722037E-1
6.224278023E0,-1.572213173E-1,-1.111086726E0,-1.186604857E0
6.240943961E0,-1.116355360E-1,-7.016545534E-1,-2.126114845E0
6.257609898E0,-1.442404389E-1,-2.881754637E-1,-3.291186810E0
6.274275836E0,-1.160643101E-1,-2.620609999E-1,-4.315607071E0
6.290941773E0,-2.266308367E-1,-1.137735695E-2,-4.515741348E0
6.307607711E0,-3.488801420E-1,5.350412130E-1,-4.449462891E0
6.324273648E0,-2.389244884E-1,9.070578218E-1,-4.479013443E0
6.340939586E0,3.643808365E-1,7.938951254E-1,-4.801549911E0
6.357605523E0,1.017242551E0,1.010141253E0,-6.148124695E0
6.374271461E0,1.783496022E0,2.607323647E0,-8.193911552E0
6.390937398E0,4.920821190E0,3.550040722E0,-1.034056664E1
6.407603336E0,1.000153637E1,2.352516651E0,-1.229113388E1
6.424269273E0,1.171386623E1,1.250669241E0,-1.242498970E1
6.440935211E0,8.403590202E0,3.458258212E-1,-1.094532204E1
6.457601148E0,3.416108608E0,2.815323174E-1,-9.442671776E0
6.474267086E0,1.079856157E0,2.298073292E0,-7.855262756E0
6.490933023E0,3.363955975E0,2.972697020E0,-4.178085804E0
6.507598961E0,6.814043999E0,2.205527306E0,-5.878809690E-1
6.524264898E0,6.694925308E0,1.905210853E0,7.554106712E-1
6.540930836E0,2.868391991E0,2.303418398E0,7.457895279E-1
6.557596773E0,-2.284557819E0,3.469024658E0,6.485856771E-1
6.574262711E0,-5.651033878E0,3.270035505E0,2.016846418E0
6.590928648E0,-5.706622601E0,1.674456716E0,4.701138973E0
6.607594586E0,-3.715966702E0,5.849793553E-1,6.613451004E0
6.624260523E0,-2.609996080E0,6.420188546E-1,7.205455303E0
6.640926461E0,-3.036150694E0,1.206381559E0,7.411469460E0
6.657592398E0,-3.680613041E0,1.509523273E0,7.912989616E0
6.674258336E0,-4.374478817E0,8.029817343E-1,8.560353279E0
6.690924273E0,-6.207149506E0,1.343902480E-2,9.317291260E0
6.707590211E0,-7.704761028E0,-1.810450554E-1,9.196340561E0
6.724256148E0,-6.133922100E0,-9.827287197E-1,6.414080143E0
6.740922086E0,-3.054553032E0,-2.119471788E0,4.281856537E0
6.757588023E0,-2.292041063E0,-1.442251801E0,3.249800682E0
6.774253961E0,-3.264614105E0,-8.567378521E-1,2.406272650E0
6.790919898E0,-3.905029535E0,-1.053054571E0,1.186604857E0
6.807585836E0,-3.213301420E0,-1.363526583E0,2.736674249E-1
6.824251773E0,-1.255937934E0,-1.547320485E0,-5.710058808E-1
6.840917711E0,4.938078225E-1,-1.964770198E0,-1.314886451E0
6.857583648E0,7.628174126E-2,-1.880623579E0,-2.182008982E0
6.874249586E0,-2.055636406E0,-1.087339282E0,-3.222311735E0
6.890915523E0,-3.558669090E0,-3.222311735E-1,-3.616548538E0
6.907581461E0,-2.806618214E0,-4.625009894E-1,-3.259803534E0
6.924247398E0,-7.493783832E-1,-8.480330110E-1,-2.681238174E0
6.940913336E0,1.058323234E-1,2.175442129E-1,-2.804556608E0
6.957579273E0,-1.356806993E0,2.451705694E0,-4.539412498E0
6.974245211E0,-2.201862097E0,4.118526936E0,-7.032809734E0
6.990911148E0,1.664453864E0,3.588448763E0,-8.897780418E0
7.007577086E0,7.609542370E0,3.104872942E0,-1.182855606E1
7.024243023E0,9.072869301E0,2.938946724E0,-1.311763382E1
7.040908961E0,5.741518021E0,2.796920776E0,-1.202227688E1
7.057574898E0,2.158108950E0,2.771569967E0,-1.016578293E1
7.074240836E0,1.059315920E0,2.743699074E0,-8.306310654E0
7.090906773E0,2.662301540E0,2.711934090E0,-5.148597240E0
7.107572711E0,6.264418125E0,2.840903044E0,-2.086637735E0
7.124238648E0,6.074668407E0,3.227733135E0,-3.498727977E-1
7.140904586E0,1.137124777E0,4.534678459E0,1.381165266E0
7.157570523E0,-3.430769205E0,4.851488113E0,3.682445526E0
7.174236461E0,-5.952342987E0,2.577620268E0,6.915370941E0
7.190902398E0,-6.416065693E0,1.114904523E0,9.779716492E0
7.207568336E0,-5.038336277E0,1.748829484E0,1.070693207E1
7.224234273E0,-3.366094112E0,1.546862364E0,1.092913437E1
7.240900211E0,-2.505996466E0,7.470112443E-1,1.136254311E1
7.257566148E0,-4.181598663E0,4.350120723E-1,1.193225098E1
7.274232086E0,-6.907582760E0,1.410715818E0,1.111919022E1
7.290898023E0,-7.348245144E0,6.485856771E-1,6.911782265E0
7.307563961E0,-5.724490166E0,1.196531355E-1,4.580264091E0
7.324229898E0,-3.211621523E0,-7.137954831E-1,2.705596447E0
7.340895836E0,-3.000109673E0,-1.004872561E0,2.027460098E0
7.357561773E0,-3.962069035E0,-7.952696085E-1,1.339550138E0
7.374227711E0,-3.893728495E0,-7.648790479E-1,4.454731345E-1
7.390893648E0,-2.418413639E0,-1.176525593E0,-6.322450638E-1
7.407559586E0,-6.648499370E-1,-1.931707144E0,-1.339321017E0
7.424225523E0,3.098611534E-1,-2.261116028E0,-1.744400740E0
7.440891461E0,-2.672533318E-2,-1.811824918E0,-2.485532522E0
7.457557398E0,-7.075341344E-1,-1.237688422E0,-2.945742607E0
7.474223336E0,-6.830231547E-1,-1.157436013E0,-3.145724535E0
7.490889273E0,3.220020831E-1,-1.581605315E0,-3.325624228E0
7.507555211E0,1.178129077E0,-1.842215419E0,-3.563708782E0
7.524221148E0,1.073060393E0,-1.241429925E0,-3.969322920E0
7.540887086E0,5.706240535E-1,4.946477413E-1,-4.704498768E0
7.557553023E0,4.238637984E-1,1.739208341E0,-5.187845707E0
7.574218961E0,1.667508125E0,1.797927737E0,-5.494652271E0
7.590884898E0,5.445554256E0,8.834632039E-1,-6.781744480E0
7.607550836E0,7.561513424E0,2.979492843E-1,-9.518342018E0
7.624216773E0,4.038350582E0,6.872992516E-1,-1.116431713E1
7.640882711E0,-5.992583632E-1,1.826562047E0,-1.100373650E1
7.657548648E0,-1.461493969E0,2.632750750E0,-1.024687481E1
7.674214586E0,1.188437462E0,3.087157965E0,-8.249805450E0
7.690880523E0,3.958021879E0,2.655429125E0,-5.561847687E0
7.707546461E0,4.962207317E0,2.289826632E0,-4.085845470E0
7.724212398E0,3.852113247E0,2.198196888E0,-3.261025190E0
7.740878336E0,1.037019372E0,2.360687017E0,-8.132137656E-1
7.757544273E0,-1.820147991E0,2.164828539E0,2.989801407E0
7.774210211E0,-3.690615892E0,1.360090375E0,6.322144985E0
7.790876148E0,-4.089357853E0,8.562033176E-1,8.333723068E0
7.807542086E0,-3.543321133E0,6.837103963E-1,9.453132629E0
7.824208023E0,-3.188714266E0,4.367683083E-2,1.056208134E1
7.840873961E0,-3.086012602E0,-4.203513265E-1,1.156733513E1
7.857539898E0,-3.654269457E0,-2.361755967E-1,1.207748413E1
7.874205836E0,-4.871493816E0,-6.574432552E-2,1.152488041E1
7.890871773E0,-4.838736057E0,-9.717331529E-1,8.842573166E0
7.907537711E0,-4.467330456E0,-1.125976562E0,6.796481609E0
7.924203648E0,-3.269959211E0,-5.765036494E-2,4.083402157E0
7.940869586E0,-2.865108490E0,5.510764122E-1,1.585728645E0
7.957535523E0,-4.010556221E0,8.022181988E-1,2.603811026E-1
7.974201461E0,-4.467025280E0,8.263473511E-1,-5.051088333E-1
7.990867398E0,-2.932838202E0,4.110356271E-1,-1.385365009E0
8.007533336E0,-6.860775352E-1,-3.389535844E-1,-1.687895775E0
8.024199273E0,4.734965563E-1,-1.275180221E0,-1.463708401E0
8.040865211E0,2.941313982E-1,-1.646586061E0,-1.555261731E0
8.057531148E0,-8.097776175E-1,-1.360243201E0,-2.034637928E0
8.074197086E0,-1.977292895E0,-9.776890874E-1,-2.271348000E0
8.090863023E0,-1.844811678E0,-6.788234711E-1,-2.319377184E0
8.107528961E0,-2.796233594E-1,-7.764855027E-1,-2.584034443E0
8.124194898E0,1.617646337E0,-1.161635756E0,-2.828380346E0
8.140860836E0,2.333656073E0,-1.349247575E0,-2.969108343E0
8.157526773E0,1.475009322E0,-8.630755544E-1,-3.204214811E0
8.174192711E0,2.245691717E-1,2.841284871E-1,-3.264232397E0
8.190858648E0,1.814879298E0,-8.300124854E-2,-4.010327339E0
8.207524586E0,6.001975536E0,-1.308701396E0,-5.040092468E0
8.224190523E0,5.767708778E0,-8.138245940E-1,-5.960513115E0
8.240856461E0,2.018984556E0,7.674752474E-1,-7.459651470E0
8.257522398E0,1.673769504E-1,2.710025311E0,-8.405804634E0
8.274188336E0,1.344513416E0,3.964741468E0,-7.530511856E0
8.290854273E0,3.814316034E0,3.501629591E0,-5.307269573E0
8.307520211E0,5.129813194E0,2.319835424E0,-3.638921499E0
8.324186148E0,4.097146511E0,1.462104797E0,-2.955058336E0
8.340852086E0,1.787084937E0,1.648876786E0,-2.064264774E0
8.357518023E0,-2.231947184E-1,2.253021955E0,-1.738673896E-1
8.374183961E0,-1.694004416E0,1.709810495E0,2.414977551E0
8.390849898E0,-2.405432701E0,7.647263408E-1,3.647702694E0
8.407515836E0,-2.412305117E0,9.514219165E-1,3.041190386E0
8.424181773E0,-3.006371021E0,9.127846956E-1,2.962007046E0
8.440847711E0,-4.146855354E0,1.455385387E-1,3.805916548E0
8.457513648E0,-4.939528942E0,-1.185077652E-1,4.092488766E0
8.474179586E0,-5.965400219E0,-6.621774435E-1,4.201375008E0
8.490845523E0,-7.917571068E0,-2.657109022E0,5.573835850E0
8.507511461E0,-7.704608440E0,-2.173456907E0,5.274282932E0
8.524177398E0,-3.802251577E0,1.652694702E0,1.663308382E0
8.540843336E0,-1.934914142E-1,1.799073100E0,-5.128209591E-1
8.557509273E0,2.115882933E-1,-4.561632872E-1,4.573850036E-1
8.574175211E0,-2.433532625E-1,-1.680259943E0,8.009964228E-1
8.590841148E0,1.124754772E-1,-1.185306787E0,1.550069451E-1
8.607507086E0,8.293253183E-1,-8.486438990E-1,-3.886627033E-2
8.624173023E0,1.498527646E0,-6.020072699E-1,-6.849320978E-2
8.640838961E0,1.843055367E0,-7.427352071E-1,-1.307250559E-1
8.657504898E0,2.467893600E0,-1.003727198E0,-3.461312652E-1
8.674170836E0,2.884809017E0,-9.188169837E-1,-5.217548609E-1
8.690836773E0,2.963304996E0,-3.852266073E-1,-4.218021333E-1
8.707502711E0,2.966053963E0,5.930733681E-1,-7.511346340E-1
8.724168648E0,3.113730431E0,7.736602426E-1,-1.571144223E0
8.740834586E0,3.973446369E0,-9.292780608E-2,-2.152305603E0
8.757500523E0,5.129355431E0,-9.334014058E-1,-2.188270330E0
8.774166461E0,5.431122303E0,-1.112308383E0,-2.487517834E0
8.790832398E0,4.228940487E0,-2.093739063E-1,-3.115257740E0
8.807498336E0,2.592281103E0,3.925569654E-1,-3.825846195E0
8.824164273E0,1.332219720E0,-1.666897297E0,-2.339764833E0
8.840830211E0,-3.941605091E-1,-3.438176155E0,-3.908770978E-1
8.857496148E0,-3.078758419E-1,1.449505806E0,-2.267988205E0
8.874162086E0,1.673693180E0,4.147542953E0,-2.755610943E0
8.890828023E0,3.822333574E0,2.523482323E0,-1.318933368E0
8.907493961E0,4.014679909E0,4.909825623E-1,-2.434296161E-1
8.924159898E0,1.679878116E0,-2.165515572E-1,1.562286615E-1
8.940825836E0,-1.309617758E0,-4.296670258E-1,5.771145225E-1
8.957491773E0,-2.390008450E0,-9.050725102E-1,1.318627954E0
8.974157711E0,-3.153818607E0,-1.571755052E0,1.605963469E0
8.990823648E0,-5.077813625E0,-1.712712169E0,1.694462538E0
9.007489586E0,-4.250855446E0,-1.228296399E0,1.898414969E0
9.024155523E0,1.817322671E-1,-1.051450968E-1,1.997222424E0
9.040821461E0,2.642753839E0,9.017127752E-1,2.479347438E-1
9.057487398E0,-3.466657549E-2,1.601076603E0,-1.279608965E0
9.074153336E0,-2.632445335E0,2.475224018E0,-1.590844631E0
9.090819273E0,-9.841794968E-1,1.954996347E0,-1.277852774E0
9.107485211E0,2.690630198E0,5.140427351E-1,-8.203914165E-1
9.124151148E0,4.030256748E0,-2.901607752E-2,-1.223867536E0
9.140817086E0,2.435976028E0,6.071996093E-1,-2.128787279E0
9.157483023E0,4.723511934E-1,1.132696033E0,-2.728274822E0
9.174148961E0,-7.657953501E-1,1.509141445E0,-2.133445263E0
9.190814898E0,-1.053588986E0,9.834922850E-2,8.544471115E-2
9.207480836E0,5.404626131E-1,-5.997164845E-1,1.401858330E0
9.224146773E0,1.931554437E0,2.341139317E-1,1.293506145E0
9.240812711E0,1.925063968E0,7.205913663E-1,2.574795187E-1
9.257478648E0,1.190270066E0,8.908699155E-1,-5.396226645E-1
9.274144586E0,-8.918625861E-2,6.769908667E-1,-6.072759628E-1
9.290810523E0,-1.957821608E0,6.860775352E-1,-2.500727773E-1
9.307476461E0,-2.734612465E0,3.323867917E-1,2.877173126E-1
9.324142398E0,-1.464777350E0,-3.413207084E-2,7.732784748E-1
9.340808336E0,7.463240623E-1,-2.677114904E-1,6.647735834E-1
9.357474273E0,1.025641918E0,-1.509599537E-1,6.271290779E-1
9.374140211E0,-1.009683132E0,4.647153914E-1,1.925751269E-1
9.390806148E0,-2.317850113E0,1.221805930E0,-1.793651730E-1
9.407472086E0,-1.186681151E0,1.365817308E0,2.906952798E-1
9.424138023E0,1.278692722E0,2.565632164E-1,1.096349597E0
9.440803961E0,2.612210512E0,-7.031053901E-1,1.316489935E0
9.457469898E0,1.411097646E0,-8.811724186E-2,1.011210322E0
9.474135836E0,-1.577940106E0,4.146244749E-2,1.565340996E0
9.490801773E0,-2.667035580E0,6.375901401E-2,2.022038698E0
9.507467711E0,-1.222493172E0,6.070468575E-2,2.081903458E0
9.524133648E0,1.151861906E0,-3.936260045E-1,1.283732295E0
9.540799586E0,2.103818417E0,-6.452259421E-2,1.986074150E-1
9.557465523E0,1.459050536E0,8.654426932E-1,-2.680932879E-1
9.574131461E0,1.187368393E0,1.042211652E0,-3.737728894E-1
9.590797398E0,1.378110886E0,4.457785785E-1,-2.252563834E-2
9.607463336E0,1.698204041E0,-1.402698308E-1,2.576322258E-1
9.624129273E0,2.364123106E0,-5.784125924E-1,9.239330143E-2
9.640795211E0,2.492633820E0,-4.623482823E-1,-2.461021543E-1
9.657461148E0,2.437274218E0,1.798233241E-1,-2.546542585E-1
9.674127086E0,2.861519814E0,1.269071549E-1,-3.708712757E-1
9.690793023E0,3.623497248E0,-1.446909547E0,-6.736311316E-1
9.707458961E0,3.705505848E0,-2.554483891E0,-4.347830117E-1
9.724124898E0,2.237521410E0,-1.572671413E0,2.122755051E-1
9.740790836E0,-4.819723070E-1,6.207149625E-1,6.012436748E-1
9.757456773E0,-1.510286808E0,1.419726133E0,1.771507785E-2
9.774122711E0,8.139773011E-1,3.794997558E-2,-1.890626550E-1
9.790788648E0,3.098535299E0,-7.784708142E-1,-5.770381689E-1
9.807454586E0,2.790735722E0,1.381012559E0,-1.808846951E0
9.824120523E0,2.174449444E0,3.280802011E0,-3.038899660E0
9.840786461E0,3.216966629E0,2.760803461E0,-4.554836750E0
9.857452398E0,4.049957275E0,2.561890602E0,-6.258386135E0
9.874118336E0,2.955058336E0,2.993313789E0,-6.983253479E0
9.890784273E0,1.798691392E0,3.926867962E0,-8.253165245E0
9.907450211E0,1.417206287E0,5.028180599E0,-9.648303986E0
9.924116148E0,1.561217666E0,5.991896152E0,-9.845154762E0
9.940782086E0,2.346713305E0,6.246855736E0,-9.010789871E0
9.957448023E0,2.900385857E0,6.143314362E0,-7.590529442E0
9.974113961E0,2.722777128E0,5.950357437E0,-5.844372272E0
9.990779898E0,1.872911453E0,5.253360748E0,-3.653964043E0
1.000744584E1,6.188060045E-1,4.207865715E0,-1.624976635E0
1.002411177E1,-8.315397054E-2,3.544695616E0,2.512181364E-2
1.004077771E1,1.125518382E-1,3.000796795E0,1.946138859E0
1.005744365E1,5.790234804E-1,2.465144873E0,4.169533730E0
1.007410959E1,5.155698657E-1,2.088012218E0,5.762592793E0
1.009077552E1,-6.371319890E-1,1.337030292E0,7.034031391E0
1.010744146E1,-1.707290649E0,2.262490392E-1,8.201775551E0
1.012410740E1,-1.725234866E0,-3.583485484E-1,8.703295708E0
1.014077334E1,-1.318704367E0,-8.180242777E-1,9.262542725E0
1.015743927E1,-8.471167088E-1,-1.672013283E0,1.017578506E1
1.017410521E1,-2.480874658E-1,-2.005010843E0,1.084246826E1
1.019077115E1,7.220421433E-1,-1.511584878E0,1.114881706E1
1.020743709E1,1.541593671E0,-9.660062790E-1,1.170646000E1
1.022410302E1,2.233321667E0,-5.788707137E-1,1.158222485E1
1.024076896E1,2.786154270E0,-2.790888548E-1,1.073106194E1
1.025743490E1,2.807229042E0,-8.527672291E-1,9.268957138E0
1.027410084E1,3.147251606E0,-1.044884205E0,6.123613834E0
1.029076677E1,2.248898745E0,-6.414080262E-1,3.732994556E0
1.030743271E1,-2.168570012E-1,7.209731340E-1,2.665508509E0
1.032409865E1,-9.117156863E-1,1.095356941E0,1.914526582E0
1.034076459E1,9.773072600E-1,5.589412898E-2,2.110537887E-1
1.035743052E1,3.152444124E0,-2.664133906E-1,-2.106185436E0
1.037409646E1,2.728885651E0,-1.226311028E-1,-4.250855446E0
1.039076240E1,4.302015305E-1,-7.010436654E-1,-5.771450520E0
1.040742834E1,-9.701296091E-1,-1.570686102E0,-6.587947369E0
1.042409427E1,-1.513799310E0,-2.321209908E0,-7.397954464E0
1.044076021E1,-2.126802206E0,-8.045089245E-1,-8.861586571E0
1.045742615E1,-9.721149206E-1,1.986379504E0,-1.064416599E1
1.047409209E1,3.323868036E0,2.726289511E0,-1.194668293E1
1.049075802E1,6.286485672E0,9.771545529E-1,-1.406455040E1
1.050742396E1,4.711370945E0,9.569196701E-1,-1.561752129E1
1.052408990E1,3.138394117E0,2.567082882E0,-1.517334652E1
1.054075584E1,4.010479927E0,2.908785343E0,-1.312091732E1
1.055742177E1,4.663799763E0,2.176434755E0,-1.063019276E1
1.057408771E1,3.035768986E0,1.430187106E0,-8.429475784E0
1.059075365E1,1.072144032E0,1.882227063E0,-6.454855442E0
1.060741959E1,2.438190460E0,2.688263178E0,-3.684736252E0
1.062408552E1,5.883315086E0,1.264795542E0,-1.060842991E0
1.064075146E1,5.405466080E0,1.790597439E-1,5.035816431E-1
1.065741740E1,5.164098144E-1,2.316628218E0,1.191949844E0
1.067408334E1,-4.957396984E0,4.087449074E0,2.346560717E0
1.069074927E1,-7.563574791E0,2.646189928E0,5.551310062E0
1.070741521E1,-6.979130268E0,-5.451968312E-2,9.169080734E0
1.072408115E1,-5.065367222E0,-1.395215154E0,1.116683769E1
1.074074709E1,-3.557447433E0,-1.971031547E0,1.275905609E1
1.075741302E1,-2.888092279E0,-2.007988930E0,1.481438732E1
1.077407896E1,-3.468872070E0,-1.135368586E0,1.606505585E1
1.079074490E1,-3.921446562E0,1.384372354E0,1.424910831E1
1.080741084E1,3.381900191E-1,1.099709272E0,8.378544807E0
1.082407677E1,1.295796931E-1,-2.763399482E-1,6.555800915E0
1.084074271E1,-4.238409042E0,1.093218923E0,6.096125126E0
1.085740865E1,-4.338590622E0,5.683333278E-1,4.770166874E0
1.087407459E1,-2.260199785E0,-1.929798245E0,3.177336693E0
1.089074052E1,-1.441182733E0,-3.293935537E0,7.388409376E-1
1.090740646E1,-1.371773243E0,-2.059912443E0,-1.854203701E0
1.092407240E1,-1.184390426E0,-1.496618688E-1,-5.266189098E0
1.094073834E1,-1.841757298E-1,2.745837271E-1,-7.197437763E0
1.095740427E1,9.188169837E-1,1.093447953E-1,-8.651830673E0
1.097407021E1,1.860846877E-1,1.375285745E0,-9.918076515E0
1.099073615E1,4.643335938E-1,3.790874004E0,-1.114904594E1
1.100740209E1,3.496131897E0,3.950538874E0,-1.239429379E1
1.102406802E1,5.591703415E0,3.537365198E0,-1.401988125E1
1.104073396E1,5.254200459E0,3.763690710E0,-1.535103226E1
1.105739990E1,4.496957302E0,4.588587284E0,-1.478865433E1
1.107406584E1,3.847837210E0,4.957320213E0,-1.271507359E1
1.109073177E1,3.852495193E0,4.562319756E0,-9.731305122E0
1.110739771E1,5.179446220E0,3.422751665E0,-5.760149479E0
1.112406365E1,6.883911610E0,1.466915369E0,-1.923842311E0
1.114072959E1,4.826595306E0,1.115210056E0,-1.254563481E-1
1.115739552E1,-4.795288667E-2,3.042641163E0,9.674571157E-1
1.117406146E1,-3.881358385E0,5.002142429E0,3.466581345E0
1.119072740E1,-5.862392902E0,2.869537354E0,8.420923233E0
1.120739334E1,-5.519697666E0,3.512472380E-3,1.252967644E1
1.122405927E1,-4.979006290E0,-8.826996088E-1,1.421352577E1
1.124072521E1,-5.460443974E0,-8.140536547E-1,1.469061089E1
1.125739115E1,-5.146306515E0,-1.157665133E0,1.520381355E1
1.127405709E1,-5.908207893E0,-1.169806004E0,1.595326805E1
1.129072302E1,-6.621621609E0,-1.749363989E-1,1.394810486E1
1.130738896E1,-1.268308014E-1,-8.980475664E-1,9.606612206E0
1.132405490E1,2.599840403E0,-8.512400985E-1,6.423701286E0
1.134072084E1,-3.671221018E0,1.902156591E0,5.129278660E0
1.135738677E1,-6.012513161E0,2.311206818E0,3.288056135E0
1.137405271E1,-2.471635342E0,-2.586248815E-1,2.148793221E0
1.139071865E1,-3.579667509E-1,-1.190193653E0,-5.696314201E-2
1.140738459E1,-2.841132164E0,-1.259984970E0,-2.595717192E0
1.142405052E1,-5.387903690E0,-1.866955519E0,-5.565283775E0
1.144071646E1,-5.747244835E0,-1.891466379E0,-7.141314507E0
1.145738240E1,-3.439703226E0,-2.089462996E0,-7.203928471E0
1.147404834E1,-2.016541004E0,-5.582540631E-1,-6.305269718E0
1.149071427E1,-2.108017921E0,3.068144798E0,-6.159502506E0
1.150738021E1,-1.713704824E0,4.874090195E0,-7.732402802E0
1.152404615E1,1.459814072E0,4.276282310E0,-9.332487106E0
1.154071209E1,4.712821960E0,4.126162529E0,-1.232297516E1
1.155737802E1,3.921140909E0,4.330878735E0,-1.432157230E1
1.157404396E1,3.020649910E0,4.956251621E0,-1.486325645E1
1.159070990E1,4.762836456E0,5.191968918E0,-1.337289906E1
1.160737584E1,5.912331104E0,3.770486593E0,-1.045617199E1
1.162404177E1,4.460076332E0,2.656421900E0,-8.323338509E0
1.164070771E1,2.156505346E0,3.393582821E0,-6.027937412E0
1.165737365E1,2.967657566E0,3.584020138E0,-3.138623238E0
1.167403959E1,5.340485096E0,1.135903001E0,-1.070540547E0
1.169070552E1,4.400364399E0,1.215315461E0,1.102610946E0
1.170737146E1,3.318522871E-1,4.308581829E0,3.618381262E0
1.172403740E1,-4.041862965E0,3.782092810E0,8.220636368E0
1.174070334E1,-5.875908375E0,1.517693520E0,1.289123249E1
1.175736927E1,-6.207455158E0,-3.287216127E-1,1.553711700E1
1.177403521E1,-5.162189007E0,-9.449314475E-1,1.698990631E1
1.179070115E1,-3.148091555E0,-1.356883407E0,1.861778450E1
1.180736709E1,-4.358825684E0,-2.504545450E-1,1.954477119E1
1.182403302E1,-5.457923889E0,1.668958902E0,1.539478493E1
1.184069896E1,2.050596714E0,3.672824502E-1,8.601587296E0
1.185736490E1,7.340303659E-1,4.474584386E-2,5.685776711E0
1.187403084E1,-8.549205780E0,3.059745312E0,3.971842766E0
1.189069677E1,-8.519960403E0,2.252487421E0,2.675740480E0
1.190736271E1,-3.310505390E0,4.711294547E-2,1.408577800E0
1.192402865E1,-1.383532405E0,2.771798968E-1,-1.491273642E0
1.194069459E1,-2.113057613E0,9.693660736E-1,-4.083096504E0
1.195736052E1,-3.463908672E0,5.057960153E-1,-5.635227680E0
1.197402646E1,-4.466872215E0,7.756455541E-1,-5.746786594E0
1.199069240E1,-3.190775871E0,1.621158719E0,-5.563756466E0
1.200735834E1,-2.181550860E-1,1.534492373E0,-5.990445614E0
1.202402427E1,6.826413870E-1,2.127336502E0,-8.010041237E0
1.204069021E1,-1.067486167E0,4.043161392E0,-9.749249458E0
1.205735615E1,1.809686981E-2,5.393783092E0,-1.041165543E1
1.207402209E1,4.083631039E0,5.002753258E0,-1.275775814E1
1.209068802E1,5.955320835E0,5.049026489E0,-1.438777447E1
1.210735396E1,5.752131939E0,4.884627342E0,-1.339084339E1
1.212401990E1,4.936627388E0,4.343935966E0,-1.196172523E1
1.214068584E1,3.947866440E0,4.249633789E0,-9.814687729E0
1.215735177E1,3.612119913E0,4.800175667E0,-7.378635883E0
1.217401771E1,5.441430569E0,4.532158375E0,-3.830351353E0
1.219068365E1,7.193238258E0,2.638477802E0,-1.578016400E0
1.220734959E1,5.574522972E0,2.201403856E0,-8.982766867E-1
1.222401552E1,2.160475969E0,3.219715595E0,1.316108227E0
1.224068146E1,-1.010904908E0,2.668104649E0,5.813141823E0
1.225734740E1,-2.900538683E0,1.363526583E0,8.951841354E0
1.227401334E1,-3.753687620E0,5.273290277E-1,9.359669685E0
1.229067927E1,-4.748786449E0,-2.222020626E-1,9.948772430E0
1.230734521E1,-4.538038254E0,-1.174311161E0,1.096509933E1
1.232401115E1,-3.175656796E0,-1.896276951E0,1.116538620E1
1.234067709E1,-3.077078581E0,-1.855578184E0,1.114316654E1
1.235734302E1,-4.324082851E0,-1.568318963E0,8.827301025E0
1.237400896E1,-8.055779457E0,-8.565851450E-1,6.418432713E0
1.239067490E1,-8.545998573E0,-8.155044913E-2,4.963810921E0
1.240734084E1,-4.076148033E0,1.927278340E-1,2.318537235E0
1.242400677E1,-1.328783631E0,-9.676861763E-1,1.236390352E0
1.244067271E1,-1.344666123E0,-6.271290779E-1,3.477347791E-1
1.245733865E1,-1.913228512E0,-6.896663308E-1,-2.734383345E-1
1.247400459E1,-1.627191067E0,-1.188132048E0,-2.998582423E-1
1.249067052E1,-7.289143801E-1,-1.185154080E0,-2.365573794E-1
1.250733646E1,5.490911007E-1,-1.025336504E0,-2.354120165E-1
1.252400240E1,2.045099020E0,-1.100778341E0,-2.789361179E-1
1.254066834E1,2.818148375E0,-1.177976370E0,-6.203331947E-1
1.255733427E1,2.649320602E0,-9.140827656E-1,-9.953277707E-1
1.257400021E1,2.460105181E0,-6.950877905E-1,-1.240819097E0
1.259066615E1,2.928180218E0,-7.784708142E-1,-1.279379964E0
1.260733209E1,3.862650633E0,-1.082147002E0,-1.199280262E0
1.262399802E1,4.692434311E0,-1.733939648E0,-1.099251151E0
1.264066396E1,4.260934353E0,-2.385045290E0,-1.143462539E0
1.265732990E1,2.742706537E0,-2.528522015E0,-1.222951293E0
1.267399584E1,1.364824653E0,-2.268980980E0,-1.559843183E0
1.269066177E1,6.971494555E-1,-2.304258347E0,-1.711413980E0
1.270732771E1,-4.129445851E-1,-3.793699265E0,-2.117257357E0
1.272399365E1,-2.600374937E0,-3.283550978E0,-1.740735531E0
1.274065959E1,-2.311817646E0,2.518289983E-1,-1.074205756E0
1.275732552E1,-1.175914705E-1,3.040732145E0,-2.300593138E0
1.277399146E1,2.170707941E0,3.948477268E0,-2.552880287E0
1.279065740E1,3.028362036E0,2.694677353E0,-1.635743141E0
1.280732334E1,1.641546369E0,1.179121733E0,-8.123738170E-1
1.282398927E1,-9.928843379E-1,-1.309541315E-1,-3.829358518E-1
1.284065521E1,-2.920391798E0,-3.813323379E-1,-4.352411721E-3
1.285732115E1,-5.466247082E0,-4.241692424E-1,1.033277750E0
1.287398709E1,-5.963032722E0,-4.512763619E-1,2.416122913E0
1.289065302E1,-1.871231556E0,1.587255716E0,2.596480846E0
1.290731896E1,2.296927929E0,2.614806652E0,2.524627686E0
1.292398490E1,2.779282093E0,2.623053312E0,2.803869247E0
1.294065084E1,8.875865340E-1,3.462916136E0,1.649716735E0
1.295731677E1,-2.699258626E-1,3.652360439E0,9.253838062E-1
1.297398271E1,6.004037261E-1,2.974911451E0,1.118264318E0
1.299064865E1,2.193539143E0,1.832747102E0,1.277318239E0
1.300731459E1,2.280587196E0,6.123919487E-1,1.150105715E0
1.302398052E1,3.732383847E-1,-1.110246703E-1,4.044688344E-1
1.304064646E1,-9.866229892E-1,5.169443041E-2,-7.770963311E-1
1.305731240E1,-1.534110546E0,2.367101051E-2,-7.942769527E-1
1.307397834E1,-6.944769025E-1,-2.912297845E-1,5.390881896E-1
1.309064427E1,6.878337264E-1,2.056323588E-1,7.346412539E-1
1.310731021E1,1.182939649E0,4.376082420E-1,-4.128682315E-1
1.312397615E1,1.218140721E0,3.152062297E-1,-1.895284295E0
1.314064209E1,1.224860191E0,4.314996004E-1,-2.264399290E0
1.315730802E1,1.668424487E0,-2.380845547E-1,-1.920253396E0
1.317397396E1,1.381547093E0,-1.972711444E0,-1.594051600E0
1.319063990E1,-4.972439408E-1,-3.079293013E0,-1.944153547E0
1.320730584E1,-2.578001976E0,-2.243019104E0,-2.457814455E0
1.322397177E1,-1.848782301E0,6.177370250E-2,-2.361679554E0
1.324063771E1,9.512691498E-1,-5.535962060E-2,-1.974620342E0
1.325730365E1,2.076711178E0,-8.450550437E-1,-2.091448307E0
1.327396959E1,1.679878100E-3,-8.857538924E-3,-2.774929523E0
1.329063552E1,-1.697364092E0,2.706131041E-1,-2.331365347E0
1.330730146E1,-1.679572701E0,-5.351175666E-1,2.299905866E-1
1.332396740E1,-2.242637277E-1,-4.746419191E-1,3.793088436E0
1.334063334E1,1.952858329E0,-4.166097939E-1,6.287784100E0
1.335729927E1,2.143142700E0,-1.934837818E0,6.191648960E0
1.337396521E1,-1.001818255E-1,-2.433914423E0,5.874991894E0
1.339063115E1,-1.467526317E0,-6.572141647E-1,5.742815971E0
1.340729709E1,-1.500207543E0,6.992111206E-1,4.999622822E0
1.342396302E1,-3.185659945E-1,9.282090068E-1,3.751091480E0
1.344062896E1,1.331227064E0,3.342193961E-1,2.319682598E0
1.345729490E1,2.508974314E0,-6.719512399E-3,1.021976829E0
1.347396084E1,2.214003086E0,-7.525090575E-1,3.692677617E-1
1.349062677E1,5.538252592E-1,-1.181641579E0,3.362047076E-1
1.350729271E1,-1.067180753E0,-8.849903345E-1,8.666644245E-2
1.352395865E1,-9.774600267E-1,-7.729730010E-1,-6.409498453E-1
1.354062459E1,6.443859935E-1,-1.144989729E0,-1.602909207E0
1.355729052E1,1.628412843E0,-1.958585143E0,-2.900462389E0
1.357395646E1,9.496656656E-1,-2.343430042E0,-3.840583324E0
1.359062240E1,5.497783050E-2,-1.518838882E0,-4.370355606E0
1.360728834E1,-4.062250629E-2,-5.968912244E-1,-4.747488499E0
1.362395427E1,5.402335525E-1,-4.231002033E-1,-5.013672829E0
1.364062021E1,2.099771261E0,-8.554397821E-1,-5.542147160E0
1.365728615E1,3.909916401E0,-1.197218657E0,-6.685991287E0
1.367395209E1,4.590954304E0,-9.523382187E-1,-7.279522896E0
1.369061802E1,3.678398609E0,8.719331026E-1,-6.113381863E0
1.370728396E1,2.295248032E0,2.264322996E0,-5.839256287E0
1.372394990E1,2.422078848E0,2.661537886E0,-7.794329166E0
1.374061584E1,4.829344273E0,3.066999435E0,-9.865618706E0
1.375728177E1,6.266327381E0,4.948997498E0,-1.128878117E1
1.377394771E1,4.505891323E0,6.806637287E0,-1.201655006E1
1.379061365E1,1.979507327E0,8.610138893E0,-1.218323994E1
1.380727959E1,1.552360177E0,9.899827003E0,-1.144424629E1
1.382394552E1,2.351371288E0,9.506888390E0,-9.589584351E0
1.384061146E1,3.047528028E0,7.941700459E0,-6.991805553E0
1.385727740E1,3.541030407E0,7.630617619E0,-4.391659737E0
1.387394334E1,4.077598572E0,6.934842587E0,-2.521726131E0
1.389060927E1,3.220250130E0,5.362171173E0,-3.908007443E-1
1.390727521E1,9.718858600E-1,4.607600212E0,1.782961607E0
1.392394115E1,-1.573893070E0,4.110508919E0,4.451753616E0
1.394060709E1,-3.707032919E0,2.407723427E0,8.959095955E0
1.395727302E1,-3.805840254E0,1.670715213E-1,1.317986584E1
1.397393896E1,-1.789146543E0,-1.711108565E0,1.470191193E1
1.399060490E1,-2.764163166E-2,-2.125656605E0,1.477055740E1
1.400727084E1,4.153116941E-1,-8.421534300E-1,1.509897423E1
1.402393677E1,5.033525825E-1,7.425825000E-1,1.556918716E1
1.404060271E1,1.285412192E0,7.939714789E-1,1.563523674E1
1.405726865E1,3.636325359E0,-1.999054998E-1,1.413678551E1
1.407393459E1,5.191816330E0,-7.190641761E-1,1.227548027E1
1.409060052E1,2.052811146E0,-4.236347377E-1,1.015341282E1
1.410726646E1,-8.470403552E-1,1.069853306E0,7.005168438E0
1.412393240E1,-1.027780026E-1,8.723149300E-1,4.979464054E0
1.414059834E1,2.716515779E0,2.984837890E-1,4.092946529E0
1.415726427E1,1.796095133E0,-1.106886983E0,2.907563686E0
1.417393021E1,-3.053942204E0,-1.192026258E0,1.396589577E-1
1.419059615E1,-4.849808216E0,-6.689732671E-1,-3.459327221E0
1.420726209E1,-1.022511244E0,-1.570227861E0,-5.993881702E0
1.422392802E1,3.907014847E0,-1.917199135E0,-7.663985729E0
1.424059396E1,4.682354927E0,-1.745851517E0,-9.146478653E0
1.425725990E1,1.254945278E0,-1.872300506E0,-1.028467178E1
1.427392584E1,-1.738215685E0,-2.281503677E0,-1.132436371E1
1.429059177E1,-1.802967429E0,-1.229899883E0,-1.263482189E1
1.430725771E1,2.826929569E0,5.825359225E-1,-1.398292351E1
1.432392365E1,8.005764961E0,6.800451875E-1,-1.438342190E1
1.434058959E1,6.860087872E0,-8.335250020E-1,-1.465617275E1
1.435725552E1,8.132901192E-1,-1.648647666E0,-1.628023338E1
1.437392146E1,-3.196808100E0,-3.988183439E-1,-1.652778625E1
1.439058740E1,-3.052720308E0,9.056070447E-1,-1.441938686E1
1.440725334E1,5.519163013E-1,1.657505274E0,-1.183932304E1
1.442391927E1,4.634707451E0,1.764559269E0,-8.659695625E0
1.444058521E1,4.148612022E0,2.267453671E0,-4.961214542E0
1.445725115E1,2.135277748E0,4.195190430E0,-2.553643942E0
1.447391709E1,1.731878042E0,4.547430038E0,-9.980003238E-1
1.449058302E1,2.209803313E-1,4.966636181E0,1.362839341E0
1.450724896E1,-2.997818947E0,4.395324707E0,5.233583927E0
1.452391490E1,-5.904389858E0,3.514381409E0,1.016020870E1
1.454058084E1,-5.201437473E0,1.884899616E0,1.526245689E1
1.455724677E1,-2.125656605E0,-8.731548190E-1,1.713460350E1
1.457391271E1,-3.193295598E-1,-2.059759617E0,1.662674713E1
1.459057865E1,-3.607920110E-1,-1.165759087E0,1.754014206E1
1.460724459E1,-1.808312416E0,1.450269341E0,1.810710144E1
1.462391052E1,-1.903530955E0,2.417726517E0,1.327638245E1
1.464057646E1,1.744248033E0,-6.393463612E-1,1.012516022E1
1.465724240E1,1.752418280E0,-7.146354318E-1,7.559680939E0
1.467390834E1,-2.733619928E0,5.489383340E-1,5.757706165E0
1.469057427E1,-2.834030867E0,1.741270065E0,5.468767166E0
1.470724021E1,1.270140648E0,1.317940712E0,3.991848707E0
1.472390615E1,1.321529627E0,-3.100138716E-2,1.383685112E0
1.474057209E1,-2.934823513E0,4.408152997E-1,-1.328249097E0
1.475723802E1,-4.664716244E0,6.434696913E-1,-4.379671574E0
1.477390396E1,-3.165730476E0,-6.806560755E-1,-6.537169456E0
1.479056990E1,-1.634674191E0,-2.353509188E0,-7.422846794E0
1.480723584E1,-3.089601278E0,-1.745775223E0,-7.884584427E0
1.482390177E1,-4.564457893E0,2.214995623E0,-9.101045609E0
1.484056771E1,-1.794568062E0,4.103178501E0,-1.095998287E1
1.485723365E1,4.560716629E0,3.430845737E0,-1.296606350E1
1.487389959E1,6.434773445E0,2.237368584E0,-1.611239815E1
1.489056552E1,2.111454010E0,2.421391726E0,-1.656268311E1
1.490723146E1,-5.968148708E-1,2.969566345E0,-1.557430267E1
1.492389740E1,-1.633299738E-1,4.280024052E0,-1.376049232E1
1.494056334E1,3.618533850E0,4.756040573E0,-1.092646217E1
1.495722927E1,7.140551090E0,3.023780584E0,-8.062804222E0
1.497389521E1,5.254888058E0,2.918864727E0,-5.351099014E0
1.499056115E1,2.923751593E0,3.967566729E0,-3.399615288E0
1.500722709E1,2.235841513E0,2.451018572E0,-2.080605507E0
1.502389302E1,-5.399280787E-1,2.070068121E0,8.837686181E-1
1.504055896E1,-3.818057537E0,1.790979147E0,6.009840488E0
1.505722490E1,-5.537260056E0,-1.664606482E-1,1.130015850E1
1.507389084E1,-5.014665127E0,-2.228511095E0,1.479789352E1
1.509055677E1,-3.742539406E0,-2.448575020E0,1.588752365E1
1.510722271E1,-2.556469202E0,-1.179198146E0,1.650083160E1
1.512388865E1,-1.618791699E0,1.545487940E-1,1.734038925E1
1.514055459E1,-2.434601545E0,1.019838691E0,1.751036263E1
1.515722052E1,-3.917170465E-1,2.691317558E0,1.465525723E1
1.517388646E1,6.492729187E0,1.063668281E-1,9.501925468E0
1.519055240E1,2.469573498E0,2.099465847E0,5.883543968E0
1.520721834E1,-4.997255802E0,6.077341080E0,3.269195557E0
1.522388427E1,-4.864239693E0,4.027278900E0,1.453629136E0
1.524055021E1,-3.658240080E0,9.162971377E-2,-3.901898861E-1
1.525721615E1,-5.678140640E0,-6.243801713E-1,-2.634888887E0
1.527388209E1,-6.607953548E0,-3.868301213E-1,-4.302473545E0
1.529054802E1,-4.570566654E0,-7.137191296E-1,-5.596132278E0
1.530721396E1,-2.009592295E0,-8.931606412E-1,-6.230973244E0
1.532387990E1,1.619555205E-1,-5.186241865E-1,-6.117734432E0
1.534054584E1,9.350048900E-1,-2.767980993E-1,-6.047255993E0
1.535721177E1,-3.150535226E-1,4.012618065E-1,-6.085434914E0
1.537387771E1,-1.749440312E0,1.079321742E0,-6.845961571E0
1.539054365E1,-5.334376693E-1,1.073976636E0,-8.894496918E0
1.540720959E1,3.051345825E0,1.644448042E0,-1.043456268E1
1.542387552E1,5.262447357E0,1.867337227E0,-1.286259747E1
1.544054146E1,4.475195408E0,1.870315194E0,-1.513196087E1
1.545720740E1,2.807534456E0,2.321515322E0,-1.484630489E1
1.547387334E1,1.456836104E0,3.206352949E0,-1.328378868E1
1.549053927E1,1.596418738E0,4.039267063E0,-1.145524216E1
1.550720521E1,2.912297726E0,4.263378143E0,-9.062254906E0
1.552387115E1,4.169304848E0,3.909458160E0,-6.203713417E0
1.554053709E1,5.750375748E0,3.808894634E0,-3.514686823E0
1.555720302E1,5.073919296E0,2.923293352E0,-1.385441303E0
1.557386896E1,1.786855817E0,3.615784883E0,2.249891281E0
1.559053490E1,-1.130023479E0,3.575696945E0,6.404230118E0
1.560720084E1,-3.013319492E0,1.991419196E0,9.986111641E0
1.562386677E1,-3.970697403E0,5.750528574E-1,1.258595276E1
1.564053271E1,-4.031402111E0,3.055851161E-1,1.369276333E1
1.565719865E1,-3.424507856E0,4.824304581E-1,1.405806065E1
1.567386459E1,-2.601138592E0,1.029918075E0,1.413793087E1
1.569053052E1,-2.965214014E0,1.104748964E0,1.460020256E1
1.570719646E1,-2.684445381E0,1.146287799E0,1.281869221E1
1.572386240E1,-1.909639716E0,1.734703302E0,7.404292107E0
1.574052834E1,-4.100964546E0,2.688492298E0,5.343310356E0
1.575719427E1,-3.988259792E0,3.502240419E0,3.601964235E0
1.577386021E1,-3.229489326E0,2.840139389E0,1.332143426E0
1.579052615E1,-4.706026077E0,8.324559927E-1,8.730021119E-1
1.580719209E1,-5.456625938E0,6.093376130E-2,1.854738146E-1
1.582385802E1,-4.324006557E0,-1.561523080E-1,-8.735366464E-1
1.584052396E1,-2.294255495E0,-6.576722860E-1,-1.289611936E0
1.585718990E1,-9.694424272E-1,-1.197447658E0,-1.612606645E0
1.587385584E1,-9.936479330E-1,-1.382997870E0,-2.145967960E0
1.589052177E1,-1.340848207E0,-1.324813008E0,-2.582965374E0
1.590718771E1,-7.145590782E-1,-1.523573160E0,-3.017519236E0
1.592385365E1,4.077522457E-1,-1.151021957E0,-3.764988661E0
1.594051959E1,5.130500793E-1,-5.197695494E-1,-4.419988632E0
1.595718552E1,-4.390590638E-2,3.891208768E-1,-4.565450668E0
1.597385146E1,4.710530937E-1,1.208443284E0,-4.851640701E0
1.599051740E1,2.430096388E0,1.002887249E0,-5.426999092E0
1.600718334E1,4.968621254E0,4.676169753E-1,-5.791456223E0
1.602384927E1,5.266646862E0,4.530325830E-1,-7.069996357E0
1.604051521E1,3.056614637E0,1.006017923E0,-7.278912067E0
1.605718115E1,1.562133908E0,1.502040148E0,-7.757524490E0
1.607384709E1,1.482187033E0,2.760726929E0,-7.917418480E0
1.609051302E1,2.877096653E0,3.253465891E0,-7.442242146E0
1.610717896E1,4.559876442E0,2.623816967E0,-6.926061153E0
1.612384490E1,4.969690323E0,2.462930441E0,-6.050615788E0
1.614051084E1,5.459069252E0,1.990579247E0,-4.365468979E0
1.615717677E1,5.208156586E0,7.828232050E-1,-2.500880480E0
1.617384271E1,2.991328478E0,2.444222718E-1,-1.198364019E0
1.619050865E1,-4.573849961E-2,3.619373962E-2,1.083139658E0
1.620717459E1,-2.199418545E0,-9.213368297E-1,3.811567068E0
1.622384052E1,-3.072955370E0,-1.420489669E0,5.428831577E0
1.624050646E1,-3.620290041E0,-1.366733551E0,6.062069416E0
1.625717240E1,-4.106385708E0,-1.577710986E0,7.131082535E0
1.627383834E1,-4.125704288E0,-1.915519238E0,7.773178101E0
1.629050427E1,-3.613952398E0,-2.264704704E0,7.474083424E0
1.630717021E1,-3.055163860E0,-2.470031738E0,7.130090237E0
1.632383615E1,-3.431609154E0,-2.005545378E0,6.616581917E0
1.634050209E1,-4.948691845E0,-5.694023371E-1,5.773817539E0
1.635716802E1,-4.079889297E0,1.160184979E0,3.437794209E0
1.637383396E1,-1.528383732E0,1.401781917E0,1.272660375E0
1.639049990E1,-1.108719587E0,6.956986189E-1,3.825540841E-2
1.640716584E1,-1.666362762E0,6.684387922E-1,3.023780696E-2
1.642383177E1,-1.563050270E0,2.464075834E-1,2.897026241E-1
1.644049771E1,-8.386409879E-1,-4.002691507E-1,4.799869955E-1
1.645716365E1,-4.100430012E-2,-5.061014891E-1,5.499309897E-1
1.647382959E1,6.732493639E-1,-2.793942690E-1,7.367029190E-1
1.649049552E1,1.315115571E0,-1.266780794E-1,9.159917235E-1
1.650716146E1,1.945222497E0,1.740200967E-1,7.098248601E-1
1.652382740E1,2.541808367E0,5.139663815E-1,4.070650041E-1
1.654049334E1,3.026529551E0,5.132027864E-1,1.217911690E-1
1.655715927E1,3.576918602E0,2.747364342E-1,-3.186423481E-1
1.657382521E1,3.891055822E0,9.376774728E-2,-7.234929800E-1
1.659049115E1,3.732154846E0,-2.864192128E-1,-8.979712129E-1
1.660715709E1,3.297600746E0,-7.254782915E-1,-1.055116177E0
1.662382302E1,2.424293280E0,-1.093447924E0,-1.001589179E0
1.664048896E1,6.042216420E-1,-1.923613191E0,-1.073365808E0
1.665715490E1,-1.046564102E0,-2.798218727E0,-4.695259333E-1
1.667382084E1,-5.664243698E-1,-1.232877851E0,-8.361211419E-1
1.669048677E1,3.670533597E-1,1.397124052E0,-2.643899202E0
1.670715271E1,9.803616405E-1,1.670256972E0,-2.896720886E0
1.672381865E1,2.160017967E0,6.852375865E-1,-2.193310022E0
1.674048459E1,2.778900146E0,-3.142135739E-1,-1.898796797E0
1.675715052E1,1.610697746E0,-8.668934703E-1,-1.605963469E0
1.677381646E1,-3.188714087E-1,-1.059697628E0,-1.393229842E0
1.679048240E1,-3.079522133E0,-8.459713459E-1,-1.090240955E0
1.680714834E1,-5.477471828E0,5.345067009E-3,-8.654426932E-1
1.682381427E1,-4.252458572E0,8.642973304E-1,-6.696605086E-1
1.684048021E1,2.550360560E-1,-1.387426704E-1,1.763872057E-2
1.685714615E1,3.931907415E0,-1.192637086E0,5.148826241E-1
1.687381209E1,3.640753984E0,-4.923570156E-1,1.776089370E-1
1.689047802E1,-3.080285788E-1,1.068097115E0,-9.980003238E-1
1.690714396E1,-3.209178209E0,2.558377981E0,-1.551672935E0
1.692380990E1,-2.095189810E0,2.292117357E0,-9.612720609E-1
1.694047584E1,1.801440239E0,-5.360338464E-2,3.061959743E-1
1.695714177E1,4.135783672E0,-1.671173334E0,7.641918659E-1
1.697380771E1,2.615646601E0,-8.250492215E-1,4.664716125E-1
1.699047365E1,-1.225929260E0,6.815723777E-1,8.904117942E-1
1.700713959E1,-2.967733860E0,8.239802122E-1,1.962479472E0
1.702380552E1,-1.785099626E0,3.828594983E-1,2.085950613E0
1.704047146E1,2.372446060E-1,-1.963930279E-1,1.460806727E0
1.705713740E1,1.383303285E0,-8.284853697E-1,6.368265152E-1
1.707380334E1,1.400941968E0,-1.092531681E0,1.982256174E-1
1.709046927E1,8.040507436E-1,-8.587995172E-1,-1.712712198E-1
1.710713521E1,3.391063213E-1,-6.165152788E-1,-2.971093655E-1
1.712380115E1,-1.062904745E-1,-8.955277801E-1,-1.727983803E-1
1.714046709E1,-8.794162273E-1,-1.070158720E0,-4.460076392E-1
1.715713302E1,-1.326645613E0,-5.903244615E-1,-4.937314689E-1
1.717379896E1,-8.075632453E-1,1.580612659E-1,-2.718348242E-2
1.719046490E1,3.066541255E-1,4.547888339E-1,3.519344628E-1
1.720713084E1,1.295262456E0,5.119810700E-1,2.486219704E-1
1.722379677E1,1.864741087E0,3.422369957E-1,-5.225184560E-1
1.724046271E1,1.851912975E0,-7.246383280E-2,-1.037401080E0
1.725712865E1,1.406745195E0,-3.108538091E-1,-8.271872401E-1
1.727379459E1,7.762564421E-1,-2.186895907E-1,-2.807687223E-1
1.729046052E1,1.795942485E-1,3.322340846E-1,4.293615818E-1
1.730712646E1,-1.053130865E0,1.312443018E0,1.225547433E0
1.732379240E1,-2.936045170E0,-1.685223281E-1,3.064937592E0
1.734045834E1,-2.285168886E0,-7.977130413E-1,3.636630774E0
1.735712427E1,2.452622056E-1,-5.129737258E-1,3.222006321E0
1.737379021E1,1.486921191E0,4.207331315E-2,2.768744707E0
1.739045615E1,2.474766016E0,3.522399068E-1,2.561737776E0
1.740712209E1,3.017595768E0,3.858374655E-1,2.250807524E0
1.742378802E1,3.098458767E0,-6.520981342E-2,1.967900872E0
1.744045396E1,2.618242741E0,-6.378955245E-1,1.834045172E0
1.745711990E1,2.000276804E0,-7.861829996E-1,1.682168841E0
1.747378584E1,1.433546901E0,-6.611084342E-1,1.528536439E0
1.749045177E1,1.368947983E0,-7.147117853E-1,1.399796605E0
1.750711771E1,1.823278666E0,-1.115668178E0,1.187979221E0
1.752378365E1,1.995771646E0,-1.619020700E0,8.679624796E-1
1.754044959E1,1.643073559E0,-1.616500974E0,2.365573794E-1
1.755711552E1,1.612606645E0,-1.423314929E0,-3.417788446E-1
1.757378146E1,2.597702503E0,-1.592753530E0,-7.766382098E-1
1.759044740E1,4.503218651E0,-1.934914231E0,-1.393458962E0
1.760711334E1,5.532526016E0,-2.693760872E0,-2.306472778E0
1.762377927E1,4.703964233E0,-3.275762320E0,-2.864421368E0
1.764044521E1,2.641684771E0,-2.358778000E0,-3.024544239E0
1.765711115E1,2.022115231E0,-6.094139814E-1,-3.825464249E0
1.767377709E1,3.978791475E0,3.448331654E-1,-5.886980057E0
1.769044302E1,5.364767075E0,7.092903852E-1,-7.965218544E0
1.770710896E1,5.271305084E0,1.198669434E0,-8.423367500E0
1.772377490E1,4.875235558E0,1.874056816E0,-8.940922737E0
1.774044084E1,4.448011875E0,2.438724995E0,-9.433737755E0
1.775710677E1,3.707414627E0,3.013166904E0,-9.224592209E0
1.777377271E1,3.037143230E0,3.583485603E0,-8.613880157E0
1.779043865E1,2.943375587E0,3.961916208E0,-7.721636295E0
1.780710459E1,3.545764685E0,3.645335674E0,-6.171414375E0
1.782377052E1,4.724810123E0,2.823493481E0,-4.152200699E0
1.784043646E1,4.878060818E0,2.245997190E0,-2.647335291E0
1.785710240E1,3.034089088E0,3.007058144E0,-1.500589371E0
1.787376834E1,9.557743073E-1,4.430296898E0,2.000582218E-2
1.789043427E1,2.778671086E-1,3.482463837E0,3.390299559E0
1.790710021E1,5.861247778E-1,1.050687432E0,7.190184116E0
1.792376615E1,1.182328820E0,9.712749720E-2,9.545525551E0
1.794043209E1,1.988288522E0,-2.106719911E-1,1.104153347E1
1.795709802E1,3.507203817E0,-1.388953775E-1,1.245217323E1
1.797376396E1,5.267945290E0,4.823541045E-1,1.272263336E1
1.799042990E1,5.192045212E0,1.723707676E0,1.137804413E1
1.800709584E1,3.008890867E0,2.495077133E0,9.930752754E0
1.802376177E1,-2.974911332E-1,8.366556764E-1,9.775287628E0
1.804042771E1,-1.604665399E0,-1.651396632E0,9.142966270E0
1.805709365E1,2.561050653E-1,-2.627329350E0,6.788234711E0
1.807375959E1,2.684521675E0,-1.686521292E0,4.316981316E0
1.809042552E1,3.580278397E0,-2.738201320E-1,3.048902512E0
1.810709146E1,1.844277143E0,-4.214966893E-1,3.029660225E0
1.812375740E1,-2.877936661E-1,-2.030743599E0,2.077932835E0
1.814042334E1,-8.189405799E-1,-3.265072346E0,-5.606974959E-1
1.815708927E1,-1.894444376E-1,-3.183140039E0,-3.844859362E0
1.817375521E1,-3.577376902E-1,-2.119089842E0,-6.642848969E0
1.819042115E1,-1.302440047E0,-1.467679024E0,-8.365029335E0
1.820708709E1,-2.483012676E0,-1.863748431E0,-9.219476700E0
1.822375302E1,-3.078071356E0,-7.183006406E-1,-1.069440937E1
1.824041896E1,-1.932088971E0,1.935830474E0,-1.272125912E1
1.825708490E1,1.733176112E0,2.751029491E0,-1.391763783E1
1.827375084E1,4.797884464E0,1.272431374E0,-1.441701984E1
1.829041677E1,4.242532253E0,1.202869058E0,-1.544082928E1
1.830708271E1,2.849607944E0,2.330067396E0,-1.555857277E1
1.832374865E1,2.851440430E0,2.521420717E0,-1.420451546E1
1.834041459E1,2.335183382E0,2.481867313E0,-1.154259586E1
1.835708052E1,1.041677117E0,1.949269533E0,-9.114866257E0
1.837374646E1,1.021213174E0,1.696066022E0,-6.821298122E0
1.839041240E1,2.755687475E0,1.724089503E0,-3.691150427E0
1.840707834E1,3.796371937E0,6.595048904E-1,-1.331150770E0
1.842374427E1,2.567541122E0,3.126100600E-1,-3.027598560E-1
1.844041021E1,-1.081459761E0,2.232100010E0,7.595340014E-1
1.845707615E1,-4.711905479E0,3.832565546E0,3.361130714E0
1.847374209E1,-6.945150852E0,2.951927662E0,6.429199219E0
1.849040802E1,-6.596652508E0,7.706822753E-1,9.780708313E0
1.850707396E1,-4.610731125E0,-1.869017124E0,1.269735909E1
1.852373990E1,-3.749640703E0,-3.543015718E0,1.481721210E1
1.854040584E1,-3.834474564E0,-4.513985157E0,1.676113701E1
1.855707177E1,-3.244684696E0,-4.774061203E0,1.829929352E1
1.857373771E1,-1.642080903E0,-3.237812519E0,1.769568443E1
1.859040365E1,8.463531733E-1,-1.539150119E0,1.210321617E1
1.860706959E1,9.199623466E-1,-8.583413959E-1,8.733457565E0
1.862373552E1,-1.108490467E0,1.625663936E-1,6.127966404E0
1.864040146E1,-1.179732561E0,-2.524398565E-1,4.516123295E0
1.865706740E1,2.134972334E0,-3.371210098E-1,3.166035891E0
1.867373334E1,2.238590240E0,-3.369682729E-1,1.831601739E0
1.869039927E1,-2.823875189E0,-1.461341262E0,1.369711518E0
1.870706521E1,-6.057946205E0,-6.484329700E-1,-2.199113131E0
1.872373115E1,-5.558640480E0,-1.021442294E0,-6.317257881E0
1.874039709E1,-5.526340961E0,-2.609232664E0,-7.612215042E0
1.875706302E1,-6.425533772E0,-3.016908467E-1,-8.505375862E0
1.877372896E1,-5.969599724E0,3.677787781E0,-1.015967369E1
1.879039490E1,-2.617861032E0,6.264571190E0,-1.146738243E1
1.880706084E1,2.848767996E0,7.460262299E0,-1.276226330E1
1.882372677E1,5.450440884E0,6.452259064E0,-1.502032471E1
1.884039271E1,2.846400738E0,5.140579700E0,-1.639614487E1
1.885705865E1,9.127846956E-1,4.988321781E0,-1.533049202E1
1.887372459E1,6.317868829E-1,5.063076496E0,-1.287115002E1
1.889039052E1,2.895957232E0,4.943652153E0,-1.025901604E1
1.890705646E1,6.361240387E0,3.272937059E0,-8.302034378E0
1.892372240E1,5.497706890E0,3.034012556E0,-4.839958191E0
1.894038834E1,2.936579704E0,2.987434149E0,-2.088317633E0
1.895705427E1,1.149876595E0,2.187201262E0,-6.833286285E-1
1.897372021E1,-7.569378018E-1,2.420246363E0,1.635819554E0
1.899038615E1,-3.181460142E0,1.314810038E0,5.732813358E0
1.900705209E1,-5.648972034E0,-1.308014244E-1,1.043448639E1
1.902371802E1,-5.998081207E0,-1.793575406E0,1.427659702E1
1.904038396E1,-4.116083145E0,-1.885815978E0,1.570785332E1
1.905704990E1,-2.568991899E0,-1.249218464E0,1.685933304E1
1.907371584E1,-2.140470266E0,-1.111544847E0,1.856608963E1
1.909038177E1,-1.569998860E0,-3.352120519E-2,1.905065727E1
1.910704771E1,-1.155297995E0,1.622762322E0,1.604695892E1
1.912371365E1,1.418886185E0,-6.729438901E-1,1.181397247E1
1.914037959E1,1.052520037E0,1.181565166E0,6.467149258E0
1.915704552E1,-3.686416149E0,3.173595190E0,3.832183838E0
1.917371146E1,-6.211273193E0,2.663064957E0,3.336467028E0
1.919037740E1,-5.661112785E0,5.297724605E-1,9.428697824E-1
1.920704334E1,-4.688845158E0,-9.763146043E-1,-2.212094069E0
1.922370927E1,-3.918239355E0,-1.040989995E0,-5.151651859E0
1.924037521E1,-4.510931015E0,1.786779426E-2,-8.099532127E0
1.925704115E1,-4.622032166E0,1.068860650E0,-9.023007393E0
1.927370709E1,-3.984212875E0,9.213368297E-1,-8.703830719E0
1.929037302E1,-2.804403782E0,1.944917083E0,-8.518662453E0
1.930703896E1,-1.280143499E0,4.312247276E0,-9.285602570E0
1.932370490E1,3.723220825E-1,6.401251793E0,-1.047075653E1
1.934037084E1,2.774166107E0,7.032198906E0,-1.148295975E1
1.935703677E1,3.992841244E0,6.848404884E0,-1.299233055E1
1.937370271E1,3.850967884E0,7.333431721E0,-1.463005829E1
1.939036865E1,5.520690441E0,7.020821571E0,-1.466304588E1
1.940703459E1,6.791136265E0,5.880413532E0,-1.266078377E1
1.942370052E1,4.311789036E0,4.644633770E0,-1.069754028E1
1.944036646E1,8.767436743E-1,4.817203522E0,-8.441082001E0
1.945703240E1,2.740721226E0,4.500546455E0,-4.817966938E0
1.947369834E1,6.057487965E0,1.290833592E0,-2.204687357E0
1.949036427E1,4.577056885E0,9.474512935E-1,-1.476002038E-1
1.950703021E1,7.862593532E-1,2.464762926E0,3.148549795E0
1.952369615E1,-1.999207735E0,2.212399483E0,7.341296673E0
1.954036209E1,-3.596160889E0,8.753692508E-1,1.215017700E1
1.955702802E1,-4.386467457E0,-1.590233684E0,1.563042641E1
1.957369396E1,-3.409923553E0,-1.984088778E0,1.637575722E1
1.959035990E1,-1.648647666E0,-1.491808176E0,1.669836998E1
1.960702584E1,-1.838015795E0,-8.555924892E-1,1.715728188E1
1.962369177E1,-5.312003613E0,4.885390997E-1,1.601427841E1
1.964035771E1,-2.927416801E0,2.409097999E-1,1.188628292E1
1.965702365E1,4.728016853E0,2.241873741E-1,7.863585949E0
1.967368959E1,1.678350925E0,1.202410936E0,5.676308155E0
1.969035552E1,-5.800008297E0,3.545535564E0,3.628384113E0
1.970702146E1,-5.631333351E0,2.916497469E0,1.653305531E0
1.972368740E1,-2.664515734E0,9.971603751E-1,1.831830740E-1
1.974035334E1,-1.718897104E0,2.153298259E-2,-1.160032272E0
1.975701927E1,-2.697960615E0,-6.721040010E-1,-2.464457512E0
1.977368521E1,-3.759032726E0,-1.276020169E0,-3.850204229E0
1.979035115E1,-4.360352993E0,-1.170875072E0,-5.290547371E0
1.980701709E1,-3.649840593E0,-3.472766280E-1,-5.727162838E0
1.982368302E1,-1.564577460E0,-2.789361179E-1,-5.224421024E0
1.984034896E1,3.460549116E-1,-1.141553521E0,-4.850647926E0
1.985701490E1,3.420842886E-1,-1.517082691E0,-5.238012791E0
1.987368084E1,-2.925507784E0,-3.038288653E-1,-5.213272572E0
1.989034677E1,-5.840783596E0,2.951087713E0,-5.426158905E0
1.990701271E1,-2.607094526E0,5.113854408E0,-6.334362507E0
1.992367865E1,5.369806767E0,4.959076405E0,-1.032865429E1
1.994034459E1,8.371443748E0,4.579500675E0,-1.306296158E1
1.995701052E1,3.772166252E0,4.985572815E0,-1.211741924E1
1.997367646E1,1.027703643E0,5.715098381E0,-1.126457596E1
1.999034240E1,1.946826100E0,6.042521477E0,-9.603787422E0
2.000700834E1,3.805534840E0,4.999546528E0,-7.424756050E0
2.002367427E1,4.616686821E0,4.023460865E0,-5.233736515E0
2.004034021E1,5.051088333E0,3.765599489E0,-2.914817572E0
2.005700615E1,4.749931812E0,2.575940371E0,-2.063119411E0
2.007367209E1,2.452774763E0,2.015395641E0,-5.073232055E-1
2.009033802E1,-6.156753302E-1,1.577787399E0,2.904433012E0
2.010700396E1,-2.765079498E0,2.829830945E-1,6.357117176E0
2.012366990E1,-3.186041594E0,-3.884336352E-1,8.665727615E0
2.014033584E1,-2.752327681E0,-5.145008564E-1,9.888525963E0
2.015700177E1,-1.862755775E0,-4.012618065E-1,1.093379211E1
2.017366771E1,-7.810669541E-1,-7.747292519E-1,1.136277199E1
2.019033365E1,-7.029526234E-1,-1.143844247E0,1.101732826E1
2.020699959E1,-2.473315239E0,-6.926442981E-1,1.019021702E1
2.022366552E1,-5.728689671E0,-7.434224486E-1,8.082122803E0
2.024033146E1,-7.177203178E0,-8.917098641E-1,7.289678574E0
2.025699740E1,-4.021093845E0,-5.270236135E-1,4.766043186E0
2.027366334E1,-1.787543058E0,-1.617264450E-1,1.425605655E0
2.029032927E1,-3.462763309E0,1.168278884E-2,4.465421438E-1
2.030699521E1,-4.715341568E0,-1.977674663E-1,2.564868629E-1
2.032366115E1,-3.612272501E0,-1.228983521E0,-5.554288030E-1
2.034032709E1,-1.733099699E0,-1.800752997E0,-9.156099558E-1
2.035699302E1,-6.388118267E-1,-1.806250811E0,-1.373682141E0
2.037365896E1,-2.745837271E-1,-1.540906429E0,-1.894826174E0
2.039032490E1,-3.462839723E-1,-1.263879180E0,-1.807396173E0
2.040699084E1,-3.696495593E-1,-1.296102405E0,-2.340604782E0
2.042365677E1,-2.702313066E-1,-2.007225275E0,-3.587227106E0
2.044032271E1,2.676351368E-1,-1.900476694E0,-4.453586102E0
2.045698865E1,4.704193115E0,-3.024620533E0,-5.384696484E0
2.047365459E1,8.401987076E0,-6.390638351E0,-9.605772018E0
2.049032052E1,5.207393169E0,-7.206600666E0,-1.381783772E1
2.050698646E1,-1.808923334E-1,-4.733973026E0,-1.544029427E1
2.052365240E1,-4.528035223E-2,-2.123365879E0,-1.551604176E1
2.054031834E1,1.747684121E0,-1.622075081E0,-1.023229027E1
2.055698427E1,1.919337153E0,-3.759643555E0,-2.522566080E0
2.057365021E1,-5.838339925E-1,-3.585165501E0,-2.007836103E0
2.059031615E1,-6.212953091E0,-5.487856269E-1,-3.203985691E0
2.060698209E1,-6.830231667E0,3.602956772E0,-1.564348340E0
2.062364802E1,-1.493182540E0,3.105178356E0,-1.776852906E-1
2.064031396E1,2.164294004E0,1.804036379E0,-7.486147881E-1
2.065697990E1,-5.070177838E-2,1.776852965E0,3.284925222E-1
2.067364584E1,-2.687117815E0,2.183307171E0,2.454454660E0
2.069031177E1,-1.717904449E0,2.010661364E0,3.978104115E0
2.070697771E1,-8.778890371E-1,1.005941629E0,4.818425179E0
2.072364365E1,-1.047480345E0,-7.668643594E-1,6.041681767E0
2.074030959E1,-1.233946800E0,-2.185368776E0,6.923846722E0
2.075697552E1,-2.131307125E0,-2.484768867E0,7.282042503E0
2.077364146E1,-3.260108948E0,-1.474322200E0,7.102448463E0
2.079030740E1,-3.398546219E0,-1.073976636E0,6.019614220E0
2.080697334E1,-2.917490244E0,-1.625358462E0,5.139129162E0
2.082363927E1,-4.333245754E0,-2.557003498E0,5.314752579E0
2.084030521E1,-5.834445953E0,-3.312872410E0,5.447921276E0
2.085697115E1,-5.365301609E0,-1.603596449E0,4.027966022E0
2.087363709E1,-4.853626251E0,3.443750143E-1,2.065104723E0
2.089030302E1,-4.616381645E0,3.213912249E-1,1.036561131E0
2.090696896E1,-3.298975229E0,-6.658425927E-2,7.723621726E-1
2.092363490E1,-1.992488146E0,-2.617555559E-1,5.949059129E-1
2.094030084E1,-1.817551851E0,-3.065777719E-1,4.420370162E-1
2.095696677E1,-1.751502037E0,-2.697731555E-1,3.301724195E-1
2.097363271E1,-1.012050271E0,-9.078978002E-2,2.780198455E-1
2.099029865E1,8.605557680E-2,2.675587833E-1,1.063668281E-1
2.100696459E1,1.271133304E0,4.680751264E-1,-1.540906429E-1
2.102363052E1,2.483165264E0,8.922443390E-1,-6.369792223E-1
2.104029646E1,3.788430691E0,1.870697021E0,-1.478216410E0
2.105696240E1,4.932351112E0,2.744691849E0,-2.199495077E0
2.107362834E1,5.829253674E0,3.284925461E0,-2.580903769E0
2.109029427E1,6.375442982E0,3.654651165E0,-2.713766813E0
2.110696021E1,6.156600475E0,4.166021347E0,-2.960861683E0
2.112362615E1,4.573544502E0,4.587747097E0,-2.769584656E0
2.114029209E1,2.359694242E0,3.642510414E0,-1.364366531E0
2.115695802E1,2.813795805E0,2.344804525E0,-4.479165971E-1
2.117362396E1,4.850037098E0,4.111731052E0,-2.625191450E0
2.119028990E1,4.102262497E0,5.777788162E0,-3.784460068E0
2.120695584E1,2.083048820E0,6.035649300E0,-3.202687740E0
2.122362177E1,1.761581302E0,4.277427673E0,-2.174907684E0
2.124028771E1,2.150014877E0,1.536859393E0,-1.060232162E0
2.125695365E1,2.043342590E0,6.385064125E-1,-5.891027451E-1
2.127361959E1,1.497687697E0,1.110857606E0,-6.317868829E-1
2.129028552E1,9.822705388E-1,1.502650976E0,-6.598103046E-1
2.130695146E1,7.187587619E-1,1.261817575E0,-5.326740742E-1
2.132361740E1,7.957277298E-1,5.000692010E-1,-3.623191714E-1
2.134028334E1,1.023503900E0,-7.396808863E-1,-6.750056148E-2
2.135694927E1,7.247910500E-1,-1.836565018E0,4.347066581E-1
2.137361521E1,-5.322159529E-1,-1.977369308E0,7.859538794E-1
2.139028115E1,-2.575482368E0,-1.216918945E0,7.836631536E-1
2.140694709E1,-4.422584534E0,-7.541889548E-1,4.486038089E-1
2.142361302E1,-4.958542347E0,-1.292055368E0,2.304487377E-1
2.144027896E1,-4.477944374E0,-3.355174780E0,1.217377186E0
2.145694490E1,-2.987357855E0,-4.987634659E0,2.468428135E0
2.147361084E1,-1.695302486E0,-3.118083000E0,2.279594660E0
2.149027677E1,-1.106047034E0,-9.162971983E-4,1.935677826E-1
2.150694271E1,-1.400483847E0,1.239979148E0,-1.354592681E0
2.152360865E1,-1.452101946E0,9.004910588E-1,-9.970076680E-1
2.154027459E1,-6.201804876E-1,-5.784889460E-1,2.278525680E-1
2.155694052E1,5.329795182E-2,-2.002949238E0,1.050382018E0
2.157360646E1,1.031597927E-1,-2.259054422E0,1.330997944E0
2.159027240E1,-7.070759684E-2,-1.773798585E0,1.166599035E0
2.160693834E1,-1.122464053E-2,-1.108643174E0,6.035344005E-1
2.162360427E1,2.897026241E-1,-5.991820097E-1,8.445205539E-2
2.164027021E1,6.980656981E-1,-1.886045039E-1,-6.444623321E-2
2.165693615E1,1.369329810E0,-1.985310577E-3,-7.070759684E-2
2.167360209E1,2.061210394E0,2.007454336E-1,-1.577558219E-1
2.169026802E1,2.472627878E0,6.470585465E-1,-4.618137777E-1
2.170693396E1,2.642524719E0,1.286939383E0,-9.611193538E-1
2.172359990E1,2.712926865E0,1.872376919E0,-1.423085809E0
2.174026584E1,2.772791624E0,2.253556490E0,-1.621998668E0
2.175693177E1,2.506607294E0,2.680932760E0,-1.845346093E0
2.177359771E1,1.451261997E0,3.443826437E0,-2.233321667E0
2.179026365E1,6.268999726E-2,3.489717722E0,-1.290375471E0
2.180692959E1,-4.690677822E-1,-2.845102847E-1,7.910698652E-1
2.182359552E1,-5.678751469E-1,-2.903898478E0,9.832631946E-1
2.184026146E1,-4.966330528E-1,8.674279600E-2,-3.103956580E-1
2.185692740E1,-8.607848287E-1,3.125107765E0,-1.119638801E0
2.187359334E1,-8.635337353E-1,2.871446371E0,-1.157054305E0
2.189025927E1,-3.737728894E-1,9.938006401E-1,-6.995928884E-1
2.190692521E1,4.783834815E-1,-8.160389662E-1,-2.754236460E-1
2.192359115E1,1.163315654E0,-1.393382549E0,-1.344666034E-1
2.194025709E1,1.082605124E0,-1.152625442E0,-3.895026445E-1
2.195692302E1,2.916879356E-1,-9.101884961E-1,-6.898190379E-1
2.197358896E1,-6.186532974E-1,-1.025794625E0,-9.155336022E-1
2.199025490E1,-1.457981467E0,-9.754747152E-1,-9.686788321E-1
2.200692084E1,-2.360915899E0,-8.694896698E-1,-5.200750232E-1
2.202358677E1,-3.561265230E0,-1.092531681E0,7.626646757E-1
2.204025271E1,-3.907167435E0,-2.096106052E0,2.408410788E0
2.205691865E1,-1.782656193E0,-2.700404167E0,2.245691538E0
2.207358459E1,8.645263910E-1,-1.012508392E0,7.659480572E-1
2.209025052E1,1.210199475E0,1.106047034E0,-4.092030525E-1
2.210691646E1,-8.536835015E-2,1.972940564E0,-9.728021622E-1
2.212358240E1,-1.295949578E0,2.007301569E0,-9.037744403E-1
2.214024834E1,-1.411632180E0,1.103221774E0,-3.433823586E-1
2.215691427E1,-7.989347577E-1,2.130390853E-1,2.717584670E-1
2.217358021E1,-7.055488229E-2,1.050687432E-1,4.624246359E-1
2.219024615E1,5.894081593E-1,2.545015514E-1,1.744782478E-1
2.220691209E1,1.035721183E0,3.581958413E-1,-2.561050653E-1
2.222357802E1,1.178587198E0,4.499782622E-1,-5.261836648E-1
2.224024396E1,1.097571254E0,4.775435328E-1,-5.680279136E-1
2.225690990E1,8.796452880E-1,6.152935624E-1,-5.253437161E-1
2.227357584E1,4.131736755E-1,1.038012028E0,-2.994764447E-1
2.229024177E1,-1.762344837E-1,1.491273642E0,2.835939825E-1
2.230690771E1,-3.864483237E-1,4.495201111E-1,1.834045172E0
2.232357365E1,1.945604384E-1,-2.212628603E0,2.979187489E0
2.234023959E1,8.426116109E-1,-3.044779062E0,1.748218656E0
2.235690552E1,1.254563481E-1,-2.446513474E-1,-1.904370934E-1
2.237357146E1,-1.570762396E0,2.449567795E0,-9.775363803E-1
2.239023740E1,-2.491335630E0,2.716592073E0,-1.125442028E0
2.240690334E1,-2.089844704E0,1.805410862E0,-1.140026450E0
2.242356927E1,-1.008614063E0,7.003564835E-1,-9.598212838E-1
2.244023521E1,-1.473711282E-1,-2.493855506E-1,-5.900954008E-1
2.245690115E1,3.246746361E-1,-8.887318969E-1,-3.754527569E-1
2.247356709E1,4.182133079E-1,-1.191644430E0,-3.501018882E-1
2.249023302E1,-1.710421406E-2,-1.228296399E0,-4.546361268E-1
2.250689896E1,-1.283808708E0,-1.240437269E0,-5.083158612E-1
2.252356490E1,-3.221777201E0,-1.714773774E0,-9.231694043E-2
2.254023084E1,-4.528569698E0,-2.545626163E0,6.468294263E-1
2.255689677E1,-4.389674187E0,-3.126253128E0,1.142775297E0
2.257356271E1,-3.396942616E0,-2.564792156E0,1.201800108E0
2.259022865E1,-2.541502953E0,-1.306563377E0,1.061912060E0
2.260689459E1,-2.212017775E0,-4.799106419E-1,8.227584958E-1
2.262356052E1,-2.175671339E0,-3.709476292E-1,5.250383019E-1
2.264022646E1,-2.233779669E0,-5.752055645E-1,2.499964088E-1
2.265689240E1,-2.385808706E0,-9.214131832E-1,-1.832594350E-2
2.267355834E1,-2.609690666E0,-1.258305073E0,-1.318704337E-1
2.269022427E1,-2.688034058E0,-1.525634766E0,-8.559742570E-2
2.270689021E1,-2.462319613E0,-1.752112865E0,-2.252563834E-2
2.272355615E1,-2.087324858E0,-1.830303550E0,-3.291033953E-2
2.274022209E1,-1.920864344E0,-1.719508052E0,-1.210275814E-1
2.275688802E1,-2.068999052E0,-1.587713957E0,-2.892444730E-1
2.277355396E1,-2.423835039E0,-1.551443815E0,-5.237401724E-1
2.279021990E1,-2.784703493E0,-1.571602345E0,-7.275399566E-1
2.280688584E1,-3.009196281E0,-1.523267627E0,-9.308052063E-1
2.282355177E1,-3.128849506E0,-1.373605847E0,-1.059315920E0
2.284021771E1,-3.225824118E0,-1.103832603E0,-1.091309905E0
2.285688365E1,-3.339215994E0,-9.122501612E-1,-1.062446594E0
2.287354959E1,-3.355403900E0,-9.288198948E-1,-9.511927962E-1
2.289021552E1,-3.309283495E0,-1.181183457E0,-8.198568821E-1
2.290688146E1,-3.345477343E0,-1.670638800E0,-5.821541548E-1
2.292354740E1,-3.460777998E0,-2.285168886E0,-2.415970266E-1
2.294021334E1,-3.531790972E0,-2.786230564E0,2.955058403E-2
2.295687927E1,-3.492772102E0,-2.728961945E0,1.207221523E-1
2.297354521E1,-3.455738306E0,-1.892382741E0,-2.382372692E-2
2.299021115E1,-3.466504812E0,-5.017490387E-1,-4.134790897E-1
2.300687709E1,-3.509494543E0,5.839866996E-1,-7.460185885E-1
2.302354302E1,-3.525682449E0,7.733548284E-1,-7.677043080E-1
2.304020896E1,-3.389154196E0,2.756527364E-1,-4.345539212E-1
2.305687490E1,-3.113119602E0,-4.754055142E-1,-1.234710440E-1
2.307354084E1,-2.781649113E0,-7.121919990E-1,1.005636156E-1
2.309020677E1,-2.433532476E0,-2.902371287E-1,1.276707351E-1
2.310687271E1,-2.109163284E0,5.236638188E-1,-9.017891437E-2
2.312353865E1,-1.863137603E0,1.130863428E0,-2.835939825E-1
2.314020459E1,-1.730350852E0,1.032819629E0,-3.843103051E-1
2.315687052E1,-1.701487541E0,4.516581595E-1,-5.059487820E-1
2.317353646E1,-1.764941096E0,-1.834885031E-1,-6.211731434E-1
2.319020240E1,-1.936746836E0,-5.972730517E-1,-6.760746241E-1
2.320686834E1,-2.085644960E0,-4.237874448E-1,-8.008437157E-1
2.322353427E1,-2.131841660E0,1.603520066E-1,-9.854776263E-1
2.324020021E1,-2.162461281E0,6.710349321E-1,-1.026329160E0
2.325686615E1,-2.289062977E0,7.406735420E-1,-9.905172586E-1
2.327353209E1,-2.433303595E0,4.072940946E-1,-9.782235622E-1
2.329019802E1,-2.404058456E0,-4.352411721E-3,-9.974658489E-1
2.330686396E1,-2.070755243E0,-2.683223486E-1,-1.086346626E0
2.332352990E1,-1.559614182E0,-2.081521749E-1,-1.217529893E0
2.334019584E1,-1.092531681E0,-4.795288667E-2,-1.288237453E0
2.335686177E1,-9.128610492E-1,1.766926348E-1,-1.245400548E0
2.337352771E1,-1.013271928E0,3.166570365E-1,-1.116279006E0
2.339019365E1,-1.117195368E0,1.507308781E-1,-9.811251760E-1
2.340685959E1,-9.626465440E-1,-2.064722925E-1,-1.005407095E0
2.342352552E1,-4.971675575E-1,-2.749654949E-1,-1.243491650E0
2.344019146E1,-4.008800164E-2,-3.107774630E-2,-1.701716542E0
2.345685740E1,1.046869531E-1,3.350593448E-1,-2.194302559E0
2.347352334E1,-1.557705253E-1,6.688205600E-1,-2.427271128E0
2.349018927E1,-7.907644510E-1,5.006800294E-1,-2.363283157E0
2.350685521E1,-1.504865408E0,1.337030232E-1,-2.296011686E0
2.352352115E1,-1.835037827E0,1.360701323E-1,-2.471406221E0
2.354018709E1,-1.429652691E0,6.575959325E-1,-2.629238367E0
2.355685302E1,-4.804451466E-1,1.123991251E0,-2.556392670E0
2.357351896E1,4.646390080E-1,1.164995551E0,-2.517373800E0
2.359018490E1,1.148273110E0,1.101007462E0,-2.594495535E0
2.360685084E1,1.444007993E0,8.714749813E-1,-2.687957764E0
2.362351677E1,1.351691008E0,5.105302334E-1,-2.820668221E0
2.364018271E1,1.163010240E0,3.914879560E-1,-2.692157507E0
2.365684865E1,1.006170630E0,3.950767815E-1,-1.520900607E0
2.367351459E1,7.702241540E-1,4.577668011E-1,-8.166498542E-1
2.369018052E1,5.082395077E-1,9.067524076E-1,-1.106428862E0
2.370684646E1,2.344193608E-1,1.526703835E0,-1.531972528E0
2.372351240E1,-4.657844082E-3,1.551214695E0,-1.788917542E0
2.374017834E1,-1.298087686E-1,1.227532744E0,-1.694997072E0
2.375684427E1,-1.927278340E-1,8.040507436E-1,-1.614897370E0
2.377351021E1,-2.306014597E-1,4.008800089E-1,-1.577176452E0
2.379017615E1,-2.352592945E-1,9.361502528E-2,-1.404912591E0
2.380684209E1,-1.974620372E-1,6.452259421E-2,-1.121624112E0
2.382350802E1,-1.889862865E-1,4.166097939E-1,-9.610430002E-1
2.384017396E1,-2.557996213E-1,6.940187216E-1,-9.574542046E-1
2.385683990E1,-3.945422769E-1,5.713112950E-1,-9.666171670E-1
2.387350584E1,-5.479456782E-1,3.067304790E-1,-9.695187807E-1
2.389017177E1,-6.052142978E-1,2.995528281E-1,-8.716276884E-1
2.390683771E1,-5.749000907E-1,5.336667299E-1,-6.910407543E-1
2.392350365E1,-5.764272809E-1,6.562215090E-1,-5.406916738E-1
2.394016959E1,-5.484038591E-1,6.551524997E-1,-4.318050444E-1
2.395683552E1,-3.566686809E-1,6.577486396E-1,-3.265072107E-1
2.397350146E1,-8.758273721E-2,6.319395900E-1,-3.228420317E-1
2.399016740E1,1.218675226E-1,3.746891916E-1,-3.607156575E-1
2.400683334E1,2.407570779E-1,3.627009690E-2,-4.295906425E-1
2.402349927E1,2.457967103E-1,-2.246455252E-1,-4.698313773E-1
2.404016521E1,1.800523996E-1,-1.821140647E-1,-5.099193454E-1
2.405683115E1,3.711003438E-2,9.689842910E-2,-5.626828074E-1
2.407349709E1,-1.876118481E-1,3.536907136E-1,-6.763800383E-1
2.409016302E1,-4.384481907E-1,4.057669342E-1,-6.378191710E-1
2.410682896E1,-6.454550028E-1,5.926151872E-1,-5.739838481E-1
2.412349490E1,-7.567850947E-1,6.054433584E-1,-5.864301920E-1
2.414016084E1,-7.229584455E-1,-1.985310465E-1,-3.950004280E-1
2.415682677E1,-4.595993757E-1,-9.472985864E-1,-3.870591819E-1
2.417349271E1,-1.084284950E-2,-8.623120189E-1,-6.816487312E-1
2.419015865E1,6.171261668E-1,-3.462839723E-1,-5.259546041E-1
2.420682459E1,1.186299443E0,4.970912263E-2,1.161406636E-1
2.422349052E1,1.373224020E0,-3.871355578E-2,7.207440734E-1
2.424015646E1,1.211879373E0,-3.338375986E-1,7.669407129E-1
2.425682240E1,8.205441236E-1,-6.197223067E-1,4.143953919E-1
2.427348834E1,1.859319657E-1,-4.586067200E-1,2.415206581E-1
2.429015427E1,-6.404917240E-1,9.743293375E-2,1.598938555E-1
2.430682021E1,-1.072067738E0,6.838631034E-1,4.141663313E-1
2.432348615E1,-1.048243999E0,9.881501198E-1,5.379427671E-1
2.434015209E1,-4.925097227E-1,8.241329193E-1,2.186895907E-1
2.435681802E1,1.858556122E-1,8.688024282E-1,-4.337139800E-2
2.437348396E1,8.239039034E-2,7.134900689E-1,-6.307178736E-2
2.439014990E1,-1.864664704E-1,2.328158319E-1,-2.443459118E-3
2.440681584E1,-9.010255337E-2,-3.071122766E-1,1.720348001E-1
2.442348177E1,2.932151034E-2,-2.888626754E-1,6.242274642E-1
2.444014771E1,-2.785543501E-1,5.933023989E-2,1.137353897E0
2.445681365E1,-5.803215504E-1,1.948658675E-1,1.243797064E0
2.447347959E1,-7.721330523E-1,4.079049528E-1,1.195996881E0
2.449014552E1,-7.065414786E-1,5.912407637E-1,9.829577804E-1
2.450681146E1,-3.719402850E-1,5.930733681E-1,5.989528894E-1
2.452347740E1,6.933315098E-2,4.143953919E-1,1.680641770E-1
2.454014334E1,4.011854529E-1,1.950185746E-1,-6.238456443E-2
2.455680927E1,4.837285578E-1,-7.162389904E-2,-3.863719851E-2
2.457347521E1,3.442986608E-1,-3.766745031E-1,2.247218788E-1
2.459014115E1,1.102610901E-1,-5.991820097E-1,4.789179862E-1
2.460680709E1,1.020907760E-1,-4.705185890E-1,3.853029609E-1
2.462347302E1,3.203222156E-1,-1.968511790E-1,2.626718581E-1
2.464013896E1,5.312232971E-1,-1.285870373E-1,2.057850659E-1
2.465680490E1,5.599339008E-1,-3.480401933E-1,1.618791670E-1
2.467347084E1,5.951350331E-1,-4.172206521E-1,1.611155868E-1
2.469013677E1,8.124501705E-1,-3.352884054E-1,1.240055487E-1
2.470680271E1,9.363030195E-1,-4.024835229E-1,5.749764666E-2
2.472346865E1,6.561451554E-1,-5.761982203E-1,-1.779143699E-2
2.474013459E1,2.060905099E-1,-7.077631950E-1,-1.490510106E-1
2.475680052E1,-1.243873388E-1,-8.123738170E-1,-2.483928949E-1
2.477346646E1,-2.798524201E-1,-9.608139396E-1,-2.581667304E-1
2.479013240E1,-1.982256174E-1,-8.268054724E-1,-4.006509483E-1
2.480679834E1,2.356410921E-1,-3.019199073E-1,-1.218293428E0
2.482346427E1,3.274998665E-1,1.253799945E-1,-1.219515204E0
2.484013021E1,2.096793354E-1,2.623664141E-1,-9.605085254E-1
2.485679615E1,3.110828996E-1,-1.266017258E-1,-5.665007234E-1
2.487346209E1,5.978838801E-1,-7.965676785E-1,-3.423897028E-1
2.489012802E1,8.473458290E-1,-1.316337228E0,-2.213621289E-1
2.490679396E1,8.688787818E-1,-1.385746717E0,-1.915824711E-1
2.492345990E1,6.998983026E-1,-1.136742949E0,-2.594648004E-1
2.494012584E1,3.723220825E-1,-7.486911416E-1,-2.732856274E-1
2.495679177E1,-3.436114406E-3,-2.813032269E-1,-2.509890795E-1
2.497345771E1,-1.769980639E-1,6.482802331E-2,-2.844339013E-1
2.499012365E1,-2.527453005E-2,9.812015295E-2,-3.316232264E-1
2.500678959E1,2.336557806E-1,-2.328922041E-2,-3.235292733E-1
2.502345552E1,4.023308158E-1,-3.649916872E-2,-2.849684060E-1
2.504012146E1,4.479929507E-1,2.031125315E-2,-2.525162399E-1
2.505678740E1,3.427715003E-1,8.284853399E-2,-2.070831656E-1
2.507345334E1,1.424078494E-1,1.881463528E-1,-1.750891209E-1
2.509011927E1,-8.697187155E-2,3.059668839E-1,-1.026252806E-1
2.510678521E1,-2.444222718E-1,3.955349326E-1,-5.077813566E-2
2.512345115E1,-2.857320011E-1,3.911061883E-1,-2.909243479E-2
2.514011709E1,-2.582430840E-1,4.161516428E-1,-9.162971750E-3
2.515678302E1,-2.308305353E-1,4.786125422E-1,3.092502989E-2
2.517344896E1,-1.792888194E-1,4.058432877E-1,5.429060757E-2
2.519011490E1,-4.123337194E-2,2.228892893E-1,6.589704007E-2
2.520678084E1,1.488219351E-1,2.580903657E-2,6.459894776E-2
2.522344677E1,2.664133906E-1,-3.527744114E-2,6.185005978E-2
2.524011271E1,2.656498253E-1,3.420842811E-2,2.756527252E-2
2.525677865E1,2.388481349E-1,7.964149863E-2,-2.573267929E-2
2.527344459E1,2.613737583E-1,5.833758786E-2,-5.154171586E-2
2.529011052E1,2.842811942E-1,2.787070535E-2,-5.039634556E-2
2.530677646E1,2.806923687E-1,5.406153202E-2,-3.504836559E-2
2.532344240E1,2.543488145E-1,1.460730433E-1,-7.177661173E-3
2.534010834E1,2.431241870E-1,1.671478748E-1,-2.901607659E-3
2.535677427E1,2.925278842E-1,1.568395346E-1,2.229656465E-2
2.537344021E1,3.662897944E-1,1.614973694E-1,2.183841541E-2
2.539010615E1,3.276526034E-1,9.728021920E-2,-7.941242307E-3
2.540677209E1,2.085339576E-1,-5.940660089E-2,-2.107483521E-2
2.542343802E1,1.185077652E-1,-1.473711282E-1,-2.390008420E-2
2.544010396E1,1.140789986E-1,-3.672824427E-2,7.330377586E-3
2.545676990E1,2.449567765E-1,8.819360286E-2,1.220965981E-1
2.547343584E1,3.870591819E-1,5.276344717E-2,2.163988501E-1
2.549010177E1,-5.444332212E-2,3.219257295E-1,2.509890795E-1
2.550676771E1,-3.355174661E-1,4.638754427E-1,1.688277572E-1
2.552343365E1,-1.537088454E-1,3.676642478E-1,5.864302069E-2
2.554009959E1,1.405752599E-1,3.756818548E-2,3.306305781E-2
2.555676552E1,5.274053812E-1,-3.238346875E-1,3.901898861E-2
