"Time (s)","Acceleration x (m/s^2)","Acceleration y (m/s^2)","Acceleration z (m/s^2)"
1.356151300E-2,-4.211966038E0,4.144967079E0,7.442575932E0
3.022745000E-2,-2.895913601E0,4.000500202E0,8.510073662E0
4.689338800E-2,-2.603989124E0,3.849453449E0,8.331210136E0
6.355932500E-2,-3.667897940E0,4.052843571E0,7.634599686E0
8.022526300E-2,-4.715655327E0,4.384847641E0,6.924529552E0
9.689120000E-2,-4.922335148E0,4.358227253E0,6.992724895E0
1.135571380E-1,-4.698905468E0,4.342673779E0,7.543373585E0
1.302230750E-1,-4.266402721E0,4.118945122E0,7.653144360E0
1.468890130E-1,-4.043870449E0,4.011866093E0,8.108079910E0
1.635549500E-1,-4.103391647E0,3.943371773E0,8.341380119E0
1.802208880E-1,-4.551148891E0,4.094418526E0,8.063812256E0
1.968868250E-1,-4.806283474E0,4.191926003E0,7.814061642E0
2.135527630E-1,-4.606781960E0,4.339084625E0,8.175676346E0
2.302187000E-1,-4.181457520E0,4.091427803E0,8.297710419E0
2.468846380E-1,-4.266701698E0,4.119244099E0,8.160721779E0
2.635505750E-1,-4.513162613E0,4.159324169E0,7.936992645E0
2.802165130E-1,-4.586442947E0,4.038785458E0,7.866105556E0
2.968824500E-1,-4.368396759E0,4.060320854E0,7.969893932E0
3.135483880E-1,-4.356731892E0,4.072285175E0,8.061419487E0
3.302143250E-1,-4.294817448E0,4.022634029E0,8.108378410E0
3.468802630E-1,-4.289433479E0,4.098007679E0,8.157132149E0
3.635462000E-1,-4.392923355E0,4.118945122E0,8.048558235E0
3.802121380E-1,-4.463212490E0,4.104887009E0,8.021040916E0
3.968780750E-1,-4.230211258E0,4.070789337E0,7.625028610E0
4.135440130E-1,-4.196412563E0,4.226323128E0,7.499405384E0
4.302099500E-1,-4.383052826E0,4.273282051E0,7.481758118E0
4.468758880E-1,-4.405186653E0,4.214358807E0,7.376473904E0
4.635418250E-1,-4.260420799E0,4.159324169E0,7.321439266E0
4.802077630E-1,-4.076771736E0,4.099802494E0,7.340581894E0
4.968737000E-1,-3.972384691E0,3.910171270E0,7.566703320E0
5.135396380E-1,-4.039682865E0,3.586242914E0,7.668697357E0
5.302055750E-1,-4.118346691E0,3.360420227E0,7.603792191E0
5.468715130E-1,-2.666501760E0,3.664906979E0,7.668697357E0
5.635374500E-1,-2.994019270E0,3.715455294E0,5.593522072E0
5.802033880E-1,-3.189333439E0,3.694219112E0,5.059324265E0
5.968693250E-1,-1.756929994E0,3.189034462E0,6.096911907E0
6.135352630E-1,-1.470090389E0,1.941775560E0,8.198707581E0
6.302012000E-1,-7.283154130E-1,1.156630635E0,9.801898956E0
6.468671380E-1,-1.974078640E-2,1.047757268E0,1.076471043E1
6.635330750E-1,5.859424472E-1,6.191428304E-1,9.876674652E0
6.801990130E-1,3.852444589E-1,6.939185858E-1,1.193689442E1
6.968649500E-1,4.504488707E-1,5.509474277E-1,1.299422359E1
7.135308880E-1,7.612167001E-1,8.309076428E-1,1.198654556E1
7.301968250E-1,3.084647417E0,1.194018483E0,1.042762184E1
7.468627630E-1,3.544667721E0,8.647062778E-1,1.126002502E1
7.635287000E-1,3.938885212E0,-4.854438901E-1,1.016231823E1
7.801946380E-1,4.141676903E0,-1.967498422E0,9.777970314E0
7.968605750E-1,3.274278641E0,-2.005185366E0,9.819845200E0
8.135265130E-1,2.554338276E-1,1.531406492E-1,1.066780186E1
8.301924500E-1,-1.252343535E0,1.238883972E0,1.185643578E1
8.468583880E-1,-1.560120344E0,6.649056077E-1,1.263589859E1
8.635243250E-1,-4.232304990E-1,-9.571290575E-3,1.092353439E1
8.801902630E-1,6.963114142E-1,-4.187439568E-3,9.617950439E0
8.968562000E-1,1.148255825E0,9.008977413E-1,9.434001923E0
9.135221380E-1,4.902295470E-1,2.769692183E0,9.719944954E0
9.301880750E-1,4.130610228E-1,2.054238319E0,9.717850685E0
9.468540130E-1,1.830509305E-1,1.129711390E0,9.825528145E0
9.635199500E-1,-4.956133962E-1,1.557727575E0,1.023709393E1
9.801858880E-1,7.417750359E-2,1.887637973E0,1.106471062E1
9.968518250E-1,6.726822853E-1,1.959422588E0,1.078833961E1
1.013517763E0,1.040578723E0,1.965703845E0,9.250951767E0
1.030183700E0,7.169494629E-1,2.309073925E0,8.038089752E0
1.046849638E0,4.214358926E-1,2.991327524E0,8.262117386E0
1.063515575E0,9.963115454E-1,2.504388094E0,8.853742599E0
1.080181513E0,1.257428288E0,2.303390980E0,9.592227936E0
1.096847450E0,1.183250785E0,2.389831543E0,1.004327488E1
1.113513388E0,1.728814393E-1,1.247258782E0,9.249456406E0
1.130179325E0,9.891330600E-1,2.353041887E0,9.605388641E0
1.146845263E0,1.283749342E0,3.038286448E0,1.072492981E1
1.163511200E0,1.559522152E0,3.027817965E0,1.069681454E1
1.180177138E0,1.900499344E0,2.929114103E0,9.792925835E0
1.196843075E0,2.282752752E0,2.926721096E0,9.982557297E0
1.213509013E0,1.807777524E0,3.009871721E0,8.557032585E0
1.230174950E0,2.011765718E0,2.813062191E0,8.348258972E0
1.246840888E0,1.682752490E0,3.447160006E0,9.218647957E0
1.263506825E0,2.017448664E0,3.613162279E0,1.018804073E1
1.280172763E0,2.320140600E0,3.533301830E0,1.023380375E1
1.296838700E0,2.324926376E0,3.425923824E0,9.072686195E0
1.313504638E0,1.864308000E0,3.620938778E0,7.669893742E0
1.330170575E0,1.482951880E0,2.705983400E0,8.306085587E0
1.346836513E0,1.666600943E0,2.372483730E0,1.254676533E1
1.363502450E0,1.045065284E0,1.473978758E0,1.093101215E1
1.380168388E0,1.134197950E0,2.377269268E0,9.768099785E0
1.396834325E0,1.042373419E0,4.526023865E0,1.056072235E1
1.413500263E0,1.717149377E0,4.740181446E0,9.214461327E0
1.430166200E0,2.006680965E0,4.248755932E0,7.467700481E0
1.446832138E0,2.585145712E0,3.844667673E0,7.593024254E0
1.463498075E0,3.300599813E0,4.376472473E0,7.154839039E0
1.480164013E0,4.194318771E0,4.420739651E0,7.246663570E0
1.496829950E0,4.258925438E0,5.158626556E0,6.765107632E0
1.513495888E0,3.731307745E0,5.781657696E0,5.993422508E0
1.530161825E0,3.153441191E0,4.599005222E0,6.943971157E0
1.546827763E0,2.331207514E0,4.438087940E0,7.655836105E0
1.563493700E0,2.208575249E0,4.517948151E0,6.916752815E0
1.580159638E0,2.596212626E0,5.548955917E0,7.569395542E0
1.596825575E0,2.370688915E0,5.383252621E0,9.238389015E0
1.613491513E0,2.772683144E0,4.663312435E0,8.194519997E0
1.630157450E0,1.457827210E0,4.380061626E0,6.981957436E0
1.646823388E0,1.418046474E0,4.495216370E0,7.501499176E0
1.663489325E0,2.295315027E0,4.900799751E0,8.347960472E0
1.680155263E0,2.585145712E0,4.978865623E0,8.558827400E0
1.696821200E0,2.705085993E0,5.243870735E0,8.099704742E0
1.713487138E0,3.103790045E0,5.295017242E0,7.971688747E0
1.730153075E0,2.160718918E0,5.014159679E0,8.139185905E0
1.746819013E0,2.421835661E0,5.344668388E0,8.475975990E0
1.763484950E0,2.426023006E0,5.150550842E0,8.595317841E0
1.780150888E0,2.356631279E0,5.085346222E0,8.584849358E0
1.796816825E0,2.965903759E0,5.557928562E0,8.534600258E0
1.813482763E0,2.609672308E0,5.392225742E0,7.406683445E0
1.830148700E0,3.101696253E0,5.836393356E0,5.880660534E0
1.846814638E0,2.479861498E0,5.538187981E0,4.391726971E0
1.863480575E0,1.840379715E0,4.872983456E0,4.907380104E0
1.880146513E0,1.371685624E0,4.153641224E0,7.845766544E0
1.896812450E0,4.381856322E-1,4.248157501E0,1.057358456E1
1.913478388E0,-1.444666684E-1,3.474677563E0,1.014855862E1
1.930144325E0,-3.269194067E-1,3.495614767E0,9.043673515E0
1.946810263E0,-6.571289301E-1,4.364209175E0,9.116953850E0
1.963476200E0,5.503492057E-2,4.031008720E0,9.176474571E0
1.980142138E0,8.258228898E-1,3.950251102E0,9.477372169E0
1.996808075E0,1.803590059E0,3.974478483E0,9.388239861E0
2.013474013E0,2.476870537E0,3.853341818E0,8.987142563E0
2.030139950E0,2.242373943E0,3.910470486E0,8.760722160E0
2.046805888E0,1.366002679E0,3.990929127E0,9.065806389E0
2.063471825E0,6.149554253E-1,4.427320004E0,9.425926208E0
2.080137763E0,-3.460619748E-1,4.543970108E0,9.641879082E0
2.096803700E0,-2.662015259E-1,4.107280254E0,9.791430473E0
2.113469638E0,2.428714931E-1,3.557229996E0,1.023081207E1
2.130135575E0,1.271486163E0,3.393022537E0,9.775279045E0
2.146801513E0,1.864607096E0,3.577269793E0,9.098110199E0
2.163467450E0,2.025524378E0,3.653840065E0,8.802895546E0
2.180133388E0,1.865205288E0,3.600001574E0,9.036195755E0
2.196799325E0,1.631007791E0,3.456731319E0,9.430113792E0
2.213465263E0,1.546660781E0,3.250051260E0,9.908080101E0
2.230131200E0,1.543669701E0,3.206382275E0,1.009113121E1
2.246797138E0,1.277767301E0,3.258725405E0,1.028764153E1
2.263463075E0,1.192523003E0,3.281756163E0,1.014796066E1
2.280129013E0,1.440778375E0,3.334398270E0,9.782755852E0
2.296794950E0,1.607079506E0,3.547957659E0,9.543174744E0
2.313460888E0,1.569392562E0,3.458226919E0,9.288937569E0
2.330126825E0,1.831705689E0,3.528516054E0,9.395418167E0
2.346792763E0,7.668996453E-1,3.489632607E0,9.229117393E0
2.363458700E0,1.246361494E0,3.689433336E0,9.081359863E0
2.380124638E0,1.464706540E0,3.672085524E0,9.217452049E0
2.396790575E0,1.934597135E0,3.806083441E0,8.863613129E0
2.413456513E0,2.539083958E0,3.813860178E0,8.593224525E0
2.430122450E0,1.523330688E0,3.892823458E0,8.209774017E0
2.446788388E0,1.722533226E0,3.902394533E0,8.476573944E0
2.463454325E0,1.351944804E0,3.836891174E0,8.850751877E0
2.480120263E0,1.188634634E0,3.878167391E0,8.817850113E0
2.496786200E0,1.305583835E0,3.878167391E0,8.672486305E0
2.513452138E0,1.797608018E0,3.854837179E0,8.738288879E0
2.530118075E0,2.138585329E0,3.939483404E0,8.692227364E0
2.546784013E0,1.912762642E0,3.976871252E0,8.624032021E0
2.563449950E0,1.949253201E0,3.877269983E0,8.769395828E0
2.580115888E0,1.963909149E0,3.930211306E0,8.980263710E0
2.596781825E0,1.712363720E0,3.829712629E0,9.087042809E0
2.613447763E0,1.454237938E0,3.839283943E0,9.158229828E0
2.630113700E0,1.403091431E0,3.867100477E0,9.107381821E0
2.646779638E0,2.054238319E0,3.694219112E0,9.198907852E0
2.663445575E0,1.561316729E0,3.843471289E0,8.965607643E0
2.680111513E0,2.127817631E0,3.927220106E0,8.682058334E0
2.696777450E0,2.033899307E0,3.710968733E0,8.606983185E0
2.713443388E0,1.569990754E0,3.869194269E0,9.034700394E0
2.730109325E0,1.336690545E0,3.719941854E0,9.204889297E0
2.746775263E0,1.185045362E0,3.666103363E0,9.067003250E0
2.763441200E0,1.273280740E0,3.749253988E0,8.937192917E0
2.780107138E0,1.534098387E0,3.761517286E0,8.773882866E0
2.796773075E0,2.044667006E0,3.807279825E0,8.767601013E0
2.813439013E0,2.124228239E0,3.801297903E0,8.596215248E0
2.830104950E0,1.862214208E0,3.826123476E0,8.805886269E0
2.846770888E0,1.663609982E0,3.760619879E0,9.050851822E0
2.863436825E0,1.564906001E0,3.672085524E0,9.274580956E0
2.880102763E0,1.515853167E0,3.728017569E0,9.253344536E0
2.896768700E0,1.668395638E0,3.744468451E0,8.999106407E0
2.913434638E0,1.718943954E0,3.727419376E0,8.836993217E0
2.930100575E0,1.797907114E0,3.812065601E0,8.833703041E0
2.946766513E0,1.983949065E0,3.807878017E0,8.821439743E0
2.963432450E0,2.108973980E0,3.775574923E0,8.798707962E0
2.980098388E0,2.096112728E0,3.767499208E0,8.831010818E0
2.996764325E0,1.925025821E0,3.732504129E0,8.949754715E0
3.013430263E0,1.739582062E0,3.629612923E0,9.167501450E0
3.030096200E0,1.734497309E0,3.551846027E0,9.276973724E0
3.046762138E0,1.865803480E0,3.505784273E0,9.387042999E0
3.063428075E0,1.889432549E0,3.463012457E0,9.291330338E0
3.080094013E0,1.899003863E0,3.489034414E0,9.157032967E0
3.096759950E0,1.988136530E0,3.535395384E0,9.050253868E0
3.113425888E0,1.941177368E0,3.551547050E0,9.032606125E0
3.130091825E0,1.784447432E0,3.544966698E0,9.122636795E0
3.146757763E0,1.651047587E0,3.512065411E0,9.201599121E0
3.163423700E0,1.646860242E0,3.510869026E0,9.231210709E0
3.180089638E0,1.867897153E0,3.497409344E0,9.192625999E0
3.196755575E0,1.883749604E0,3.519243956E0,9.034998894E0
3.213421513E0,1.825723648E0,3.527618885E0,8.909076691E0
3.230087450E0,2.067697763E0,3.564408541E0,8.918647766E0
3.246753388E0,2.148156643E0,3.598506212E0,9.080462456E0
3.263419325E0,1.866700768E0,3.534797192E0,9.303593636E0
3.280085263E0,1.651047587E0,3.611965895E0,9.355039597E0
3.296751200E0,1.817049742E0,3.544368505E0,9.265607834E0
3.313417138E0,2.164308071E0,3.560819149E0,9.204590797E0
3.330083075E0,2.156830549E0,3.638885021E0,8.933902740E0
3.346749013E0,2.030010939E0,3.673580885E0,8.903095245E0
3.363414950E0,2.012363911E0,3.680759430E0,8.992825508E0
3.380080888E0,2.187339067E0,3.623630762E0,9.215956688E0
3.396746825E0,2.072782516E0,3.598206997E0,9.301798820E0
3.413412763E0,1.988435626E0,3.570390463E0,9.317950249E0
3.430078700E0,1.967797518E0,3.500998735E0,9.285049438E0
3.446744638E0,2.000998020E0,3.468695641E0,9.224330902E0
3.463410575E0,2.049452543E0,3.547658682E0,8.956335068E0
3.480076513E0,2.055733681E0,3.613760471E0,8.623134613E0
3.496742450E0,2.136790514E0,3.649054527E0,8.702995300E0
3.513408388E0,1.997408748E0,3.621536970E0,8.759525299E0
3.530074325E0,1.959721804E0,3.501895905E0,8.994320869E0
3.546740263E0,1.905285001E0,3.445066452E0,9.001798630E0
3.563406200E0,1.942971945E0,3.415455103E0,9.019445419E0
3.580072138E0,1.939382792E0,3.410669565E0,8.978468895E0
3.596738075E0,1.941476464E0,3.404986620E0,8.919246674E0
3.613404013E0,2.113161564E0,3.358027458E0,8.963214874E0
3.630069950E0,2.129911184E0,3.407678604E0,9.015856743E0
3.646735888E0,2.006979942E0,3.380161047E0,9.033503532E0
3.663401825E0,1.894816399E0,3.330210924E0,9.142676353E0
3.680067763E0,1.796710730E0,3.288934708E0,9.190832138E0
3.696733700E0,1.945663929E0,3.267100334E0,9.183054924E0
3.713399638E0,2.036890268E0,3.304787159E0,9.144769669E0
3.730065575E0,1.899003863E0,3.364308596E0,9.122337341E0
3.746731513E0,1.814058661E0,3.392424345E0,9.127122879E0
3.763397450E0,1.843370795E0,3.400201082E0,9.160622597E0
3.780063388E0,2.086541414E0,3.425026417E0,9.146564484E0
3.796729325E0,2.132603168E0,3.468695641E0,9.150154114E0
3.813395263E0,2.044965982E0,3.465405464E0,9.129515648E0
3.830061200E0,2.029711723E0,3.487838030E0,9.168698311E0
3.846727138E0,2.042274237E0,3.420539856E0,9.302995682E0
3.863393075E0,2.022234201E0,3.439682484E0,9.337391853E0
3.880059013E0,2.046461582E0,3.411865950E0,9.250054359E0
3.896724950E0,2.112862349E0,3.416053534E0,9.205786705E0
3.913390888E0,2.339582443E0,3.393919706E0,9.120841980E0
3.930056825E0,2.409871578E0,3.408874989E0,9.105886459E0
3.946722763E0,2.858226538E0,3.325126171E0,9.232406616E0
3.963388700E0,1.965105653E0,3.423830032E0,9.014061928E0
3.980054638E0,2.220838547E0,3.452543974E0,9.000901222E0
3.996720575E0,2.293221474E0,3.247359514E0,9.216554642E0
4.013386513E0,2.210669041E0,3.339184046E0,8.986844063E0
4.030052450E0,2.142772675E0,3.337389469E0,8.851948738E0
4.046718388E0,2.158026934E0,3.381058455E0,8.828319550E0
4.063384325E0,2.255833626E0,3.373879910E0,8.945866585E0
4.080050263E0,2.236092806E0,3.279662609E0,9.122935295E0
4.096716200E0,2.182553291E0,3.250948668E0,9.272786140E0
4.113382138E0,2.175973177E0,3.215654612E0,9.332606316E0
4.130048075E0,2.210669041E0,3.223431110E0,9.278469086E0
4.146714013E0,2.348555326E0,3.270689487E0,9.125926018E0
4.163379950E0,2.442772865E0,3.307479143E0,9.013164520E0
4.180045888E0,2.418246269E0,3.298804998E0,9.005986214E0
4.196711825E0,2.468794823E0,3.248854876E0,9.084052086E0
4.213377763E0,2.417947292E0,3.195913792E0,9.206086159E0
4.230043700E0,2.233400822E0,3.238386393E0,9.197710991E0
4.246709638E0,2.195414782E0,3.266801119E0,9.128020287E0
4.263375575E0,2.289632082E0,3.300898790E0,9.183054924E0
4.280041513E0,2.463410854E0,3.378964663E0,9.164810181E0
4.296707450E0,2.504388094E0,3.422035456E0,9.104391098E0
4.313373388E0,2.480459690E0,3.393022537E0,8.988339424E0
4.330039325E0,2.489732027E0,3.381058455E0,8.930313110E0
4.346705263E0,2.547757864E0,3.285345554E0,8.950652122E0
4.363371200E0,2.440380096E0,3.245265722E0,9.053842545E0
4.380037138E0,2.331506491E0,3.182753325E0,9.168398857E0
4.396703075E0,2.260020971E0,3.160320520E0,9.253643036E0
4.413369013E0,2.301297188E0,3.145365477E0,9.233005524E0
4.430034950E0,2.369193554E0,3.173182011E0,9.083154678E0
4.446700888E0,2.395813704E0,3.181257725E0,9.054440498E0
4.463366825E0,2.472982168E0,3.130709410E0,9.071788788E0
4.480032763E0,2.410170555E0,3.164507866E0,9.033205032E0
4.496698700E0,2.310270309E0,3.236591816E0,9.000602722E0
4.513364638E0,2.418246269E0,3.139383316E0,8.995218277E0
4.530030575E0,2.572583437E0,3.115455151E0,8.963214874E0
4.546696513E0,2.422134638E0,3.196810961E0,8.978767395E0
4.563362450E0,2.432902336E0,3.215654612E0,8.926125526E0
4.580028388E0,2.399402857E0,3.293122053E0,8.903095245E0
4.596694325E0,2.469991207E0,3.212962627E0,9.157032967E0
4.613360263E0,2.702394009E0,2.988037348E0,9.646066666E0
4.630026200E0,2.565404892E0,3.074477911E0,9.590433121E0
4.646692138E0,2.479861498E0,3.269792080E0,9.346664429E0
4.663358075E0,2.448156595E0,3.399901867E0,8.816953659E0
4.680024013E0,2.487638235E0,3.513261795E0,8.698209763E0
4.696689950E0,2.507079840E0,3.541377544E0,8.764012337E0
4.713355888E0,2.364706993E0,3.366701365E0,8.614460945E0
4.730021825E0,2.385344982E0,3.340978622E0,8.771190643E0
4.746687763E0,2.452044964E0,3.395415306E0,8.926125526E0
4.763353700E0,2.536092997E0,3.454039574E0,8.864809990E0
4.780019638E0,2.653640270E0,3.524029493E0,8.839983940E0
4.796685575E0,2.772982359E0,3.607479334E0,8.772686005E0
4.813351513E0,2.771785975E0,3.709174156E0,8.688039780E0
4.830017450E0,2.959024191E0,3.790829182E0,8.625227928E0
4.846683388E0,3.139084101E0,3.849154234E0,8.593822479E0
4.863349325E0,3.197409153E0,3.865904093E0,8.537590981E0
4.880015263E0,3.228815079E0,3.835993767E0,8.564510345E0
4.896681200E0,3.108575821E0,3.810271025E0,8.679664612E0
4.913347138E0,2.944966555E0,3.723830223E0,8.822037697E0
4.930013075E0,2.770290375E0,3.696911097E0,8.857332230E0
4.946679013E0,2.595913410E0,3.673281908E0,8.701499939E0
4.963344950E0,2.371287346E0,3.531208038E0,8.751151085E0
4.980010888E0,2.210669041E0,3.391826153E0,9.014659882E0
4.996676825E0,1.965105653E0,3.591925859E0,9.304789543E0
5.013342763E0,2.118545294E0,3.631108284E0,9.777372360E0
5.030008700E0,2.304886341E0,3.417548895E0,9.383454323E0
5.046674638E0,1.956132531E0,3.569194078E0,9.268598557E0
5.063340575E0,1.725524187E0,3.680161238E0,8.914759636E0
5.080006513E0,1.543370605E0,3.696911097E0,8.830712318E0
5.096672450E0,1.624726534E0,3.689433336E0,8.830712318E0
5.113338388E0,1.857428551E0,3.756731510E0,8.634500504E0
5.130004325E0,1.999502420E0,3.745963812E0,8.224430084E0
5.146670263E0,2.185843468E0,3.833301783E0,7.948657513E0
5.163336200E0,2.341077805E0,3.823132277E0,7.999206066E0
5.180002138E0,2.479562521E0,3.726821184E0,8.174180984E0
5.196668075E0,2.568396091E0,3.642773390E0,8.540582657E0
5.213334013E0,2.633600473E0,3.553341627E0,8.917451859E0
5.229999950E0,2.630908489E0,3.595515013E0,9.021839142E0
5.246665888E0,2.748156786E0,3.686741590E0,8.820542336E0
5.263331825E0,2.913859844E0,3.712165117E0,8.639585495E0
5.279997763E0,3.052045345E0,3.627219915E0,8.644968987E0
5.296663700E0,3.009572744E0,3.577569008E0,8.667402267E0
5.313329638E0,2.963809967E0,3.485744476E0,8.695517540E0
5.329995575E0,2.911167860E0,3.388535976E0,8.653044701E0
5.346661513E0,2.929413080E0,3.388535976E0,8.674281120E0
5.363327450E0,3.068495989E0,3.349951744E0,8.793025017E0
5.379993388E0,3.155534744E0,3.326322556E0,8.876773834E0
5.396659325E0,3.289233923E0,3.265006542E0,8.913264275E0
5.413325263E0,3.497409344E0,3.120240688E0,9.052945137E0
5.429991200E0,3.563211918E0,2.998505831E0,9.148059845E0
5.446657138E0,3.633202076E0,2.830111027E0,9.141479492E0
5.463323075E0,3.484248877E0,2.773281336E0,9.040383339E0
5.479989013E0,3.431606770E0,2.737389088E0,8.891729355E0
5.496654950E0,3.612863064E0,2.623131752E0,8.708678246E0
5.513320888E0,3.863810301E0,2.516950369E0,8.788538933E0
5.529986825E0,4.172185421E0,2.329711914E0,8.829515457E0
5.546652763E0,4.354937077E0,2.187339067E0,8.857032776E0
5.563318700E0,4.520939350E0,1.982154489E0,8.841180801E0
5.579984638E0,4.619942188E0,1.816750646E0,8.539385796E0
5.596650575E0,4.734199524E0,1.745564103E0,8.143074989E0
5.613316513E0,4.948656559E0,1.601097465E0,7.923532963E0
5.629982450E0,5.065605640E0,1.470389485E0,7.955237865E0
5.646648388E0,5.160121918E0,1.243071318E0,7.855337620E0
5.663314325E0,5.186143875E0,1.038784146E0,7.594520092E0
5.679980263E0,5.248058319E0,9.661021233E-1,7.341778278E0
5.696646200E0,5.387739182E0,9.149555564E-1,7.123134136E0
5.713312138E0,5.402694225E0,8.739784956E-1,7.023532867E0
5.729978075E0,5.300999641E0,7.701897621E-1,6.942176819E0
5.746644013E0,5.123631477E0,5.593222976E-1,6.780362129E0
5.763309950E0,5.037190914E0,2.895315289E-1,6.533602238E0
5.779975888E0,5.291129112E0,2.590230405E-1,6.063412666E0
5.796641825E0,5.422136307E0,3.242274821E-1,5.540281773E0
5.813307763E0,5.588736534E0,1.229312643E-1,5.570790291E0
5.829973700E0,5.604289532E0,-2.985046208E-1,5.615655422E0
5.846639638E0,5.712863922E0,-8.356932998E-1,5.725725651E0
5.863305575E0,6.048457623E0,-1.253240824E0,5.654240131E0
5.879971513E0,6.263811588E0,-1.383649707E0,5.520540714E0
5.896637450E0,6.367599964E0,-1.155733347E0,5.355136871E0
5.913303388E0,6.948158741E0,-8.440681696E-1,4.552345276E0
5.929969325E0,8.090133667E0,-7.932206988E-1,3.890729666E0
5.946635263E0,8.816354752E0,-9.843474030E-1,3.972384691E0
5.963301200E0,8.954839706E0,-1.503589988E0,4.388735771E0
5.979967138E0,8.950352669E0,-1.893021822E0,5.081757069E0
5.996633075E0,9.167800903E0,-2.053041935E0,5.571687698E0
6.013299013E0,9.306883812E0,-1.923530340E0,5.472086430E0
6.029964950E0,9.703494072E0,-2.073979139E0,4.803292274E0
6.046630888E0,1.043180943E1,-2.374577284E0,4.704887390E0
6.063296825E0,1.073988533E1,-2.571686029E0,4.880161762E0
6.079962763E0,1.092173958E1,-2.587538481E0,5.011168957E0
6.096628700E0,1.118704414E1,-2.549253464E0,5.069792747E0
6.113294638E0,1.205204964E1,-2.195414782E0,4.766801834E0
6.129960575E0,1.299272823E1,-1.564307809E0,3.607778311E0
6.146626513E0,1.354457283E1,-8.551349640E-1,2.376671076E0
6.163292450E0,1.403211021E1,-4.175475538E-1,1.195214868E0
6.179958388E0,1.449153233E1,-4.097708762E-1,1.161416292E0
6.196624325E0,1.525095463E1,-4.181457460E-1,2.687438965E0
6.213290263E0,1.524228001E1,1.674975827E-2,4.399204254E0
6.229956200E0,1.452233982E1,5.862415433E-1,5.095814705E0
6.246622138E0,1.370937824E1,1.081555843E0,5.186442852E0
6.263288075E0,1.270499134E1,1.626222134E0,5.365007401E0
6.279954013E0,1.179691505E1,2.045863390E0,5.536991596E0
6.296619950E0,1.105304623E1,2.432902336E0,5.726323605E0
6.313285888E0,1.023111153E1,2.877668381E0,5.804090500E0
6.329951825E0,9.674181938E0,3.337389469E0,5.663512230E0
6.346617763E0,9.282057762E0,3.854238987E0,5.381757259E0
6.363283700E0,8.748757362E0,4.394418716E0,5.064708233E0
6.379949638E0,8.165806770E0,4.770390987E0,4.965106964E0
6.396615575E0,7.761718273E0,5.034199715E0,4.959125042E0
6.413281513E0,7.677072525E0,5.096114159E0,4.908576488E0
6.429947450E0,7.740781307E0,5.272285461E0,4.887639523E0
6.446613388E0,7.894220829E0,5.492125988E0,5.088935375E0
6.463279325E0,7.968996525E0,5.690431118E0,5.179563522E0
6.479945263E0,7.869694710E0,5.763113499E0,4.853541851E0
6.496611200E0,7.781160355E0,5.718247890E0,4.552345276E0
6.513277138E0,7.615756035E0,5.735595703E0,4.508078098E0
6.529943075E0,8.028219223E0,5.801099300E0,4.603491783E0
6.546609013E0,8.561519623E0,5.847460270E0,5.065306664E0
6.563274950E0,9.389137268E0,5.933003902E0,6.715157509E0
6.579940888E0,1.003190899E1,6.033801556E0,8.731708527E0
6.596606825E0,1.160758305E1,5.783751488E0,1.093011475E1
6.613272763E0,1.492672634E1,5.146363258E0,1.251117229E1
6.629938700E0,1.907558250E1,4.505984306E0,1.286022568E1
6.646604638E0,2.120489502E1,3.750151396E0,1.212263775E1
6.663270575E0,2.124288177E1,2.415853500E0,1.029990482E1
6.679936513E0,2.021306992E1,6.320042610E-1,8.863613129E0
6.696602450E0,1.796650887E1,-9.418748021E-1,7.630412102E0
6.713268388E0,1.509960842E1,-2.147558212E0,6.315855503E0
6.729934325E0,1.239990616E1,-2.979961395E0,5.764907837E0
6.746600263E0,1.050987530E1,-3.683750391E0,5.714359760E0
6.763266200E0,9.722337723E0,-4.635495663E0,5.996413708E0
6.779932138E0,9.480662346E0,-5.928217888E0,5.821737289E0
6.796598075E0,8.463413239E0,-7.220342159E0,4.743771076E0
6.813264013E0,6.542874336E0,-7.474280834E0,2.632404089E0
6.829929950E0,4.627718925E0,-6.873682022E0,2.225325108E-1
6.846595888E0,3.634099483E0,-6.433403015E0,-2.077568293E0
6.863261825E0,3.526123285E0,-6.185446739E0,-3.375076294E0
6.879927763E0,3.970590115E0,-5.950950146E0,-3.877569199E0
6.896593700E0,4.177868366E0,-5.706283569E0,-3.708276987E0
6.913259638E0,3.541078329E0,-5.209773064E0,-3.654438496E0
6.929925575E0,3.049652576E0,-5.108377457E0,-4.095315933E0
6.946591513E0,3.139383316E0,-5.267798901E0,-4.536791801E0
6.963257450E0,4.623830795E0,-5.595615864E0,-5.204688549E0
6.979923388E0,8.032406807E0,-5.804987907E0,-5.144568920E0
6.996589325E0,1.274327564E1,-3.906881094E0,-3.385843992E0
7.013255263E0,2.179652023E1,6.951149702E-1,3.519842148E0
7.029921200E0,3.194149017E1,9.205786705E0,1.653978920E1
7.046587138E0,3.674059677E1,1.402702522E1,1.886920166E1
7.063253075E0,3.169981575E1,1.448225975E1,1.590539074E1
7.079919013E0,1.979193306E1,1.439013672E1,1.378834152E1
7.096584950E0,1.080179977E1,1.311416340E1,9.324530602E0
7.113250888E0,6.125027657E0,1.156899834E1,4.952245712E0
7.129916825E0,3.232404232E0,1.050538826E1,5.419743061E-1
7.146582763E0,2.703889608E-1,9.906285286E0,-3.303590775E0
7.163248700E0,-8.198408484E-1,8.949456215E0,-5.179563522E0
7.179914638E0,9.391828626E-2,7.932207108E0,-4.237389565E0
7.196580575E0,8.138588071E-1,7.467999458E0,-2.499602318E0
7.213246513E0,9.242277741E-1,7.205088139E0,-1.119541883E0
7.229912450E0,1.145563871E-1,7.622934818E0,-1.854437590E-2
7.246578388E0,-1.174875975E0,7.854440212E0,7.157530785E-1
7.263244325E0,-2.448156595E0,7.866703510E0,1.486241937E0
7.279910263E0,-2.545065880E0,7.546364307E0,2.601895571E0
7.296576200E0,-1.604686737E0,7.226922512E0,3.297608614E0
7.313242138E0,1.507478207E-1,7.690831184E0,3.894618034E0
7.329908075E0,2.720639229E0,9.017651558E0,5.030909538E0
7.346574013E0,5.861218929E0,1.097019482E1,7.441379547E0
7.363239950E0,9.153144836E0,1.287009525E1,1.159860992E1
7.379905888E0,1.349701500E1,1.529641819E1,1.624487305E1
7.396571825E0,2.501875496E1,1.472752380E1,1.912463570E1
7.413237763E0,3.480599976E1,1.189950657E1,1.525723553E1
7.429903700E0,3.419522858E1,8.936893463E0,8.104490280E0
7.446569638E0,2.752493858E1,4.213461399E0,4.826024055E0
7.463235575E0,1.948056793E1,-8.270193338E-1,5.258825779E0
7.479901513E0,1.186301613E1,-4.582255363E0,6.884449959E0
7.496567450E0,6.844669342E0,-6.930511475E0,7.330711365E0
7.513233388E0,4.542773724E0,-7.952247143E0,5.219643593E0
7.529899325E0,3.173182011E0,-7.779664516E0,1.462612867E0
7.546565263E0,2.276770830E0,-7.338188648E0,-2.110170364E0
7.563231200E0,1.584048629E0,-6.906882763E0,-4.812863827E0
7.579897138E0,3.278166950E-1,-6.181259155E0,-6.377769470E0
7.596563075E0,-1.267298698E0,-5.400899887E0,-6.859025955E0
7.613229013E0,-2.640778780E0,-4.528117657E0,-6.468996048E0
7.629894950E0,-3.512065411E0,-3.561417341E0,-5.928816319E0
7.646560888E0,-3.268595695E0,-2.993122101E0,-4.998008251E0
7.663226825E0,-1.187438250E0,-2.855534792E0,-4.174578190E0
7.679892763E0,4.464109898E0,-3.894019842E0,-4.394418716E0
7.696558700E0,1.305942822E1,-5.607280731E0,-4.152743816E0
7.713224638E0,1.972702789E1,-5.035695076E0,-1.564307809E0
7.729890575E0,2.066142464E1,2.552244425E0,3.405884027E0
7.746556513E0,2.250090790E1,1.561825275E1,1.229551888E1
7.763222450E0,3.490918732E1,1.564965820E1,1.822672844E1
7.779888388E0,3.506531906E1,1.131805134E1,2.350290298E1
7.796554325E0,1.689003754E1,1.431236935E1,2.449622345E1
7.813220263E0,6.037988663E0,1.291526031E1,1.797518349E1
7.829886200E0,1.351944804E0,1.186840057E1,1.020030403E1
7.846552138E0,1.500299811E0,1.097557831E1,3.340679407E0
7.863218075E0,3.067299604E0,9.601499557E0,9.855438471E-1
7.879884013E0,2.581556559E0,9.108279228E0,1.193121195E0
7.896549950E0,1.304686546E0,8.662915230E0,2.577069998E0
7.913215888E0,4.016951025E-1,8.210671425E0,4.133601189E0
7.929881825E0,-3.266202807E-1,8.260622025E0,4.834399223E0
7.946547763E0,-1.035793066E0,8.547760963E0,4.564010143E0
7.963213700E0,-2.108375788E0,8.691329956E0,3.995415688E0
7.979879638E0,-3.253042459E0,8.738887787E0,3.161516905E0
7.996545575E0,-3.739981890E0,8.569295883E0,2.911167860E0
8.013211513E0,-2.734697104E0,8.061419487E0,3.614059448E0
8.029877450E0,-2.721835673E-1,8.249854088E0,5.099404335E0
8.046543388E0,3.757329702E0,1.124536896E1,7.293024540E0
8.063209325E0,8.029714584E0,1.908874321E1,9.100203514E0
8.079875263E0,1.236730385E1,2.737179756E1,9.658030510E0
8.096541200E0,2.177767754E1,2.695754051E1,1.275404358E1
8.113207138E0,2.066950035E1,2.042782593E1,1.684277916E1
8.129873075E0,1.263589859E1,1.376202011E1,1.869213295E1
8.146539013E0,8.568099976E0,8.465507507E0,1.623440361E1
8.163204950E0,9.134002686E0,3.827918053E0,1.162822056E1
8.179870888E0,9.398708344E0,-5.204389244E-2,5.795117378E0
8.196536825E0,8.884251595E0,-3.822534084E0,1.879861236E0
8.213202763E0,8.140083313E0,-6.374479294E0,-8.883354068E-1
8.229868700E0,7.780262947E0,-7.485347271E0,-2.820838690E0
8.246534638E0,8.510073662E0,-7.698607922E0,-3.209373474E0
8.263200575E0,9.146863937E0,-7.995616913E0,-3.337987661E0
8.279866513E0,7.935198307E0,-7.848159313E0,-3.210868835E0
8.296532450E0,5.781956673E0,-7.472486019E0,-3.350549936E0
8.313198388E0,3.591925859E0,-6.958926678E0,-3.458226919E0
8.329864325E0,2.316551447E0,-6.407081604E0,-3.317050457E0
8.346530263E0,2.773879766E0,-5.556134224E0,-2.478665113E0
8.363196200E0,4.874478817E0,-4.770390987E0,-2.557927370E0
8.379862138E0,8.097012520E0,-4.295714855E0,-2.336591244E0
8.396528075E0,1.044197845E1,-3.547957659E0,-1.601994753E0
8.413194013E0,1.100698376E1,-1.563410521E0,-7.698906660E-1
8.429859950E0,1.468475246E1,4.510171413E0,2.896811008E0
8.446525888E0,2.919931602E1,1.092502975E1,1.139970589E1
8.463191825E0,4.232783508E1,1.562662697E1,2.073380852E1
8.479857763E0,3.876552200E1,1.823031807E1,2.163470650E1
8.496523700E0,2.413729858E1,1.816870308E1,1.802423477E1
8.513189638E0,1.161894894E1,1.630230141E1,1.230957699E1
8.529855575E0,4.709673405E0,1.437966728E1,7.119245529E0
8.546521513E0,2.301596165E0,1.321675587E1,4.783252239E0
8.563187450E0,2.432304144E0,1.263709450E1,4.775774956E0
8.579853388E0,2.962314367E0,1.303400421E1,5.839384556E0
8.596519325E0,2.842972517E0,1.347129250E1,6.282056808E0
8.613185263E0,2.258525372E0,1.327777290E1,5.480461121E0
8.629851200E0,5.473581702E-2,1.266640663E1,3.729812384E0
8.646517138E0,-3.082553864E0,1.186750317E1,2.198405743E0
8.663183075E0,-5.298008442E0,1.106351471E1,1.801496387E0
8.679849013E0,-5.542973518E0,1.052542877E1,2.829811811E0
8.696514950E0,-3.988835335E0,9.907182693E0,4.651946545E0
8.713180888E0,-1.289731383E0,9.235696793E0,5.955735683E0
8.729846825E0,1.690230131E0,9.360123634E0,6.137589931E0
8.746512763E0,4.242474556E0,1.200209904E1,6.033203125E0
8.763178700E0,6.341578007E0,1.942104530E1,8.481958389E0
8.779844638E0,1.447059536E1,2.599293327E1,1.681406593E1
8.796510575E0,2.940539742E1,2.382473755E1,2.833072090E1
8.813176513E0,3.478565979E1,1.767817307E1,2.544019127E1
8.829842450E0,2.797688293E1,1.183490086E1,1.715085602E1
8.846508388E0,2.051097679E1,6.105586052E0,1.194437218E1
8.863174325E0,1.472872066E1,1.158126116E0,9.638289452E0
8.879840263E0,1.038963604E1,-3.026023388E0,6.315257072E0
8.896506200E0,8.842975616E0,-6.697211266E0,3.529114246E0
8.913172138E0,8.671588898E0,-9.847362518E0,3.583251834E-1
8.929838075E0,7.676175117E0,-1.191386414E1,-2.155035973E0
8.946504013E0,6.192924023E0,-1.299571896E1,-2.840878725E0
8.963169950E0,4.683950424E0,-1.328644657E1,-3.450749397E0
8.979835888E0,2.307877541E0,-1.226680565E1,-4.846961498E0
8.996501825E0,2.347957194E-1,-1.055832958E1,-7.124031067E0
9.013167763E0,-1.269093275E0,-9.085846901E0,-9.288339615E0
9.029833700E0,-1.495514154E0,-7.494021416E0,-1.031007481E1
9.046499638E0,-1.489532143E-1,-6.247959137E0,-1.042313576E1
9.063165575E0,3.259323597E0,-5.427220821E0,-9.354440689E0
9.079831513E0,9.157930374E0,-4.943870544E0,-7.505387306E0
9.096497450E0,1.477747440E1,-3.447160006E0,-4.302594185E0
9.113163388E0,1.809422493E1,-1.465603895E-2,-7.345965505E-1
9.129829325E0,1.938515282E1,5.555236816E0,4.639383793E0
9.146495263E0,2.498764801E1,1.180229855E1,1.539093399E1
9.163161200E0,3.497708511E1,1.377518082E1,2.484497643E1
9.179827138E0,3.634847260E1,1.295892906E1,2.694138908E1
9.196493075E0,2.740888596E1,1.175474167E1,2.546262360E1
9.213159013E0,1.573968792E1,1.002981567E1,2.225564384E1
9.229824950E0,5.840281963E0,8.905488014E0,1.714726639E1
9.246490888E0,4.325026870E-1,9.067302704E0,1.281565857E1
9.263156825E0,-1.504487246E-1,9.501599312E0,1.054816055E1
9.279822763E0,4.707878530E-1,9.956235886E0,9.877572060E0
9.296488700E0,-2.015953064E-1,1.027178955E1,9.446265221E0
9.313154638E0,-1.397109270E0,1.012014389E1,8.950352669E0
9.329820575E0,-1.944467545E0,9.193822861E0,8.313263893E0
9.346486513E0,-2.253141642E0,8.089534760E0,7.592426300E0
9.363152450E0,-2.840878725E0,7.011867523E0,6.938587666E0
9.379818388E0,-3.311367512E0,5.780461311E0,6.265605927E0
9.396484325E0,-3.672085524E0,4.707579613E0,5.403890610E0
9.413150263E0,-3.943670750E0,3.826422453E0,4.025625229E0
9.429816200E0,-3.529114246E0,3.830610037E0,2.207678080E0
9.446482138E0,-2.903092146E0,5.839683533E0,-7.178467698E-3
9.463148075E0,-2.505883455E0,9.451051712E0,-1.665703654E0
9.479814013E0,-2.595614433E0,1.361964703E1,2.797807932E0
9.496479950E0,-2.508874655E0,1.669831276E1,1.794826317E1
9.513145888E0,1.871785522E0,1.338574886E1,4.509842682E1
9.529811825E0,9.489037514E0,5.732305527E0,5.615895081E1
9.546477763E0,1.848933983E1,8.440681696E-1,4.920062256E1
9.563143700E0,2.014995956E1,-2.838485837E-1,3.627369690E1
9.579809638E0,1.740629005E1,-2.022533417E0,2.383370972E1
9.596475575E0,1.243340588E1,-2.316252232E0,1.587278938E1
9.613141513E0,6.885347366E0,-4.628915310E0,1.060110188E1
9.629807450E0,6.096014977E0,-9.052945137E0,8.002795219E0
9.646473388E0,7.315756321E0,-1.154596710E1,8.503194809E0
9.663139325E0,1.137099266E1,-1.307079411E1,7.420442104E0
9.679805263E0,1.513908958E1,-1.426122284E1,2.195414782E0
9.696471200E0,1.451007652E1,-1.328883934E1,-5.764608860E0
9.713137138E0,1.070578766E1,-1.095105171E1,-1.287338543E1
9.729803075E0,7.363014221E0,-9.218349457E0,-1.579143333E1
9.746469013E0,4.398606300E0,-8.315358162E0,-1.474666691E1
9.763134950E0,8.084749579E-1,-7.853842258E0,-1.174726391E1
9.779800888E0,-2.881855726E0,-7.288836956E0,-8.761320114E0
9.796466825E0,-5.849853039E0,-6.317350864E0,-6.999903679E0
9.813132763E0,-7.371987343E0,-5.451747417E0,-7.012166977E0
9.829798700E0,-7.648956776E0,-4.835595608E0,-4.706383228E0
9.846464638E0,-5.382056236E0,-1.785643935E0,2.881257534E0
9.863130575E0,3.478864908E0,4.375874400E-1,1.937139511E1
9.879796513E0,1.504188156E1,8.093722463E-1,4.230450439E1
9.896462450E0,1.593709564E1,3.929912090E0,5.157280731E1
9.913128388E0,1.307139206E1,7.448557854E0,4.568825531E1
9.929794325E0,1.225185013E1,1.019222832E1,3.280200958E1
9.946460263E0,9.638289452E0,1.173410320E1,1.786930084E1
9.963126200E0,4.349254131E0,1.200090313E1,7.200900555E0
9.979792138E0,-6.287141442E-1,1.075842953E1,3.090031385E0
9.996458075E0,-2.835494757E0,7.921140194E0,3.990929127E0
1.001312401E1,-2.599502802E0,4.518247128E0,6.056233883E0
1.002978995E1,-1.363011599E0,1.441974759E0,7.942675591E0
1.004645589E1,2.350948304E-1,-5.820540786E-1,8.827422142E0
1.006312183E1,4.513461590E-1,-5.763711333E-1,7.050751209E0
1.007978776E1,3.320041299E-1,1.194915771E0,5.895017624E0
1.009645370E1,2.573779821E0,3.937987804E0,8.210372925E0
1.011311964E1,1.054576778E1,3.671487331E0,1.452323723E1
1.012978558E1,1.685474396E1,5.994020700E-1,1.750858307E1
1.014645151E1,1.668874168E1,-2.382952213E0,1.452263927E1
1.016311745E1,1.209870911E1,-3.523730516E0,1.243759346E1
1.017978339E1,7.893323898E0,-3.992723703E0,1.290598774E1
1.019644933E1,6.344868183E0,-4.336093903E0,1.237866974E1
1.021311526E1,7.606483936E0,-4.354339123E0,1.066152000E1
1.022978120E1,8.697910309E0,-3.705883980E0,7.887939930E0
1.024644714E1,9.362516403E0,-2.759223700E0,4.558626175E0
1.026311308E1,9.494122505E0,-1.604686737E0,1.022931695E0
1.027977901E1,9.384650230E0,-6.909275651E-1,-2.362613201E0
1.029644495E1,8.565707207E0,1.683948934E-1,-4.764708042E0
1.031311089E1,7.263412952E0,1.342074394E0,-6.009573936E0
1.032977683E1,6.031109333E0,2.101496458E0,-5.886343479E0
1.034644276E1,5.254040241E0,2.308176517E0,-4.568496704E0
1.036310870E1,5.653043270E0,2.319542408E0,-2.941975355E0
1.037977464E1,6.706483841E0,2.608176708E0,-5.718846321E-1
1.039644058E1,7.277172089E0,4.004089355E0,1.709073544E0
1.041310651E1,7.686045647E0,6.984948635E0,6.375376701E0
1.042977245E1,1.038335514E1,1.039681435E1,1.277348518E1
1.044643839E1,1.580070496E1,1.165992546E1,1.943301010E1
1.046310433E1,2.003330994E1,1.099741268E1,2.137568283E1
1.047977026E1,2.072303963E1,1.016500950E1,1.808704758E1
1.049643620E1,1.846182251E1,9.639186859E0,1.384756374E1
1.051310214E1,1.462852097E1,9.071489334E0,9.636494637E0
1.052976808E1,9.918250084E0,8.644071579E0,5.471786976E0
1.054643401E1,6.037988663E0,8.738887787E0,2.642573595E0
1.056309995E1,4.275076866E0,8.858827591E0,1.505085468E0
1.057976589E1,4.319941998E0,8.976374626E0,1.757827282E0
1.059643182E1,5.412863731E0,8.939585686E0,2.069791555E0
1.061309776E1,6.255137444E0,8.813663483E0,2.099103689E0
1.062976370E1,5.699105263E0,8.845666885E0,1.884646893E0
1.064642964E1,4.106980801E0,8.475975990E0,1.894517303E0
1.066309558E1,2.727219582E0,7.116852760E0,3.396013498E0
1.067976151E1,2.495713949E0,5.246263504E0,6.036493301E0
1.069642745E1,3.882952929E0,4.099503517E0,8.902795792E0
1.071309339E1,5.037788868E0,4.047758579E0,1.190219879E1
1.072975932E1,5.634798050E0,5.561218739E0,1.530329704E1
1.074642526E1,8.036892891E0,7.959425449E0,1.684247971E1
1.076309120E1,1.155523968E1,9.625727654E0,1.671954918E1
1.077975714E1,1.352213955E1,9.206086159E0,1.688196182E1
1.079642308E1,1.275853062E1,7.512266636E0,1.700130463E1
1.081308901E1,1.241097260E1,5.445466042E0,1.562393570E1
1.082975495E1,1.297208977E1,2.219642162E0,1.259701443E1
1.084642089E1,1.144606686E1,-2.222034931E0,8.572287560E0
1.086308682E1,7.840681553E0,-6.386144638E0,6.091528416E0
1.087975276E1,3.722633839E0,-9.445069313E0,4.889433861E0
1.089641870E1,1.146162033E0,-1.123639584E1,3.435794115E0
1.091308464E1,4.250251353E-1,-1.262961674E1,5.291129351E-1
1.092975058E1,6.448656917E-1,-1.295982647E1,-2.111366987E0
1.094641651E1,1.708774447E0,-1.253091335E1,-4.836791992E0
1.096308245E1,2.364108801E0,-1.111346436E1,-8.411369324E0
1.097974839E1,2.373081923E0,-9.472287178E0,-1.123789120E1
1.099641432E1,2.581257343E0,-8.074580193E0,-1.084636593E1
1.101308026E1,4.773980141E0,-7.974380493E0,-8.235497475E0
1.102974620E1,8.548358917E0,-7.852346420E0,-5.790630817E0
1.104641214E1,1.300229931E1,-6.710970402E0,-4.359723091E0
1.106307808E1,1.842712784E1,-4.394717693E0,-3.310769320E0
1.107974401E1,2.471666145E1,-1.465603858E-1,-1.510469317E-1
1.109640995E1,3.742344666E1,1.493719578E0,8.385946274E0
1.111307589E1,4.882913589E1,2.085345030E0,1.422503185E1
1.112974182E1,4.476731873E1,5.086243629E0,2.040120506E1
1.114640776E1,3.389702606E1,9.152247429E0,2.626810837E1
1.116307370E1,2.166102791E1,9.085248947E0,2.504447746E1
1.117973964E1,7.947461128E0,7.919644833E0,2.114836502E1
1.119640558E1,6.097510338E0,8.097610474E0,1.501944828E1
1.121307151E1,5.006382942E0,7.564011574E0,9.185447693E0
1.122973745E1,2.287837505E0,8.707182884E0,5.725725651E0
1.124640339E1,5.353940725E-1,8.940781593E0,5.746662617E0
1.126306932E1,-8.494520187E-2,8.758329391E0,8.060821533E0
1.127973526E1,-1.774278045E0,8.943473816E0,1.033250713E1
1.129640120E1,-3.503391504E0,8.805587769E0,1.086879826E1
1.131306714E1,-4.481158733E0,8.295019150E0,1.038126087E1
1.132973308E1,-5.140381336E0,8.169096947E0,9.595218658E0
1.134639901E1,-2.883949518E0,7.202096939E0,9.569196701E0
1.136306495E1,1.289133132E-1,6.187839508E0,1.115922737E1
1.137973089E1,3.557828188E0,4.840381145E0,1.405962753E1
1.139639682E1,7.008876801E0,4.581058979E0,1.571486282E1
1.141306276E1,1.078475094E1,6.027221203E0,1.681825256E1
1.142972870E1,1.484028625E1,7.804789066E0,1.813281059E1
1.144639464E1,2.038774681E1,8.028517723E0,2.129791641E1
1.146306058E1,2.945175934E1,5.082056046E0,2.234986115E1
1.147972651E1,3.279363251E1,2.069791555E-1,1.961755562E1
1.149639245E1,2.599442863E1,-4.068696022E0,1.688375664E1
1.151305839E1,1.490907955E1,-7.712665558E0,1.479631805E1
1.152972432E1,8.869894028E0,-9.818050385E0,1.440868092E1
1.154639026E1,8.316255569E0,-1.149930763E1,1.145234871E1
1.156305620E1,8.302197456E0,-1.225185013E1,5.363512039E0
1.157972214E1,7.991429329E0,-1.186062336E1,-1.844567180E0
1.159638808E1,3.654139280E0,-9.136993408E0,-6.607779503E0
1.161305401E1,1.907378793E0,-8.069495201E0,-8.999705315E0
1.162971995E1,5.856433511E-1,-7.240980625E0,-9.598209381E0
1.164638589E1,-3.230310604E-2,-7.299305439E0,-8.777770996E0
1.166305182E1,-4.995017126E-2,-7.322635651E0,-8.778368950E0
1.167971776E1,-7.671987414E-1,-6.588337898E0,-9.375976562E0
1.169638370E1,-5.596213937E-1,-5.973083496E0,-9.188139915E0
1.171304964E1,9.924231768E-1,-5.583950520E0,-8.271688461E0
1.172971558E1,3.388834953E0,-5.746662617E0,-7.176074982E0
1.174638151E1,7.505985737E0,-6.521039963E0,-5.835795403E0
1.176304745E1,1.382812214E1,-6.417849541E0,-2.621038198E0
1.177971339E1,1.988016891E1,-2.141277075E0,6.053841114E0
1.179637932E1,3.212155151E1,4.985146999E0,2.236780739E1
1.181304526E1,4.578965378E1,9.014361382E0,3.164926720E1
1.182971120E1,4.362683868E1,1.070728302E1,2.886970520E1
1.184637714E1,2.660609436E1,1.147956657E1,2.180609131E1
1.186304308E1,1.183669567E1,1.120259762E1,1.244477177E1
1.187970901E1,4.424029827E0,9.601499557E0,5.479863167E0
1.189637495E1,2.473580390E-1,8.373085022E0,1.531107426E0
1.191304089E1,-1.089631557E0,7.089634418E0,2.264507532E0
1.192970682E1,-1.444068432E0,6.079564095E0,4.435395718E0
1.194637276E1,-3.013760090E0,6.550053120E0,6.204888344E0
1.196303870E1,-2.494517565E0,7.142276287E0,8.196314812E0
1.197970464E1,-1.632802367E0,8.338987350E0,1.079940701E1
1.199637058E1,3.080759048E-1,9.880263329E0,1.167817116E1
1.201303651E1,1.102792144E0,1.203619671E1,1.035703373E1
1.202970245E1,4.184448719E-1,1.295593834E1,8.416454315E0
1.204636839E1,3.146561682E-1,1.208345509E1,8.278268814E0
1.206303432E1,6.996015310E-1,1.030977535E1,1.015723324E1
1.207970026E1,2.149353027E0,8.002495766E0,1.302024555E1
1.209636620E1,5.745466232E0,7.058527470E0,1.497099400E1
1.211303214E1,9.116654396E0,8.256733894E0,1.559492207E1
1.212969808E1,1.196620655E1,1.059840965E1,1.664566994E1
1.214636401E1,1.807119560E1,1.167398357E1,1.793929100E1
1.216302995E1,2.743131828E1,1.048804092E1,1.883181381E1
1.217969589E1,3.421676636E1,7.381558895E0,1.931665993E1
1.219636182E1,3.315106201E1,3.245265722E0,1.731386566E1
1.221302776E1,2.591426849E1,-4.229314029E-1,1.342433357E1
1.222969370E1,1.891496468E1,-3.578765392E0,9.903294563E0
1.224635964E1,1.380329609E1,-6.397211552E0,7.439584732E0
1.226302558E1,9.813264847E0,-9.140881538E0,5.486742496E0
1.227969151E1,6.212665081E0,-1.117567825E1,2.682653189E0
1.229635745E1,3.062813044E0,-1.258564854E1,-3.529413417E-2
1.231302339E1,3.299104273E-1,-1.320628738E1,-2.315055847E0
1.232968932E1,-1.853839397E0,-1.303968716E1,-5.178068161E0
1.234635526E1,-3.905385733E0,-1.283240891E1,-8.138288498E0
1.236302120E1,-5.664110184E0,-1.230329609E1,-1.025623608E1
1.237968714E1,-6.267101765E0,-1.140598774E1,-1.090917778E1
1.239635308E1,-5.316852093E0,-1.053320503E1,-1.092263699E1
1.241301901E1,-2.828316450E0,-1.052632618E1,-9.665508270E0
1.242968495E1,1.076770201E-2,-1.039382362E1,-7.377969742E0
1.244635089E1,3.358027458E0,-9.997511864E0,-6.135197163E0
1.246301682E1,7.572087288E0,-8.551349640E0,-4.634598255E0
1.247968276E1,1.921167374E1,-4.325026989E0,-9.302098304E-2
1.249634870E1,4.423072815E1,6.251249313E-1,9.325727463E0
1.251301464E1,5.882545090E1,8.829515457E0,1.769761467E1
1.252968058E1,5.033242798E1,1.402523041E1,2.190449715E1
1.254634651E1,3.263510895E1,1.379940796E1,2.010629082E1
1.256301245E1,1.707727623E1,1.296790218E1,1.341476154E1
1.257967839E1,8.332406998E0,1.164197922E1,6.581458569E0
1.259634432E1,3.794717550E0,1.080030441E1,3.914059639E0
1.261301026E1,1.220339537E0,1.001874828E1,4.042674065E0
1.262967620E1,-1.178764224E0,8.936594009E0,5.207081318E0
1.264634214E1,-1.378864050E-1,8.163114548E0,7.182057381E0
1.266300808E1,2.722134829E0,8.531908035E0,7.182356358E0
1.267967401E1,1.201795220E0,1.037258720E1,5.335695267E0
1.269633995E1,-3.016751051E0,1.265863037E1,3.356831074E0
1.271300589E1,-4.707579613E0,1.438714504E1,3.386442184E0
1.272967182E1,-3.666103363E0,1.463240910E1,4.244568348E0
1.274633776E1,-1.177866936E0,1.382662678E1,5.405685425E0
1.276300370E1,1.458724499E0,1.236371422E1,5.700600624E0
1.277966964E1,2.884846687E0,1.084786129E1,5.424229622E0
1.279633558E1,2.381456852E0,1.103988552E1,5.503491879E0
1.281300151E1,6.196513176E0,1.151127148E1,9.542576790E0
1.282966745E1,2.345026016E1,1.004118156E1,1.278186035E1
1.284633339E1,4.638875580E1,6.733702183E0,1.411197090E1
1.286299932E1,5.611557770E1,4.528117657E0,1.184865952E1
1.287966526E1,4.622035980E1,4.686941206E-1,1.205504036E1
1.289633120E1,2.822095108E1,-3.408276796E0,1.260628700E1
1.291299714E1,1.458784294E1,-4.756333351E0,1.026879883E1
1.292966308E1,9.008378983E0,-5.362614632E0,5.731408596E0
1.294632901E1,6.892525673E0,-5.479563713E0,7.094719410E-1
1.296299495E1,4.854139805E0,-5.476871967E0,-3.802195072E0
1.297966089E1,3.742972851E0,-4.986343384E0,-6.461817741E0
1.299632682E1,3.250350475E0,-4.315455437E0,-7.289135933E0
1.301299276E1,3.082254648E0,-3.800998688E0,-6.279065609E0
1.302965870E1,2.530110836E0,-4.157230377E0,-3.488137245E0
1.304632464E1,8.850452900E-1,-4.405186653E0,7.746763229E-1
1.306299058E1,-6.843472719E-1,-5.073382378E0,3.270390272E0
1.307965651E1,-3.229413271E0,-5.291129112E0,2.261516571E0
1.309632245E1,-5.371886730E0,-5.318646431E0,-9.598209858E-1
1.311298839E1,-6.954140663E0,-3.140878916E0,-4.701597214E0
1.312965432E1,-6.980761051E0,-7.082754970E-1,-4.967499733E0
1.314632026E1,-5.773581982E0,7.992027402E-1,-1.628614902E0
1.316298620E1,-6.072684765E0,1.205384374E0,4.018147469E0
1.317965214E1,-5.478367329E0,2.560021162E0,1.067228794E1
1.319631808E1,7.663014531E-1,3.387040377E0,1.808704758E1
1.321298401E1,1.090319538E1,4.370789528E0,2.278655052E1
1.322964995E1,1.809482384E1,6.063113689E0,2.232712936E1
1.324631589E1,2.027109528E1,7.741080284E0,1.557936954E1
1.326298182E1,1.905464554E1,8.327621460E0,7.593921661E0
1.327964776E1,1.556680679E1,8.011468887E0,1.047757268E0
1.329631370E1,1.225932789E1,5.980860233E0,-1.916650891E0
1.331297964E1,1.010698414E1,3.081955671E0,-1.405484200E0
1.332964558E1,9.265008926E0,7.965108156E-1,-3.005983531E-1
1.334631151E1,1.076201916E1,-9.086744189E-1,-1.636092514E-1
1.336297745E1,1.280638695E1,-6.661019921E-1,-2.935694218E0
1.337964339E1,1.577288914E1,6.810571551E-1,-8.603992462E0
1.339630932E1,2.098954201E1,2.503490686E0,-1.048475075E1
1.341297526E1,2.382623291E1,4.000799656E0,-7.869395256E0
1.342964120E1,2.359173584E1,6.295815468E0,-3.967000723E0
1.344630714E1,2.305484581E1,8.179863930E0,-1.788634896E0
1.346297308E1,2.111217308E1,8.509774208E0,-5.620142221E-1
1.347963901E1,1.556590939E1,7.533204079E0,1.418345571E0
1.349630495E1,1.009143066E1,5.810371399E0,2.522932291E0
1.351297089E1,5.944967747E0,5.037190914E0,2.535494804E0
1.352963682E1,2.620738983E0,5.368297577E0,2.074577332E0
1.354630276E1,3.589234129E-2,6.718148708E0,2.847758055E0
1.356296870E1,-1.562812328E0,9.057432175E0,4.010669708E0
1.357963464E1,-2.083849430E0,1.233529949E1,4.525425911E0
1.359630058E1,-5.234299302E-1,1.595773411E1,5.927918911E0
1.361296651E1,3.423531055E0,1.791895103E1,9.894919395E0
1.362963245E1,1.044108200E1,1.691845322E1,1.652363586E1
1.364629839E1,1.656311798E1,1.404138279E1,1.977009964E1
1.366296432E1,1.656371689E1,1.089392376E1,1.544477272E1
1.367963026E1,1.209093285E1,8.810971260E0,1.049252701E1
1.369629620E1,7.970192909E0,6.888637066E0,9.492028236E0
1.371296214E1,6.917351246E0,4.715356350E0,1.306122208E1
1.372962808E1,8.053643227E0,2.786442041E0,1.675364685E1
1.374629401E1,1.102373409E1,1.716850281E0,1.846302032E1
1.376295995E1,1.441855145E1,1.904088616E0,1.699621964E1
1.377962589E1,1.758485413E1,2.695215702E0,1.525244999E1
1.379629182E1,2.028066826E1,3.695116282E0,1.421067429E1
1.381295776E1,2.494607353E1,3.101098061E0,1.571576023E1
1.382962370E1,3.002453995E1,-2.491526604E-1,1.501885033E1
1.384628964E1,2.939463043E1,-4.166502476E0,9.900901794E0
1.386295558E1,2.425036049E1,-9.235696793E0,7.498507977E0
1.387962151E1,1.636421585E1,-1.372911930E1,8.688937187E0
1.389628745E1,7.227221489E0,-1.579322720E1,9.826425552E0
1.391295339E1,4.244269133E-1,-1.589731503E1,7.377072334E0
1.392961932E1,-1.948056698E0,-1.508943844E1,2.316551447E0
1.394628526E1,-1.667199135E0,-1.434766388E1,-3.519243956E0
1.396295120E1,-1.141376376E0,-1.317129230E1,-8.565108299E0
1.397961714E1,-1.549950838E0,-1.186780167E1,-1.115324497E1
1.399628308E1,1.375873089E-1,-1.116760254E1,-1.185703468E1
1.401294901E1,2.535195589E0,-1.047338486E1,-1.185972595E1
1.402961495E1,4.095614910E0,-9.871291161E0,-1.179183006E1
1.404628089E1,5.462814331E0,-1.018056297E1,-1.051675415E1
1.406294683E1,7.934300900E0,-1.089691448E1,-9.103194237E0
1.407961276E1,1.238345528E1,-1.061127090E1,-7.359724045E0
1.409627870E1,1.739312935E1,-8.230711937E0,-3.899403572E0
1.411294464E1,2.453749847E1,-2.555833578E0,2.040180445E0
1.412961058E1,3.629463196E1,4.355535507E0,1.155942726E1
1.414627651E1,4.657001114E1,9.550054550E0,1.723400688E1
1.416294245E1,4.288476562E1,1.456929874E1,1.636750603E1
1.417960839E1,3.034099197E1,1.708026695E1,1.156211948E1
1.419627433E1,2.040958023E1,1.691127396E1,7.371389389E0
1.421294026E1,1.325264835E1,1.597298813E1,5.329414368E0
1.422960620E1,8.094321251E0,1.571815300E1,5.690132141E0
1.424627214E1,6.054140568E0,1.554347706E1,7.285546780E0
1.426293808E1,6.121438503E0,1.507119370E1,8.609076500E0
1.427960401E1,7.463811874E0,1.447029591E1,8.979964256E0
1.429626995E1,8.454141617E0,1.376501179E1,7.843074322E0
1.431293589E1,8.508877754E0,1.292602825E1,6.496214390E0
1.432960183E1,7.409076214E0,1.221476173E1,6.792625427E0
1.434626776E1,7.420741081E0,1.110628605E1,8.344670296E0
1.436293370E1,1.052363396E1,9.714560509E0,9.530911446E0
1.437959964E1,1.508435440E1,8.845068932E0,1.038395309E1
1.439626558E1,1.846780586E1,9.777072906E0,1.125763226E1
1.441293151E1,2.272643089E1,1.360080433E1,1.522672653E1
1.442959745E1,3.183142090E1,1.715265083E1,2.341167641E1
1.444626339E1,4.168984985E1,1.575165272E1,3.073401260E1
1.446292933E1,4.542893600E1,9.046364784E0,2.947508812E1
1.447959526E1,4.135036850E1,8.886345029E-1,2.395185471E1
1.449626120E1,3.323092270E1,-8.100900650E0,1.769881248E1
1.451292714E1,2.141366959E1,-1.663729668E1,1.195005512E1
1.452959308E1,1.208824062E1,-2.388246346E1,1.007916737E1
1.454625901E1,7.477869987E0,-2.977718163E1,7.934599876E0
1.456292495E1,4.272085667E0,-3.232823181E1,2.208575249E0
1.457959089E1,3.008974493E-1,-3.082404137E1,-4.793122768E0
1.459625683E1,-3.376272678E0,-2.722015190E1,-1.004835987E1
1.461292276E1,-5.708377361E0,-2.353759766E1,-1.187109184E1
1.462958870E1,-6.691528320E0,-2.051217270E1,-1.113948631E1
1.464625464E1,-5.448457241E0,-1.834906197E1,-8.433204651E0
1.466292058E1,-1.551147223E0,-1.682902145E1,-5.646762371E0
1.467958651E1,4.134498596E0,-1.570618916E1,-4.473680973E0
1.469625245E1,1.078893852E1,-1.432343674E1,-4.279563427E0
1.471291839E1,1.801436615E1,-1.222941780E1,-5.480461121E0
1.472958433E1,2.294567299E1,-8.911768913E0,-7.332206726E0
1.474625026E1,2.712742996E1,-4.951946259E0,-7.698906898E0
1.476291620E1,3.312982559E1,1.674676776E0,3.157628536E0
1.477958214E1,4.825156784E1,6.925127983E0,1.829133415E1
1.479624808E1,5.556941605E1,1.105304623E1,2.283590317E1
1.481291401E1,4.440869522E1,1.527637768E1,2.358695030E1
1.482957995E1,2.934557724E1,1.684816360E1,2.127398872E1
1.484624589E1,2.041885376E1,1.514088440E1,1.632921982E1
1.486291183E1,1.282852077E1,1.393968773E1,1.128574753E1
1.487957776E1,7.664809227E0,1.292961693E1,7.935198307E0
1.489624370E1,4.364807606E0,1.296461201E1,7.040282249E0
1.491290964E1,3.485146284E0,1.311506081E1,8.248059273E0
1.492957558E1,3.377170086E0,1.422443295E1,1.025862885E1
1.494624151E1,1.421934843E0,1.558116341E1,9.852148056E0
1.496290745E1,3.023929596E-1,1.694866180E1,8.926424980E0
1.497957339E1,-8.916255236E-1,1.793091583E1,8.209176064E0
1.499623933E1,-1.848754644E0,1.719901085E1,8.430212975E0
1.501290526E1,-1.301396370E0,1.474217987E1,1.037527943E1
1.502957120E1,1.935195327E-1,1.175145149E1,1.318265820E1
1.504623714E1,2.560021162E0,9.606884003E0,1.457946873E1
1.506290308E1,6.937690258E0,8.767302513E0,1.645663834E1
1.507956901E1,1.420947838E1,8.012965202E0,1.808644867E1
1.509623495E1,2.073350906E1,8.141878128E0,1.745773506E1
1.511290089E1,2.471337128E1,9.457033157E0,1.498594952E1
1.512956683E1,2.752284431E1,1.090917778E1,1.465005684E1
1.514623276E1,3.375106430E1,9.182157516E0,1.629093552E1
1.516289870E1,3.666073608E1,2.921337366E0,1.669382668E1
1.517956464E1,2.990340424E1,-2.483151674E0,1.505444336E1
1.519623058E1,1.955235291E1,-6.552146435E0,1.219202995E1
1.521289651E1,1.157468128E1,-9.545269012E0,9.993623734E0
1.522956245E1,7.340581894E0,-1.224108219E1,6.413064003E0
1.524622839E1,4.359723091E0,-1.367378521E1,1.591825247E0
1.526289433E1,1.869093537E0,-1.345723438E1,-2.319243431E0
1.527956026E1,4.396811724E-1,-1.386281776E1,-5.329114914E0
1.529622620E1,-1.359721422E0,-1.407757378E1,-7.498806953E0
1.531289214E1,-3.521636724E0,-1.431207085E1,-9.128917694E0
1.532955808E1,-6.177968979E0,-1.537209129E1,-1.088136101E1
1.534622401E1,-8.933005333E0,-1.561286831E1,-1.236760330E1
1.536288995E1,-9.600303650E0,-1.502961826E1,-1.176401329E1
1.537955589E1,-6.418746948E0,-1.433211040E1,-1.043420219E1
1.539622183E1,2.314457655E0,-1.444995689E1,-9.512367249E0
1.541288776E1,1.545793343E1,-1.387717533E1,-5.914459229E0
1.542955370E1,2.421596336E1,-7.922336578E0,2.491526604E-1
1.544621964E1,2.467568398E1,3.480360508E0,9.284450531E0
1.546288558E1,3.725086594E1,1.139222908E1,2.644577408E1
1.547955151E1,5.723482132E1,1.175384426E1,3.942295074E1
1.549621745E1,5.132903671E1,1.616291809E1,2.661058044E1
1.551288339E1,3.325814056E1,1.817767525E1,1.019133091E1
1.552954933E1,1.894696808E1,1.512622833E1,3.350549936E0
1.554621526E1,6.957430840E0,1.110658550E1,1.400399446E0
1.556288120E1,-2.554637194E0,8.835198402E0,5.371587753E0
1.557954714E1,-6.296413898E0,8.518149376E0,1.224317646E1
1.559621308E1,-4.194318771E0,9.338289261E0,1.364866066E1
1.561287901E1,1.463211060E0,1.095912743E1,9.148359299E0
1.562954495E1,4.337888241E0,1.383978748E1,3.247359514E0
1.564621089E1,2.948854923E0,1.568016720E1,-2.128116608E0
1.566287683E1,-5.473581553E-1,1.667288971E1,-4.023830414E0
1.567954276E1,-2.377867460E0,1.589462376E1,-2.521436810E-1
1.569620870E1,-2.837588549E0,1.452951813E1,4.864309311E0
1.571287464E1,-1.535893083E0,1.289970684E1,8.231309891E0
1.572954058E1,-3.858426511E-1,1.167099285E1,7.789834023E0
1.574620651E1,1.037587762E0,1.076650524E1,3.881457329E0
1.576287245E1,4.332205296E0,1.033789158E1,1.560419440E0
1.577953839E1,8.432307243E0,1.038933659E1,1.784148335E0
1.579620433E1,1.394925880E1,1.161117172E1,4.528117657E0
1.581287026E1,2.350349998E1,1.361695576E1,9.061619759E0
1.582953620E1,3.683481216E1,1.568405533E1,1.001127052E1
1.584620214E1,4.906632233E1,1.294517040E1,6.043073654E0
1.586286808E1,4.857549667E1,6.443572044E0,2.755335331E0
1.587953401E1,3.801746368E1,-1.230808139E0,5.548656464E0
1.589619995E1,2.457219505E1,-7.041179657E0,9.172586441E0
1.591286589E1,1.364537048E1,-1.099890804E1,8.954241753E0
1.592953183E1,6.954140663E0,-1.258714485E1,5.583352566E0
1.594619776E1,3.416053534E0,-1.271486092E1,-4.462614357E-1
1.596286370E1,1.677667737E0,-1.190997601E1,-6.108577251E0
1.597952964E1,7.707880139E-1,-1.099472141E1,-9.328120232E0
1.599619558E1,-8.464609832E-2,-1.014317513E1,-1.080987549E1
1.601286151E1,-7.417750359E-1,-9.610772133E0,-1.069113159E1
1.602952745E1,-1.178764224E0,-9.853344917E0,-1.001844978E1
1.604619339E1,-2.580958366E0,-9.306883812E0,-9.433105469E0
1.606285932E1,-3.742972851E0,-8.514859200E0,-8.116753578E0
1.607952526E1,-3.782155275E0,-7.891828060E0,-5.959623814E0
1.609619120E1,-2.708675146E0,-7.556832790E0,-3.477967739E0
1.611285714E1,-9.293124676E-1,-6.845267296E0,-1.367498159E0
1.612952308E1,8.608179688E-1,-5.066203594E0,-1.797308922E0
1.614618901E1,3.188735247E0,-3.231507063E0,-4.511667252E0
1.616285495E1,6.382256031E0,-5.090730190E-1,-3.847060680E0
1.617952089E1,1.309621716E1,3.889533281E0,5.548656464E0
1.619618682E1,3.383600616E1,8.120043755E0,2.718246460E1
1.621285276E1,5.277071381E1,1.052363396E1,3.661527252E1
1.622951870E1,4.691038895E1,1.480230045E1,2.230559349E1
1.624618464E1,3.162354469E1,1.717837334E1,9.323932648E0
1.626285058E1,1.933191299E1,1.665883064E1,5.247459888E0
1.627951651E1,1.102104187E1,1.423340607E1,7.780262947E0
1.629618245E1,3.824927092E0,1.142154026E1,8.853444099E0
1.631284839E1,-1.601396561E0,1.036989498E1,7.631010532E0
1.632951432E1,-3.436990738E0,1.001456070E1,4.807778835E0
1.634618026E1,-3.624827147E0,9.582057953E0,1.911267042E0
1.636284620E1,-3.367897987E0,8.539983749E0,-5.554339290E-1
1.637951214E1,-2.659622431E0,7.526922703E0,-1.445264935E0
1.639617808E1,-1.588535190E0,6.830910206E0,-1.041775107E0
1.641284401E1,6.849455088E-2,5.638387680E0,1.001994461E-1
1.642950995E1,1.371386528E0,4.644169807E0,1.180858016E0
1.644617589E1,1.878066659E0,4.010370731E0,2.145464659E0
1.646284182E1,6.167500615E-1,3.771387577E0,2.431107759E0
1.647950776E1,2.676372051E0,3.231207848E0,4.282853603E0
1.649617370E1,1.081196880E1,3.442972660E0,8.743074417E0
1.651283964E1,2.394437790E1,4.341776848E0,1.394267845E1
1.652950558E1,3.651567078E1,7.375875711E-1,1.433540058E1
1.654617151E1,3.652194977E1,-1.194018483E0,1.239960670E1
1.656283745E1,2.744986343E1,-3.022135019E0,1.151844978E1
1.657950339E1,1.709731674E1,-4.677370071E0,1.192104244E1
1.659616932E1,8.815457344E0,-5.168497086E0,1.172752285E1
1.661283526E1,4.036093712E0,-4.974977493E0,1.057537842E1
1.662950120E1,2.605484724E0,-4.899902344E0,7.763812065E0
1.664616714E1,2.568396091E0,-4.833800793E0,4.120141506E0
1.666283308E1,2.212164640E0,-4.254139423E0,8.419744968E-1
1.667949901E1,1.051645517E0,-3.288635731E0,-1.837388635E0
1.669616495E1,-1.211067319E0,-1.419841170E0,-3.481856108E0
1.671283089E1,-3.661916018E0,6.885347366E-1,-4.681856632E0
1.672949683E1,-5.669195175E0,2.741277456E0,-4.017250061E0
1.674616276E1,-6.434000969E0,3.825525284E0,-1.688435435E0
1.676282870E1,-4.508377075E0,3.669692516E0,3.040978432E0
1.677949464E1,1.438983679E0,2.781357288E0,1.056191921E1
1.679616058E1,8.983553886E0,1.506580949E0,1.983201408E1
1.681282651E1,1.231555939E1,5.518447161E-1,2.676641273E1
1.682949245E1,1.176162052E1,9.613165259E-1,2.498465729E1
1.684615839E1,1.322333622E1,9.726824164E-1,1.878694725E1
1.686282433E1,1.613928986E1,1.054337502E0,1.386162186E1
1.687949026E1,1.795484352E1,1.414457321E0,1.117059326E1
1.689615620E1,1.770389748E1,2.101496458E0,1.022662449E1
1.691282214E1,1.602323723E1,2.832803011E0,1.073270702E1
1.692948808E1,1.671117401E1,1.351944804E0,1.041236782E1
1.694615401E1,1.832393646E1,-1.662413478E0,8.268398285E0
1.696281995E1,1.858266068E1,-4.344468594E0,5.269892693E0
1.697948589E1,1.778136444E1,-6.292824268E0,3.197409153E0
1.699615183E1,1.801017761E1,-7.126124859E0,2.277967215E0
1.701281776E1,1.591915035E1,-6.443273067E0,-4.845465720E-2
1.702948370E1,1.031486034E1,-4.489533424E0,-3.806382656E0
1.704614964E1,5.371886730E0,-2.741576433E0,-7.174579620E0
1.706281558E1,2.725125790E0,-2.038385868E0,-7.696215153E0
1.707948151E1,1.924128532E0,-1.906481385E0,-6.129813194E0
1.709614745E1,1.784148335E0,-1.557727575E0,-4.310071945E0
1.711281339E1,1.440479279E0,-1.173679471E0,-3.880260944E0
1.712947933E1,1.163809061E0,-8.344969153E-1,-4.330410957E0
1.714614526E1,1.816451430E0,-7.666005492E-1,-4.392324924E0
1.716281120E1,2.516052961E0,-3.233301640E-1,-4.194318771E0
1.717947714E1,3.394518137E0,2.700898647E-1,-4.008276939E0
1.719614308E1,6.253043652E0,1.126122117E0,-3.486342669E0
1.721280901E1,1.009741211E1,2.493022203E0,-3.161516905E0
1.722947495E1,1.467877007E1,3.780360699E0,-7.202396393E-1
1.724614089E1,2.061715889E1,4.124329090E0,5.262714386E0
1.726280683E1,2.703381157E1,4.152444363E0,1.246211910E1
1.727947276E1,3.074747276E1,3.829712629E0,1.698395538E1
1.729613870E1,2.893221664E1,3.456133127E0,1.770718575E1
1.731280464E1,2.301416779E1,2.559422970E0,1.464227962E1
1.732947058E1,1.597448444E1,2.087438583E0,9.978967667E0
1.734613651E1,1.057747269E1,2.453241348E0,5.649753571E0
1.736280245E1,7.948657513E0,2.766701221E0,2.694916487E0
1.737946839E1,6.859325409E0,3.181855917E0,1.008873820E0
1.739613433E1,6.644270420E0,3.498306751E0,6.035895348E-1
1.741280026E1,6.212665081E0,3.728914976E0,6.741777658E-1
1.742946620E1,5.612066269E0,3.657429457E0,9.436694384E-1
1.744613214E1,4.916652203E0,3.599403381E0,1.503889084E0
1.746279808E1,4.427918434E0,3.615555048E0,2.020140409E0
1.747946401E1,4.474877357E0,3.503989697E0,2.479562521E0
1.749612995E1,4.721039295E0,3.381357431E0,3.667299747E0
1.751279589E1,4.679164886E0,3.382553816E0,4.748556614E0
1.752946183E1,4.908875465E0,3.454039574E0,5.657529831E0
1.754612776E1,5.304887772E0,3.798905134E0,6.174977779E0
1.756279370E1,5.531308651E0,4.668097973E0,6.175277233E0
1.757945964E1,5.951249123E0,6.489036083E0,7.229315281E0
1.759612558E1,7.390830994E0,7.718049526E0,1.247348499E1
1.761279151E1,1.253898907E1,7.787441254E0,2.142503548E1
1.762945745E1,2.285713959E1,6.029912949E0,2.490090942E1
1.764612339E1,3.058924675E1,4.694119930E0,1.948325920E1
1.766278933E1,3.144468117E1,4.831408024E0,1.053410244E1
1.767945526E1,2.766491890E1,2.974577665E0,4.180560112E0
1.769612120E1,2.108944130E1,-3.125624657E-1,3.750749588E0
1.771278714E1,1.450917912E1,-4.096811295E0,6.808477879E0
1.772945308E1,9.650852203E0,-7.620542049E0,9.307182312E0
1.774611901E1,7.176972389E0,-9.587442398E0,8.336893082E0
1.776278495E1,6.273981094E0,-1.130369377E1,4.963910580E0
1.777945089E1,4.784748077E0,-1.145743275E1,1.960319996E0
1.779611683E1,2.639881611E0,-1.048953629E1,-3.589234129E-2
1.781278276E1,6.508477330E-1,-9.668798447E0,-1.621436477E0
1.782944870E1,-6.352944374E-1,-8.963513374E0,-3.146561861E0
1.784611464E1,-9.038887620E-1,-8.376375198E0,-4.731806755E0
1.786278058E1,-7.247261405E-1,-7.323233604E0,-5.593223095E0
1.787944651E1,-4.444667995E-1,-6.370292187E0,-5.311169147E0
1.789611245E1,-3.577269912E-1,-5.825924873E0,-4.514957428E0
1.791277839E1,-2.850449979E-1,-5.334797859E0,-3.843770504E0
1.792944433E1,2.874378264E-1,-5.232504845E0,-3.153740168E0
1.794611026E1,1.869691849E0,-4.935794830E0,-3.431606770E0
1.796277620E1,4.696512699E0,-4.476672173E0,-4.955535889E0
1.797944214E1,7.886444569E0,-2.643171787E0,-7.174280643E0
1.799610808E1,1.441077423E1,-1.839482337E-1,-6.560521603E0
1.801277401E1,2.520928383E1,2.041376829E0,-2.028814554E0
1.802943995E1,3.522593689E1,5.251946449E0,3.988237143E0
1.804610589E1,3.877389526E1,8.038687706E0,1.028943634E1
1.806277183E1,3.510480118E1,9.341878891E0,1.665583992E1
1.807943776E1,2.672932434E1,1.052752209E1,1.796650887E1
1.809610370E1,1.780828285E1,1.083141041E1,1.299302673E1
1.811276964E1,1.139222908E1,1.105813122E1,6.897311211E0
1.812943558E1,7.794919014E0,1.143081284E1,2.394019127E0
1.814610151E1,6.277869225E0,1.158873940E1,2.682952285E-1
1.816276745E1,5.219045162E0,1.146042442E1,-1.555334777E-1
1.817943339E1,3.483052492E0,1.106261730E1,7.884350419E-1
1.819609933E1,1.735095501E0,1.048385334E1,2.129014015E0
1.821276526E1,1.064207911E0,9.874281883E0,3.254238844E0
1.822943120E1,1.908276081E-1,9.530014038E0,4.247559071E0
1.824609714E1,-1.457827210E0,8.884550095E0,5.051846981E0
1.826276308E1,-2.150250196E0,7.945068359E0,6.411867142E0
1.827942901E1,-9.747761488E-1,7.325925827E0,8.116753578E0
1.829609495E1,1.739282966E0,6.943971157E0,9.267103195E0
1.831276089E1,5.181059361E0,7.859525204E0,9.533005714E0
1.832942683E1,8.224430084E0,1.086999512E1,9.744471550E0
1.834609276E1,1.382004642E1,1.226979637E1,1.387328625E1
1.836275870E1,2.579791832E1,1.027896786E1,2.001147461E1
1.837942464E1,3.586123276E1,7.220641613E0,1.928046799E1
1.839609058E1,3.596561813E1,5.711667538E0,1.044377327E1
1.841275651E1,2.981397247E1,3.495315790E0,2.789732218E0
1.842942245E1,2.116690826E1,4.591228366E-1,7.683951855E-1
1.844608839E1,1.351795197E1,-2.424826622E0,3.552444220E0
1.846275433E1,8.368897438E0,-4.795216560E0,7.058826923E0
1.847942026E1,6.017649651E0,-6.768397808E0,7.837690353E0
1.849608620E1,5.346463203E0,-8.032406807E0,5.585745335E0
1.851275214E1,4.800301552E0,-8.804988861E0,1.910668850E0
1.852941808E1,3.884448528E0,-9.275477409E0,-1.211067319E0
1.854608401E1,2.717050076E0,-9.411869049E0,-3.224328518E0
1.856274995E1,1.855035782E0,-9.378668785E0,-4.281058788E0
1.857941589E1,9.966106415E-1,-9.276674271E0,-5.076971531E0
1.859608183E1,-1.076770201E-2,-8.922237396E0,-6.151049614E0
1.861274776E1,-1.032503009E0,-8.193024635E0,-6.877570629E0
1.862941370E1,-2.015953064E0,-7.585845947E0,-7.286444187E0
1.864607964E1,-2.353939295E0,-7.424928665E0,-6.747460842E0
1.866274558E1,-1.999203324E0,-7.667799950E0,-5.258227825E0
1.867941151E1,-8.662018180E-1,-7.996813297E0,-4.551447868E0
1.869607745E1,1.813161373E0,-8.682656288E0,-5.568397522E0
1.871274339E1,7.012465954E0,-7.819744587E0,-5.566901684E0
1.872940933E1,1.559731483E1,-4.407878399E0,-1.788335800E0
1.874607526E1,3.101008415E1,-5.294119939E-2,4.880760193E0
1.876274120E1,4.886024094E1,4.838885784E0,1.077248764E1
1.877940714E1,5.385974503E1,8.829216003E0,1.394267845E1
1.879607308E1,4.187439728E1,1.003041363E1,1.744068527E1
1.881273901E1,2.446990204E1,1.017966557E1,1.667259026E1
1.882940495E1,1.247498131E1,9.739386559E0,1.177747345E1
1.884607089E1,7.004390240E0,9.399605751E0,6.265905380E0
1.886273683E1,5.000999451E0,9.479764938E0,2.629712105E0
1.887940276E1,3.453740358E0,9.867103577E0,6.741777658E-1
1.889606870E1,1.754238129E0,9.939785004E0,2.742772996E-1
1.891273464E1,-2.045863420E-1,1.011476040E1,9.738788009E-1
1.892940058E1,-6.008976102E-1,1.019850922E1,3.036192894E0
1.894606651E1,1.597807288E0,1.023470020E1,5.522933960E0
1.896273245E1,2.452044964E0,1.095553875E1,6.960721016E0
1.897939839E1,9.406784177E-1,1.132104206E1,7.066005230E0
1.899606433E1,-5.937191248E-1,1.059571743E1,7.637291908E0
1.901273026E1,-8.222336769E-1,9.362815857E0,8.920742035E0
1.902939620E1,7.477570772E-1,7.759325504E0,9.730711937E0
1.904606214E1,3.096013308E0,7.343572617E0,9.784850121E0
1.906272808E1,5.324927807E0,8.916254997E0,9.753444672E0
1.907939401E1,9.425926208E0,1.153011513E1,1.111914730E1
1.909605995E1,1.891107559E1,1.133061314E1,1.404826164E1
1.911272589E1,3.160140991E1,9.916455269E0,1.657926941E1
1.912939183E1,3.987369919E1,7.896913052E0,1.332742405E1
1.914605776E1,3.883909988E1,4.830211639E0,8.871688843E0
1.916272370E1,3.070918655E1,7.390831113E-1,7.982755661E0
1.917938964E1,2.054028893E1,-3.315854073E0,8.527720451E0
1.919605558E1,1.221805191E1,-6.152545452E0,9.303593636E0
1.921272151E1,7.638488293E0,-8.353643417E0,9.107083321E0
1.922938745E1,5.691029549E0,-9.726225853E0,6.689733982E0
1.924605339E1,4.522135735E0,-1.025952625E1,2.940479994E0
1.926271933E1,3.675674677E0,-1.019372368E1,-3.750749528E-1
1.927938526E1,3.422633648E0,-9.920044899E0,-3.163909674E0
1.929605120E1,2.959323406E0,-9.399007797E0,-4.885246754E0
1.931271714E1,1.808973908E0,-8.095217705E0,-5.506184101E0
1.932938308E1,4.716851711E-1,-6.937690258E0,-5.893522263E0
1.934604901E1,-8.470591903E-1,-6.056233883E0,-6.344868183E0
1.936271495E1,-3.172882795E0,-4.982754230E0,-7.481160164E0
1.937938089E1,-6.046064377E0,-3.505784273E0,-9.195916176E0
1.939604683E1,-5.360520840E0,-2.922832966E0,-9.363713264E0
1.941271276E1,-9.966106415E-1,-3.859024763E0,-9.407979965E0
1.942937870E1,3.459423304E0,-3.157628536E0,-9.213264465E0
1.944604464E1,9.297910690E0,2.727219582E0,-5.334797859E0
1.946271058E1,2.792723083E1,7.679165840E0,5.776573181E0
1.947937651E1,5.112624359E1,1.030259705E1,1.965225220E1
1.949604245E1,5.041767120E1,1.333191013E1,2.009821510E1
1.951270839E1,3.176860809E1,1.350419331E1,1.493569946E1
1.952937433E1,1.472602844E1,1.164138126E1,8.910572052E0
1.954604026E1,5.465506077E0,1.016142082E1,6.003890991E0
1.956270620E1,1.490130305E0,8.789734840E0,3.925126553E0
1.957937214E1,-9.750752151E-2,7.923832417E0,3.272484064E0
1.959603808E1,-1.073480010E0,7.043572426E0,2.702394009E0
1.961270401E1,-2.049452543E0,5.872884274E0,2.474776745E0
1.962936995E1,-2.294716835E0,4.740181446E0,2.327319145E0
1.964603589E1,-1.331007630E-1,3.937389612E0,3.040679455E0
1.966270183E1,1.197906852E0,4.610371113E0,4.499104977E0
1.967936776E1,7.776673418E-3,6.131010056E0,4.821537495E0
1.969603370E1,-1.556231976E0,7.306483746E0,4.558925152E0
1.971269964E1,-2.266003132E0,7.727620602E0,5.220839977E0
1.972936558E1,-3.098705292E0,7.611568928E0,5.900700569E0
1.974603151E1,-4.127619267E0,6.723532677E0,6.637091637E0
1.976269745E1,-3.825525284E0,5.769992828E0,7.062715054E0
1.977936339E1,-2.450250387E0,5.566303730E0,5.952744484E0
1.979602933E1,-2.456830740E0,8.261817932E0,3.992125511E0
1.981269526E1,-2.388635159E0,1.353410435E1,5.273182869E0
1.982936120E1,4.974678040E0,1.680718613E1,1.255573845E1
1.984602714E1,2.299622154E1,1.706591034E1,2.428415871E1
1.986269308E1,4.307858276E1,1.567209148E1,3.155774117E1
1.987935901E1,5.009224701E1,1.393250942E1,2.333720016E1
1.989602495E1,4.032085800E1,1.064865875E1,1.316770267E1
1.991269089E1,2.519163704E1,5.499304771E0,6.774380207E0
1.992935683E1,1.310907841E1,1.024726272E0,5.112564564E0
1.994602276E1,6.399903297E0,-2.380559444E0,6.208178520E0
1.996268870E1,3.439682484E0,-4.744668007E0,6.894619465E0
1.997935464E1,2.849851847E0,-6.514160633E0,5.628218174E0
1.999602058E1,3.353540897E0,-7.555636406E0,3.015554667E0
2.001268651E1,4.049253941E0,-7.928617954E0,5.778666735E-1
2.002935245E1,4.492225647E0,-7.896613598E0,-1.339980721E0
2.004601839E1,4.466801643E0,-7.762914658E0,-3.392723322E0
2.006268433E1,3.544069529E0,-7.173084259E0,-5.420042515E0
2.007935026E1,1.953440547E0,-6.244369984E0,-6.935596466E0
2.009601620E1,5.264209956E-2,-5.109573841E0,-7.573283672E0
2.011268214E1,-9.263214469E-1,-4.622035980E0,-7.500900745E0
2.012934808E1,-1.049551845E0,-4.618745804E0,-6.078367710E0
2.014601401E1,-6.933203340E-1,-5.026422977E0,-5.440082073E0
2.016267995E1,2.494517565E-1,-5.609075546E0,-6.162714481E0
2.017934589E1,1.680957973E-1,-5.120939732E0,-8.797212601E0
2.019601183E1,-8.557332158E-1,-2.365903407E-1,-1.099681473E1
2.021267776E1,5.401198864E0,6.163611889E0,-3.420539856E0
2.022934370E1,2.975983429E1,7.599006653E0,1.608934021E1
2.024600964E1,5.478487015E1,1.001336479E1,3.574727631E1
2.026267558E1,4.874957275E1,1.605494308E1,2.631955338E1
2.027934151E1,3.055993462E1,1.735304832E1,1.409851074E1
2.029600745E1,1.614377594E1,1.522762394E1,5.964409351E0
2.031267339E1,7.141977310E0,1.261585808E1,2.934497833E0
2.032933933E1,2.120938063E0,9.999007225E0,2.635095835E0
2.034600526E1,-7.028916478E-2,7.719544888E0,3.463012457E0
2.036267120E1,-1.005284667E0,6.020341873E0,3.909274101E0
2.037933714E1,-1.889731646E0,4.755435944E0,3.549453259E0
2.039600308E1,-2.835494757E0,4.114159584E0,2.926122904E0
2.041266901E1,-3.503690481E0,3.888635874E0,2.349751949E0
2.042933495E1,-3.630211115E0,3.728017569E0,1.918445587E0
2.044600089E1,-3.310171127E0,3.692125320E0,2.102393866E0
2.046266683E1,-2.971586704E0,4.264608383E0,2.762214661E0
2.047933276E1,-2.233700037E0,4.714159489E0,3.573680639E0
2.049599870E1,-6.439684033E-1,4.824528694E0,4.991128922E0
2.051266464E1,4.588237405E-1,5.319842815E0,6.937690258E0
2.052933058E1,9.637092948E-1,4.816751957E0,8.909974098E0
2.054599651E1,1.448554993E0,4.024129391E0,1.022961617E1
2.056266245E1,5.566303730E-1,4.818546772E0,1.073270702E1
2.057932839E1,-1.479063511E0,7.374380112E0,9.837192535E0
2.059599433E1,-3.259921789E0,1.145982552E1,8.942875862E0
2.061266026E1,1.152443171E0,1.299571896E1,1.250638676E1
2.062932620E1,9.721140862E0,1.146879864E1,1.897299004E1
2.064599214E1,1.566909981E1,9.227023125E0,2.456082916E1
2.066265808E1,1.888684845E1,4.438984871E0,2.523650169E1
2.067932401E1,1.805025673E1,2.395215511E0,2.293191528E1
2.069598995E1,1.395434380E1,2.420041084E0,1.875703812E1
2.071265589E1,9.599106789E0,1.511665702E0,1.523091412E1
2.072932182E1,5.923731327E0,3.167499006E-1,1.273011589E1
2.074598776E1,3.357429266E0,-8.476574421E-1,1.129143143E1
2.076265370E1,2.072483540E0,-2.222034931E0,1.025384331E1
2.077931964E1,2.546561480E0,-2.499004126E0,8.698807716E0
2.079598558E1,4.271487713E0,-2.764308453E0,5.236093998E0
2.081265151E1,5.420939922E0,-2.346760750E0,1.957328916E0
2.082931745E1,5.273481846E0,-1.410568953E0,1.001994461E-1
2.084598339E1,5.569892883E0,-4.103690982E-1,-1.132104158E0
2.086264932E1,4.383950233E0,2.207378894E-1,-1.551446438E0
2.087931526E1,4.474877357E0,6.424728632E-1,-1.084546804E0
2.089598120E1,5.068596363E0,1.021735311E0,-5.063810945E-1
2.091264714E1,5.528616905E0,1.799701691E0,-6.987041831E-1
2.092931308E1,5.615057468E0,2.494517565E0,-9.161519408E-1
2.094597901E1,4.961218834E0,3.450151205E0,-1.239781260E0
2.096264495E1,2.725723982E0,5.345565796E0,-1.013360381E0
2.097931089E1,2.476571500E-1,7.580461979E0,1.458425403E0
2.099597682E1,-1.258026481E0,9.025427818E0,5.041677475E0
2.101264276E1,-6.071787328E-2,8.187341690E0,8.059924126E0
2.102930870E1,2.758924484E0,4.957330227E0,1.056431198E1
2.104597464E1,4.204189301E0,1.619342685E0,1.462343693E1
2.106264058E1,3.369692564E0,-6.281159353E-3,1.867777443E1
2.107930651E1,2.494816780E0,-8.321040869E-1,1.756122398E1
2.109597245E1,2.027917206E-1,1.783849239E0,1.461027622E1
2.111263839E1,-1.438684613E-1,4.146163464E0,1.128096199E1
2.112930432E1,1.542174220E0,4.855336189E0,9.227621078E0
2.114597026E1,3.199502945E0,5.065306664E0,9.358927727E0
2.116263620E1,3.162713289E0,5.272285461E0,1.073809052E1
2.117930214E1,2.865405083E0,4.291527271E0,1.176042461E1
2.119596808E1,2.734098911E0,3.060121059E0,1.270469189E1
2.121263401E1,2.714956284E0,2.583650351E0,1.245135212E1
2.122929995E1,2.682653189E0,2.142772675E0,1.128485107E1
2.124596589E1,2.137388945E0,2.466102839E0,9.683454514E0
2.126263182E1,1.479661703E0,2.784647465E0,8.034500122E0
2.127929776E1,8.784649968E-1,2.935395241E0,6.999604225E0
2.129596370E1,2.386840582E-1,3.090928555E0,6.552744865E0
2.131262964E1,-1.567298770E-1,3.304488182E0,6.385247231E0
2.132929558E1,-1.187438220E-1,3.436093330E0,6.429514408E0
2.134596151E1,2.033899166E-2,3.667598963E0,6.569793701E0
2.136262745E1,4.731806815E-1,3.662813187E0,6.904489517E0
2.137929339E1,1.082154036E0,3.390629768E0,7.759923935E0
2.139595932E1,1.473978758E0,3.070888758E0,9.008378983E0
2.141262526E1,1.410868049E0,2.932404041E0,9.712766647E0
2.142929120E1,1.120140076E0,3.003291607E0,9.898509026E0
2.144595714E1,1.167099237E0,2.585444927E0,1.062054348E1
2.146262308E1,1.646261930E0,2.640180588E0,1.125583744E1
2.147928901E1,2.545963287E0,2.418545485E0,1.154716396E1
2.149595495E1,3.059223652E0,2.514856577E0,1.179362488E1
2.151262089E1,2.752344131E0,2.680260420E0,1.136680508E1
2.152928682E1,1.413859129E0,3.104089260E0,1.101177025E1
2.154595276E1,2.775674164E-1,2.676970243E0,1.104915810E1
2.156261870E1,5.503492057E-2,1.778764486E0,1.157737350E1
2.157928464E1,4.046861231E-1,7.836494446E-1,1.218903828E1
2.159595058E1,8.464609981E-1,2.090728730E-1,1.242652607E1
2.161261651E1,1.236790180E0,8.045866340E-2,1.203021526E1
2.162928245E1,1.430907965E0,2.129612118E-1,1.126122189E1
2.164594839E1,1.218245864E0,4.713860750E-1,1.002921677E1
2.166261432E1,1.065703392E0,7.941179872E-1,8.835497856E0
2.167928026E1,1.127019525E0,1.184447169E0,8.030611992E0
2.169594620E1,1.063011408E0,1.578664780E0,7.848458290E0
2.171261214E1,7.570292354E-1,1.781157374E0,7.921738625E0
2.172927808E1,3.439682424E-1,2.081456661E0,8.248059273E0
2.174594401E1,-1.064806059E-1,2.253440619E0,8.911469460E0
2.176260995E1,-2.653042078E-1,2.171486616E0,9.619445801E0
2.177927589E1,-7.298108935E-2,2.194517374E0,9.955338478E0
2.179594182E1,2.994019389E-1,2.362613201E0,9.914062500E0
2.181260776E1,8.548358679E-1,1.907079697E0,1.032443142E1
2.182927370E1,1.363609791E0,1.226022482E0,1.094955635E1
2.184593964E1,1.695015788E0,8.635098934E-1,1.132193947E1
2.186260558E1,1.680060625E0,9.110672474E-1,1.097677517E1
2.187927151E1,1.304686546E0,1.158724308E0,1.008993530E1
2.189593745E1,6.164509058E-1,1.477568030E0,8.960822105E0
2.191260339E1,2.691925466E-1,1.728814363E0,7.933403492E0
2.192926932E1,2.901297510E-1,1.972583175E0,7.364510059E0
2.194593526E1,4.600201547E-1,2.024028778E0,7.547560692E0
2.196260120E1,7.968099117E-1,2.135893345E0,7.939684868E0
2.197926714E1,1.118345499E0,2.378166676E0,8.270791054E0
2.199593308E1,8.781659007E-1,2.376072884E0,9.213862419E0
2.201259901E1,9.616156220E-1,2.097309113E0,9.944869995E0
2.202926495E1,1.467099428E0,1.840977907E0,1.033819008E1
2.204593089E1,1.759921074E0,1.603191137E0,1.042582703E1
2.206259682E1,1.420738459E0,1.651047587E0,1.049701405E1
