"Time (s)","Gyroscope x (rad/s)","Gyroscope y (rad/s)","Gyroscope z (rad/s)"
5.244870000E-2,-3.061959706E-2,1.514181048E-1,-1.165988147E-1
6.911463800E-2,2.153298259E-2,2.599229515E-1,-3.129154742E-1
8.578057500E-2,-7.964149863E-2,8.788817376E-2,-2.507599890E-1
1.024465130E-1,-1.669951528E-1,-2.574795187E-1,-9.880737960E-2
1.191124500E-1,-1.303432733E-1,-4.752528071E-1,-3.588830587E-3
1.357783880E-1,-9.262236953E-2,-4.208094776E-1,8.399390616E-3
1.524443250E-1,-5.222893879E-2,-1.638644785E-1,-1.939495653E-2
1.691102630E-1,5.459604040E-2,7.108938694E-2,-6.123919412E-2
1.857762000E-1,5.131264031E-2,1.186604798E-1,-3.978256881E-2
2.024421380E-1,-8.170315996E-3,-7.292198390E-2,3.023780696E-2
2.191080750E-1,9.697478265E-3,-2.851974964E-1,4.917461425E-2
2.357740130E-1,5.933023989E-2,-3.124573231E-1,-1.985310577E-3
2.524399500E-1,5.513054505E-2,-1.995237023E-1,-4.413498193E-2
2.691058880E-1,-1.908952487E-3,-8.529199660E-2,-3.924806044E-2
2.857718250E-1,-7.506000996E-2,-5.734493211E-2,-4.123337101E-3
3.024377630E-1,-1.065195426E-1,-4.619665071E-2,-7.559451740E-3
3.191037000E-1,-8.231402934E-2,-4.352411721E-3,-2.443459071E-2
3.357696380E-1,-4.512763396E-2,4.352411628E-2,-2.924515121E-2
3.524355750E-1,1.458439697E-2,2.176205814E-2,-3.344484791E-2
3.691015130E-1,7.032580674E-2,-6.192641705E-2,-1.130099874E-2
3.857674500E-1,1.036942974E-1,-1.353829056E-1,3.268126398E-2
4.024333880E-1,2.832885459E-2,-1.898262352E-1,3.459021822E-2
4.190993250E-1,-1.033888608E-1,-2.713766694E-1,4.276053514E-3
4.357652630E-1,-2.325104028E-1,-3.833940029E-1,1.985310577E-3
4.524312000E-1,-3.647626340E-1,-4.722748399E-1,2.542724647E-2
4.690971380E-1,-5.054906011E-1,-5.945241451E-1,2.611446939E-2
4.857630750E-1,-6.222421527E-1,-7.325032353E-1,1.725693047E-2
5.024290130E-1,-6.756927967E-1,-8.819360137E-1,2.038761228E-2
5.190949500E-1,-7.024181485E-1,-1.042135358E0,1.088866442E-1
5.357608880E-1,-7.515927553E-1,-1.268995166E0,2.908479869E-1
5.524268250E-1,-8.951459527E-1,-1.770897031E0,4.900662601E-1
5.690927630E-1,-1.288390160E0,-1.925903916E0,4.910589159E-1
5.857587000E-1,-2.045099020E0,-1.806174397E0,2.875646055E-1
6.024246380E-1,-2.700862169E0,-2.006996155E0,1.283579618E-1
6.190905750E-1,-2.913825035E0,-2.325485945E0,3.878991306E-2
6.357565130E-1,-2.676962137E0,-2.671540737E0,-4.703658819E-2
6.524224500E-1,-2.441168308E0,-3.185889006E0,-1.856265366E-1
6.690883880E-1,-2.351752996E0,-3.171380758E0,-4.873173833E-1
6.857543250E-1,-2.007148981E0,-3.103880405E0,-9.125556350E-1
7.024202630E-1,-1.483408809E0,-3.246517181E0,-1.355661631E0
7.190862000E-1,-8.962913752E-1,-2.802265882E0,-1.557857871E0
7.357521380E-1,-3.374264240E-1,-1.911625028E0,-1.166599035E0
7.524180750E-1,5.765036494E-2,-1.300989270E0,-2.903134823E-1
7.690840130E-1,4.041634202E-1,-3.523926139E-1,3.348302543E-1
7.857499500E-1,5.915461779E-1,1.065729976E0,4.243219495E-1
8.024158880E-1,4.929678738E-1,2.029827356E0,2.902371287E-1
8.190818250E-1,3.270417452E-1,2.046167850E0,5.445095897E-1
8.357477630E-1,3.313177824E-1,1.121318698E0,1.213864684E0
8.524137000E-1,7.564796805E-1,-1.769980639E-1,1.822744131E0
8.690796380E-1,1.479667187E0,-6.454550028E-1,1.862144947E0
8.857455750E-1,1.796400547E0,-2.578612864E-1,1.037859201E0
9.024115130E-1,1.388877392E0,1.261435747E-1,1.237001177E-2
9.190774500E-1,8.530726433E-1,2.454149276E-1,-3.016908467E-1
9.357433880E-1,4.779253304E-1,2.008218020E-1,-2.023489624E-1
9.524093250E-1,3.575085998E-1,1.865428388E-1,-1.687514037E-2
9.690752630E-1,4.457785785E-1,1.535561383E-1,2.651153207E-1
9.857412000E-1,6.707295179E-1,-1.647807807E-1,2.936732471E-1
1.002407138E0,9.123265743E-1,-5.972730517E-1,-3.207040019E-3
1.019073075E0,9.081268311E-1,-8.920152783E-1,-3.546070158E-1
1.035739013E0,6.575195789E-1,-9.478330612E-1,-5.295433998E-1
1.052404950E0,3.532325625E-1,-6.567559838E-1,-4.964803457E-1
1.069070888E0,1.230128929E-1,-1.618028134E-1,-5.374082923E-1
1.085736825E0,9.575305134E-2,3.669006526E-1,-5.164861679E-1
1.102402763E0,2.555705607E-1,4.250855148E-1,-2.412915826E-1
1.119068700E0,2.485456020E-1,4.054614902E-2,8.689551800E-2
1.135734638E0,2.286161482E-1,-6.640099883E-1,2.136499584E-1
1.152400575E0,6.519454122E-1,-1.438052058E0,1.310304999E-1
1.169066513E0,1.006705165E0,-1.929721832E0,-1.860846877E-1
1.185732450E0,1.025107503E0,-1.534492373E0,-5.167915821E-1
1.202398388E0,9.538653493E-1,-1.026252866E0,-4.042397738E-1
1.219064325E0,7.852666974E-1,-8.190169334E-1,3.672824427E-2
1.235730263E0,5.128209591E-1,-2.818377316E-1,1.105665267E-1
1.252396200E0,4.099666178E-1,-8.399390429E-2,1.394298822E-1
1.269062138E0,4.563159943E-1,-2.071595192E-1,1.969275326E-1
1.285728075E0,5.259546041E-1,-2.104429156E-1,2.632827163E-1
1.302394013E0,3.974438906E-1,1.027016416E-1,5.061778426E-1
1.319059950E0,2.901607752E-2,9.478330612E-1,1.022205830E0
1.335725888E0,-2.103665620E-1,1.847102404E0,1.617493629E0
1.352391825E0,3.397935256E-2,1.267468095E0,1.936212301E0
1.369057763E0,5.073995590E-1,4.873173833E-1,1.827936530E0
1.385723700E0,5.518399477E-1,1.257617921E-1,1.302669168E0
1.402389638E0,6.522508860E-1,-5.949059129E-1,9.622647166E-1
1.419055575E0,8.423825502E-1,-1.266093612E0,8.005383015E-1
1.435721513E0,1.150945544E0,-1.444007993E0,7.614429593E-1
1.452387450E0,1.522733212E0,-1.290910006E0,7.480802536E-1
1.469053388E0,1.780059934E0,-7.147117853E-1,8.447496295E-1
1.485719325E0,1.864282966E0,1.908952370E-2,8.920152783E-1
1.502385263E0,1.866726398E0,8.191696405E-1,9.513455629E-1
1.519051200E0,1.682245255E0,1.732183456E0,1.254029036E0
1.535717138E0,1.399185777E0,2.148869514E0,1.457599759E0
1.552383075E0,8.332195878E-1,1.985921383E0,1.106352448E0
1.569049013E0,8.200860023E-2,1.268002510E0,1.740200967E-1
1.585714950E0,-2.368628234E-1,5.737547278E-1,-3.773617148E-1
1.602380888E0,9.361502528E-2,-3.932442144E-2,-5.564214587E-1
1.619046825E0,5.093085170E-1,-3.683514595E-1,-5.890263915E-1
1.635712763E0,3.539961278E-1,-3.927097023E-1,-4.632645845E-1
1.652378700E0,1.895971596E-1,-2.660316229E-1,-2.990183234E-1
1.669044638E0,2.493091822E-1,-1.808923334E-1,-1.248454899E-1
1.685710575E0,3.316232264E-1,-2.183841541E-2,-3.352120519E-2
1.702376513E0,2.557232678E-1,1.745546162E-1,8.582650125E-2
1.719042450E0,1.314122826E-1,3.295615613E-1,2.276234925E-1
1.735708388E0,-1.557705179E-2,3.740019500E-1,1.850920320E-1
1.752374325E0,-2.947422490E-2,2.146426141E-1,4.703658819E-2
1.769040263E0,7.475458086E-2,4.398226365E-2,-2.809977904E-2
1.785706200E0,1.750127524E-1,-1.199585721E-1,-2.153298259E-2
1.802372138E0,2.478583902E-1,-2.575558722E-1,1.181259751E-1
1.819038075E0,1.098793000E-1,1.542433500E-1,8.009964228E-2
1.835704013E0,-3.255145550E-1,1.076267362E0,5.413788930E-2
1.852369950E0,-9.799798131E-1,2.216599226E0,1.007163301E-1
1.869035888E0,-1.625663877E0,2.896797180E0,2.397644334E-2
1.885701825E0,-1.906050801E0,2.366719246E0,-1.518762559E-1
1.902367763E0,-1.419344306E0,1.630703568E0,-2.822958827E-1
1.919033700E0,-8.810197115E-1,8.973603845E-1,-2.597702444E-1
1.935699638E0,-6.491202116E-1,3.851502538E-1,-1.559232324E-1
1.952365575E0,-5.696313977E-1,-5.726857111E-3,4.864010960E-2
1.969031513E0,-4.176788032E-1,-3.237583339E-1,1.617264450E-1
1.985697450E0,-2.527453005E-1,-5.827649832E-1,1.141553521E-1
2.002363388E0,-1.566868126E-1,-5.732966065E-1,-5.688678101E-2
2.019029325E0,-2.891681194E-1,-3.707949221E-1,-2.887099683E-1
2.035695263E0,-5.247328281E-1,-2.676351368E-1,-4.514290690E-1
2.052361200E0,-7.390699983E-1,-2.128863782E-1,-5.899426341E-1
2.069027138E0,-7.425825000E-1,-3.733147383E-1,-5.412262082E-1
2.085693075E0,-5.701659322E-1,-4.663189054E-1,-3.700313270E-1
2.102359013E0,-3.755291104E-1,-5.691732764E-1,-1.401171088E-1
2.119024950E0,-1.401171088E-1,-8.533017635E-1,-2.176205814E-2
2.135690888E0,4.810560122E-2,-1.003039956E0,-8.689551800E-2
2.152356825E0,4.123337101E-3,-9.058361053E-1,-1.960112303E-1
2.169022763E0,-1.566868126E-1,-5.975021124E-1,-2.642753720E-1
2.185688700E0,-2.813795805E-1,-2.302960157E-1,-2.617555559E-1
2.202354638E0,-3.217730224E-1,1.962403022E-2,-2.113592178E-1
2.219020575E0,-2.241110206E-1,8.804088831E-2,-1.727220118E-1
2.235686513E0,-8.445205539E-2,6.711876392E-2,-1.579085439E-1
2.252352450E0,8.231402934E-2,-3.367391974E-2,-1.078939885E-1
2.269018388E0,2.393062711E-1,-1.800523996E-1,-2.733619884E-2
2.285684325E0,3.152825832E-1,-2.016617358E-1,4.008800164E-2
2.302350263E0,3.181078434E-1,-1.534797717E-2,7.154753804E-2
2.319016200E0,2.970330119E-1,1.328630894E-1,8.155044913E-2
2.335682138E0,2.773326039E-1,9.995274991E-2,1.108719558E-1
2.352348075E0,2.877936661E-1,-1.049923822E-1,1.178205460E-1
2.369014013E0,2.837466896E-1,-3.188714087E-1,8.277218044E-2
2.385679950E0,3.344484568E-1,-5.216021538E-1,6.284271181E-2
2.402345888E0,3.372737169E-1,-4.455494881E-1,-1.290451828E-2
2.419011825E0,2.587012351E-1,-2.053269297E-1,-3.894263133E-2
2.435677763E0,1.052214578E-1,1.663079411E-1,-3.130681813E-2
2.452343700E0,-9.010255337E-3,3.639226854E-1,-4.581485991E-4
2.469009638E0,4.734201822E-3,2.606101930E-1,3.008509055E-2
2.485675575E0,4.031707719E-2,1.511890348E-2,4.375318810E-2
2.502341513E0,6.803506613E-2,-1.832594275E-1,4.550942779E-2
2.519007450E0,7.536543906E-2,-2.625955045E-1,-7.101302966E-3
2.535673388E0,4.459312931E-2,-1.657734364E-1,-7.941242307E-2
2.552339325E0,-2.985601686E-2,-1.137735695E-2,-8.872810751E-2
2.569005263E0,-8.735366166E-2,1.065959036E-1,-8.445205539E-2
2.585671200E0,-1.119409725E-1,2.410625070E-1,-8.254310489E-2
2.602337138E0,-9.453132749E-2,2.663370371E-1,-7.872519642E-2
2.619003075E0,-5.780307949E-2,1.182786897E-1,-6.597339362E-2
2.635669013E0,-4.398226365E-2,-1.258381456E-1,-5.726857483E-2
2.652334950E0,-3.275762498E-2,-3.672824502E-1,-6.123919412E-2
2.669000888E0,-1.679878123E-2,-4.350120723E-1,-1.136972085E-1
2.685666825E0,-3.543015569E-2,-1.479819864E-1,-1.654679924E-1
2.702332763E0,-1.034652218E-1,8.506292105E-2,-1.667660922E-1
2.718998700E0,-1.007163301E-1,1.538615674E-1,-1.340084672E-1
2.735664638E0,-1.160643063E-2,6.490438432E-2,-9.124792367E-2
2.752330575E0,4.046979174E-2,-9.582941234E-2,-4.260781780E-2
2.768996513E0,5.383246019E-2,-2.338848561E-1,-7.559451740E-3
2.785662450E0,3.176496923E-2,-2.612974048E-1,1.122464053E-2
2.802328388E0,-1.824958436E-2,-1.721875072E-1,-1.893680729E-2
2.818994325E0,-1.143080741E-1,4.612028971E-2,-4.856374860E-2
2.835660263E0,-1.972329617E-1,1.442404389E-1,-4.604393244E-2
2.852326200E0,-1.950949430E-1,1.249218509E-1,-2.848157100E-2
2.868992138E0,-1.186604798E-1,2.680169232E-2,-1.580612548E-2
2.885658075E0,-3.726275265E-2,-1.398116797E-1,-5.574141163E-3
2.902324013E0,-1.175914705E-2,-2.180023640E-1,-9.315688163E-3
2.918989950E0,-3.520108387E-2,-1.879936308E-1,3.512472380E-3
2.935655888E0,-8.521563560E-2,-1.494327933E-1,2.099847607E-2
2.952321825E0,-1.327103674E-1,-9.285144508E-2,6.337722298E-3
2.968987763E0,-1.863901168E-1,-2.718348242E-2,-3.321577236E-2
2.985653700E0,-2.401462197E-1,9.162971750E-3,-7.826705277E-2
3.002319638E0,-2.619082630E-1,-5.345067009E-3,-1.001818255E-1
3.018985575E0,-2.215912044E-1,-6.627883017E-2,-9.063705802E-2
3.035651513E0,-1.320231557E-1,-1.192713454E-1,-8.200860023E-2
3.052317450E0,-4.360047355E-2,-1.622609496E-1,-8.582650125E-2
3.068983388E0,1.267544460E-2,-1.661552191E-1,-9.056070447E-2
3.085649325E0,4.657844082E-3,-1.275180280E-1,-8.155044913E-2
3.102315263E0,-4.604393244E-2,-4.566214234E-2,-7.192932814E-2
3.118981200E0,-1.043815166E-1,4.016435891E-2,-7.032580674E-2
3.135647138E0,-1.277471036E-1,7.567087561E-2,-5.558869615E-2
3.152313075E0,-1.065959036E-1,3.642281145E-2,-2.649625950E-2
3.168979013E0,-6.017018110E-2,-4.528035223E-2,-7.635809947E-3
3.185644950E0,-1.908952370E-2,-1.028543562E-1,-2.634354308E-2
3.202310888E0,-1.191186346E-2,-1.093447953E-1,-4.214967042E-2
3.218976825E0,-3.955349326E-2,-1.075885594E-1,-1.908952370E-2
3.235642763E0,-6.039925665E-2,-3.642281145E-2,-1.565340906E-2
3.252308700E0,-4.138609022E-2,5.665770918E-2,-6.009382382E-2
3.268974638E0,1.656970754E-2,4.123337101E-3,-8.796452731E-2
3.285640575E0,6.994401664E-2,-1.318704337E-1,-6.559160352E-2
3.302306513E0,8.994983882E-2,-2.531270981E-1,-4.795288667E-2
3.318972450E0,9.865466505E-2,-2.497673333E-1,-7.506000996E-2
3.335638388E0,4.734202102E-2,-9.285144508E-2,-8.498656005E-2
3.352304325E0,-3.749182448E-2,6.414080039E-3,-5.444332212E-2
3.368970263E0,-9.888373315E-2,4.879282415E-2,-3.535379842E-2
3.385636200E0,-8.895718306E-2,4.573849961E-2,-6.681333482E-2
3.402302138E0,-4.726566374E-2,-7.635809743E-5,-9.720385820E-2
3.418968075E0,1.908952487E-3,-6.429351866E-2,-9.865466505E-2
3.435634013E0,5.879573524E-2,-1.198058575E-1,-9.124792367E-2
3.452299950E0,1.114828214E-1,-1.480583549E-1,-7.857248187E-2
3.468965888E0,1.167515293E-1,-1.269835234E-1,-7.177661359E-2
3.485631825E0,4.505127668E-2,-5.948295817E-2,-6.223184988E-2
3.502297763E0,-4.214967042E-2,-3.955349326E-2,-7.444914430E-2
3.518963700E0,-6.490438432E-2,-4.505127668E-2,-1.001054645E-1
3.535629638E0,-5.261072889E-2,-9.239330143E-2,-1.111773923E-1
3.552295575E0,-2.229656465E-2,-1.321758628E-1,-1.001818255E-1
3.568961513E0,1.527161920E-3,-1.474474818E-1,-8.185587823E-2
3.585627450E0,2.367100911E-3,-1.225547493E-1,-6.414080411E-2
3.602293388E0,-2.206749097E-2,-1.272889525E-1,-4.963276163E-2
3.618959325E0,-4.459312931E-2,-1.366046369E-1,-6.643154472E-2
3.635625263E0,-6.918043643E-2,-9.781472385E-2,-9.140064567E-2
3.652291200E0,-1.135444939E-1,-6.055197120E-2,-8.796452731E-2
3.668957138E0,-1.366809905E-1,-4.718930274E-2,-6.696604937E-2
3.685623075E0,-1.266780794E-1,-7.147117704E-2,-3.237583488E-2
3.702289013E0,-1.023198515E-1,-8.063415438E-2,-2.046396956E-2
3.718954950E0,-8.903354406E-2,-2.321286127E-2,-1.977674663E-2
3.735620888E0,-9.155336022E-2,1.572976820E-2,-1.069013379E-3
3.752286825E0,-8.758273721E-2,-3.283398226E-3,2.351829410E-2
3.768952763E0,-7.887791097E-2,-7.819069177E-2,3.420842811E-2
3.785618700E0,-7.032580674E-2,-1.027780026E-1,1.153007243E-2
3.802284638E0,-6.498073786E-2,-2.428187430E-2,-1.145371469E-3
3.818950575E0,-7.170025259E-2,3.787361458E-2,1.572976820E-2
3.835616513E0,-9.178243577E-2,4.138609022E-2,3.313941509E-2
3.852282450E0,-7.299833745E-2,2.107483521E-2,3.634645417E-2
3.868948388E0,-4.153880477E-2,-2.695440874E-2,4.169152305E-2
3.885614325E0,-2.405280061E-2,-5.535962060E-2,5.482511222E-2
3.902280263E0,-1.290451828E-2,-7.918334752E-2,6.513345987E-2
3.918946200E0,-1.030834299E-2,-5.497783050E-2,4.802924395E-2
3.935612138E0,-2.321286127E-2,8.246674202E-3,2.580903657E-2
3.952278075E0,-4.787652567E-2,-1.603520103E-2,1.145371422E-2
3.968944013E0,-5.711585656E-2,-5.597048625E-2,4.123337101E-3
3.985609950E0,-7.055488229E-2,-9.315688163E-3,1.137735695E-2
4.002275888E0,-3.161225095E-2,-1.779143699E-2,2.771798894E-2
4.018941825E0,-8.093958721E-3,-6.948587019E-3,2.748891525E-2
4.035607763E0,-1.962403022E-2,-3.153589368E-2,2.557996288E-2
4.052273700E0,-4.955640435E-2,-6.696604937E-2,7.559451740E-3
4.068939638E0,-8.475748450E-2,-6.352993846E-2,-9.315688163E-3
4.085605575E0,-9.353867173E-2,-3.901898861E-2,-4.963276442E-3
4.102271513E0,-7.406735420E-2,-4.665479809E-2,1.145371422E-2
4.118937450E0,-3.901898861E-2,-8.414662629E-2,3.375028074E-2
4.135603388E0,-6.185005885E-3,-1.265253723E-1,5.787943676E-2
4.152269325E0,-6.872228696E-4,-1.297324002E-1,6.230820715E-2
4.168935263E0,-2.703076601E-2,-7.284562290E-2,4.894553870E-2
4.185601200E0,-6.436987966E-2,-3.825540841E-2,4.024071619E-2
4.202267138E0,-9.300415963E-2,-2.466366626E-2,1.756236330E-2
4.218933075E0,-8.223766834E-2,2.878700197E-2,1.069013379E-3
4.235599013E0,-7.131846249E-2,5.001455545E-2,2.313650399E-2
4.252264950E0,-7.292198390E-2,3.130681813E-2,6.078104675E-2
4.268930888E0,-3.894263133E-2,-2.046396956E-2,8.307760954E-2
4.285596825E0,1.519526169E-2,-9.987638891E-2,6.177370250E-2
4.302262763E0,4.528035223E-2,-1.807396114E-1,9.392046370E-3
4.318928700E0,3.840812296E-2,-2.235001475E-1,-3.497200832E-2
4.335594638E0,8.475748822E-3,-1.846338809E-1,-5.131264031E-2
4.352260575E0,-2.458730713E-2,-7.399099320E-2,-5.421425030E-2
4.368926513E0,-5.253437161E-2,1.168278884E-2,-4.237874225E-2
4.385592450E0,-6.062832847E-2,7.712167688E-3,-2.603811212E-2
4.402258388E0,-4.451677203E-2,-5.077813566E-2,-1.007926930E-2
4.418924325E0,-1.191186346E-2,-1.119409725E-1,1.221729559E-3
4.435590263E0,-7.635809743E-5,-1.288161129E-1,4.810560029E-3
4.452256200E0,-1.679878100E-3,-1.085812151E-1,9.392046370E-3
4.468922138E0,1.305723470E-2,-6.604975462E-2,6.261364091E-3
4.485588075E0,9.392046370E-3,-2.214384824E-2,2.176205814E-2
4.502254013E0,6.108647794E-4,-1.153007243E-2,6.154462695E-2
4.518919950E0,-1.099556591E-2,-3.107774630E-2,7.841976732E-2
4.535585888E0,-2.145662531E-2,-8.239039034E-2,3.825540841E-2
4.552251825E0,-3.459021822E-2,-1.169042438E-1,2.405280061E-2
4.568917763E0,-5.291616172E-2,-1.455385387E-1,1.565340906E-2
4.585583700E0,-4.688387364E-2,-6.643154472E-2,3.138317913E-2
4.602249638E0,1.122464053E-2,8.223766834E-2,5.765036494E-2
4.618915575E0,1.607337892E-1,1.585957706E-1,2.573267929E-2
4.635581513E0,2.625191510E-1,1.045342386E-1,-1.389717404E-2
4.652247450E0,2.705367506E-1,-2.084576152E-2,-2.122755162E-2
4.668913388E0,2.006690800E-1,-8.498656005E-2,-3.153589368E-2
4.685579325E0,7.849612087E-2,-1.133917719E-1,-3.794997558E-2
4.702245263E0,-2.015853859E-2,-1.183550507E-1,-4.734202102E-2
4.718911200E0,-6.856957078E-2,-1.060613990E-1,-5.306887627E-2
4.735577138E0,-8.361211419E-2,-7.177661359E-2,-5.429060757E-2
4.752243075E0,-5.375609919E-2,-9.048434347E-2,-3.527744114E-2
4.768909013E0,-3.466657549E-2,-7.544180006E-2,-1.427896414E-2
4.785574950E0,-2.313650399E-2,-6.979130208E-2,-6.032289471E-3
4.802240888E0,-1.488982886E-2,-9.185878932E-2,-2.626718581E-2
4.818906825E0,-1.114828233E-2,-1.449276656E-1,-4.734202102E-2
4.835572763E0,-1.397353224E-2,-2.111301422E-1,-6.803506613E-2
4.852238700E0,-1.847865991E-2,-2.349538654E-1,-9.964732081E-2
4.868904638E0,-4.176788032E-2,-2.480874658E-1,-1.397353113E-1
4.885570575E0,-7.070759684E-2,-2.251036763E-1,-1.848629564E-1
4.902236513E0,-9.162971377E-2,-1.976911128E-1,-2.154825479E-1
4.918902450E0,-9.162971377E-2,-1.960875988E-1,-2.267071903E-1
4.935568388E0,-7.246383280E-2,-2.157116234E-1,-2.318995446E-1
4.952234325E0,-7.101303339E-2,-1.283579618E-1,-1.839466542E-1
4.968900263E0,-5.765036494E-2,1.236237586E-1,-4.902189970E-2
4.985566200E0,-2.122755162E-2,3.626246154E-1,7.994692773E-2
5.002232138E0,4.886918142E-2,4.726566374E-1,1.652389169E-1
5.018898075E0,1.569158882E-1,4.564687014E-1,1.949422210E-1
5.035564013E0,1.640935540E-1,1.686750352E-1,1.248454899E-1
5.052229950E0,1.288161129E-1,-4.024071619E-2,6.032289565E-2
5.068895888E0,1.030834317E-1,-2.167806327E-1,4.069886729E-2
5.085561825E0,1.016326249E-1,-4.163043499E-1,2.748891525E-2
5.102227763E0,1.482874304E-1,-6.208676696E-1,-2.977965865E-3
5.118893700E0,1.983783394E-1,-7.624356151E-1,-2.619082667E-2
5.135559638E0,1.630245447E-1,-7.380773425E-1,-7.330377586E-3
5.152225575E0,4.360047355E-2,-6.133846045E-1,2.970330045E-2
5.168891513E0,-9.010255337E-2,-4.637990892E-1,5.154171586E-2
5.185557450E0,-1.801287532E-1,-3.138317764E-1,5.665770918E-2
5.202223388E0,-2.021962404E-1,-2.038761228E-1,4.856374860E-2
5.218889325E0,-1.613446623E-1,-1.718820781E-1,5.016727000E-2
5.235555263E0,-8.918625861E-2,-2.115882933E-1,6.299543381E-2
5.252221200E0,-7.994692773E-2,-2.914588451E-1,6.116283685E-2
5.268887138E0,-1.382845193E-1,-3.990474045E-1,3.329212964E-2
5.285553075E0,-1.887572110E-1,-5.099957585E-1,-2.290742937E-3
5.302219013E0,-2.018144578E-1,-5.386300087E-1,-2.160934173E-2
5.318884950E0,-1.904370934E-1,-4.486801922E-1,-2.519817324E-3
5.335550888E0,-1.831067204E-1,-3.150535226E-1,6.039925665E-2
5.352216825E0,-1.919642538E-1,-2.428951114E-1,1.234710440E-1
5.368882763E0,-1.906661689E-1,-1.860083193E-1,1.527161896E-1
5.385548700E0,-1.990655661E-1,-1.664606482E-1,1.666133702E-1
5.402214638E0,-2.277761996E-1,-1.924987584E-1,1.722638607E-1
5.418880575E0,-2.377791107E-1,-2.431241870E-1,1.670715213E-1
5.435546513E0,-2.122755051E-1,-2.883281708E-1,1.576031148E-1
5.452212450E0,-1.589775532E-1,-2.728274763E-1,1.443168074E-1
5.468878388E0,-1.046869531E-1,-2.134208828E-1,1.690568328E-1
5.485544325E0,-8.216131479E-2,-2.074649483E-1,2.275471240E-1
5.502210263E0,-1.031597927E-1,-1.852447391E-1,2.882518172E-1
5.518876200E0,-1.259144992E-1,-1.707367003E-1,3.129154742E-1
5.535542138E0,-1.348484010E-1,-1.812741160E-1,3.077994883E-1
5.552208075E0,-1.255327165E-1,-1.765399277E-1,3.049742281E-1
5.568874013E0,-9.201150388E-2,-1.718820781E-1,3.112356067E-1
5.585539950E0,-7.276926935E-2,-1.671478748E-1,3.262017965E-1
5.602205888E0,-1.226311028E-1,-1.528689116E-1,3.502545953E-1
5.618871825E0,-2.129627317E-1,-1.271362305E-1,3.538434207E-1
5.635537763E0,-2.515999377E-1,-1.023962051E-1,3.384954333E-1
5.652203700E0,-2.380081862E-1,-1.359174103E-1,3.212385178E-1
5.668869638E0,-1.973856837E-1,-2.011272311E-1,3.179551065E-1
5.685535575E0,-1.889862865E-1,-3.010036349E-1,3.255909383E-1
5.702201513E0,-2.348011434E-1,-3.695732057E-1,3.246746361E-1
5.718867450E0,-2.913061380E-1,-4.053851366E-1,3.057378232E-1
5.735533388E0,-3.294851780E-1,-4.418843091E-1,3.010036349E-1
5.752199325E0,-3.389535844E-1,-4.868592322E-1,3.173442483E-1
5.768865263E0,-3.265072107E-1,-5.564978123E-1,3.330740333E-1
5.785531200E0,-3.997346461E-1,-6.255255342E-1,3.410916328E-1
5.802197138E0,-6.249909997E-1,-6.151408553E-1,3.772853613E-1
5.818863075E0,-8.276454210E-1,-5.610029697E-1,4.370737374E-1
5.835529013E0,-9.069814682E-1,-4.934260249E-1,5.206094980E-1
5.852194950E0,-8.229112029E-1,-5.521454215E-1,5.831468105E-1
5.868860888E0,-6.164389253E-1,-8.332959414E-1,5.427533388E-1
5.885526825E0,-4.227184355E-1,-1.407508850E0,4.702131748E-1
5.902192763E0,-3.460549116E-1,-2.203007460E0,5.057196617E-1
5.918858700E0,-5.640572906E-1,-2.771340847E0,6.863065958E-1
5.935524638E0,-9.592867494E-1,-2.713613987E0,8.063415289E-1
5.952190575E0,-1.304501772E0,-2.261192322E0,8.470403552E-1
5.968856513E0,-1.438281178E0,-1.753258228E0,8.306997418E-1
5.985522450E0,-1.351309299E0,-1.608636022E0,7.590758204E-1
6.002188388E0,-1.112079382E0,-1.908494234E0,5.932260752E-1
6.018854325E0,-9.315688014E-1,-2.428416491E0,4.674642682E-1
6.035520263E0,-9.776127338E-1,-2.793790102E0,4.803687930E-1
6.052186200E0,-9.863939285E-1,-2.855869293E0,4.725802541E-1
6.068852138E0,-8.331431746E-1,-2.810970545E0,4.683805704E-1
6.085518075E0,-4.796051979E-1,-2.809825182E0,4.823541045E-1
6.102184013E0,4.886918236E-3,-3.031721830E0,4.999164641E-1
6.118849950E0,4.219548404E-1,-3.484830856E0,4.948768318E-1
6.135515888E0,5.560396910E-1,-3.771250010E0,4.767799675E-1
6.152181825E0,3.140608668E-1,-3.640525103E0,5.526798964E-1
6.168847763E0,-2.608392537E-1,-3.064250469E0,7.369319797E-1
6.185513700E0,-9.702059627E-1,-2.253709316E0,9.256128669E-1
6.202179638E0,-1.442022681E0,-1.641851783E0,9.388228059E-1
6.218845575E0,-1.570304275E0,-1.340924501E0,8.272636533E-1
6.235511513E0,-1.547855020E0,-1.163468361E0,7.589994669E-1
6.252177450E0,-1.491044521E0,-9.256128669E-1,7.191405892E-1
6.268843388E0,-1.392237186E0,-7.176897526E-1,6.797397733E-1
6.285509325E0,-1.252883673E0,-5.862774849E-1,6.448441148E-1
6.302175263E0,-1.031292439E0,-4.438696206E-1,5.524508357E-1
6.318841200E0,-7.607557178E-1,-3.526217043E-1,4.460839927E-1
6.335507138E0,-4.913643599E-1,-2.859610617E-1,3.233765364E-1
6.352173075E0,-2.819904685E-1,-1.550069451E-1,1.959348768E-1
6.368839013E0,-1.455385387E-1,7.307469845E-2,8.681915700E-2
6.385504950E0,-3.413207084E-2,2.762635946E-1,-8.246674202E-3
6.402170888E0,7.841976732E-2,4.271472096E-1,-9.857830405E-2
6.418836825E0,2.163988501E-1,6.175079346E-1,-2.193768173E-1
6.435502763E0,3.888154328E-1,8.060360551E-1,-3.765981495E-1
6.452168700E0,6.070469022E-1,8.733075857E-1,-5.604684353E-1
6.468834638E0,8.640682101E-1,8.655954003E-1,-7.443387508E-1
6.485500575E0,1.078252673E0,9.231693745E-1,-9.085850120E-1
6.502166513E0,1.245858669E0,1.029001713E0,-1.108414173E0
6.518832450E0,1.337412119E0,1.091233611E0,-1.298774838E0
6.535498388E0,1.317406297E0,1.289993644E0,-1.475467563E0
6.552164325E0,1.193629742E0,1.663308382E0,-1.659872293E0
6.568830263E0,1.171791315E0,1.953011036E0,-1.890244722E0
6.585496200E0,1.366733551E0,2.144898891E0,-1.970420718E0
6.602162138E0,1.810526848E0,2.278831005E0,-1.842749953E0
6.618828075E0,2.407036304E0,2.226372957E0,-1.774638534E0
6.635494013E0,2.900920391E0,1.994397163E0,-2.041815519E0
6.652159950E0,3.100749731E0,1.739284754E0,-2.405280113E0
6.668825888E0,2.939404964E0,1.796247840E0,-2.622060776E0
6.685491825E0,2.633819818E0,2.086103201E0,-2.738430500E0
6.702157763E0,2.305632830E0,2.349538565E0,-2.698647976E0
6.718823700E0,1.931478024E0,2.529667377E0,-2.465221167E0
6.735489638E0,1.648265839E0,2.541808367E0,-2.031049013E0
6.752155575E0,1.601916552E0,2.283946991E0,-1.453400016E0
6.768821513E0,1.866879106E0,1.633757830E0,-7.974076271E-1
6.785487450E0,2.363054037E0,6.088030934E-1,-1.096502244E-1
6.802153388E0,2.956127405E0,-5.145008564E-1,5.393936038E-1
6.818819325E0,3.374569654E0,-1.403538227E0,1.047327638E0
6.835485263E0,3.403356791E0,-1.892993569E0,1.470885992E0
6.852151200E0,3.016832113E0,-1.903912783E0,1.847025990E0
6.868817138E0,2.332205296E0,-1.540982723E0,2.101756573E0
6.885483075E0,1.547091365E0,-1.041448116E0,2.106109142E0
6.902149013E0,8.667407632E-1,-5.845212340E-1,1.895971537E0
6.918814950E0,3.243691921E-1,-2.603047490E-1,1.682321548E0
6.935480888E0,-1.946367919E-1,3.000873141E-2,1.567097187E0
6.952146825E0,-6.829468012E-1,3.630063832E-1,1.525787473E0
6.968812763E0,-1.258686900E0,6.840922236E-1,1.433012366E0
6.985478700E0,-2.040975571E0,6.799688339E-1,1.166522622E0
7.002144638E0,-3.170006514E0,-2.290742937E-3,1.072220445E0
7.018810575E0,-4.102644444E0,-1.327027321E0,1.087721109E0
7.035476513E0,-3.470628262E0,-2.576245785E0,1.240666389E0
7.052142450E0,-2.023642302E0,-1.867795467E0,1.040379047E0
7.068808388E0,-6.158280373E-1,-1.226311028E-1,6.727148592E-2
7.085474325E0,8.329141140E-1,-2.214384824E-2,-2.604574561E-1
7.102140263E0,1.992640853E0,-8.677334189E-1,3.550651670E-2
7.118806200E0,2.591364861E0,-1.709886909E0,3.711767197E-1
7.135472138E0,2.506683588E0,-1.923995018E0,5.864301920E-1
7.152138075E0,1.684841394E0,-1.492571712E0,8.663589954E-1
7.168804013E0,4.610501826E-1,-7.673988938E-1,1.054199934E0
7.185469950E0,-5.946004987E-1,-2.485456020E-1,8.209258914E-1
7.202135888E0,-1.234786749E0,-2.573267929E-2,2.441168427E-1
7.218801825E0,-1.472871304E0,2.360228747E-1,-4.401280880E-1
7.235467763E0,-1.435455918E0,5.274817348E-1,-1.081459761E0
7.252133700E0,-1.262733817E0,9.052252173E-1,-1.595196962E0
7.268799638E0,-1.020067811E0,1.273271322E0,-1.968129992E0
7.285465575E0,-6.980656981E-1,1.503338218E0,-2.231260061E0
7.302131513E0,-3.354411125E-1,1.786244988E0,-2.395048141E0
7.318797450E0,-9.025526792E-2,2.187583208E0,-2.396575212E0
7.335463388E0,4.634936526E-2,2.601138592E0,-2.286237717E0
7.352129325E0,3.468948305E-1,2.914588690E0,-2.200793028E0
7.368795263E0,1.054199934E0,2.789972067E0,-2.050062180E0
7.385461200E0,1.887724876E0,1.413235664E0,-1.173853040E0
7.402127138E0,2.531881809E0,-8.026763201E-1,-4.946477413E-1
7.418793075E0,2.493397236E0,-1.745469809E0,-1.177976370E0
7.435459013E0,1.174692988E0,-6.379718781E-1,-1.984317899E0
7.452124950E0,-4.492146969E-1,1.506621599E0,-2.081292629E0
7.468790888E0,-1.159268618E0,3.366781235E0,-1.735619545E0
7.485456825E0,-5.663480163E-1,3.964206934E0,-1.043433428E0
7.502122763E0,8.835395575E-1,2.852280378E0,-1.882990748E-1
7.518788700E0,2.321286201E0,7.851139307E-1,4.120282829E-1
7.535454638E0,3.123351574E0,-7.953459620E-1,6.723330617E-1
7.552120575E0,3.255145788E0,-1.329776287E0,7.692314982E-1
7.568786513E0,2.842277527E0,-1.062293887E0,7.747292519E-1
7.585452450E0,2.067700863E0,-3.651444316E-1,7.087558508E-1
7.602118388E0,1.214017391E0,3.674351573E-1,5.896372199E-1
7.618784325E0,4.599811733E-1,7.487674952E-1,5.198459029E-1
7.635450263E0,-2.196058929E-1,6.659952998E-1,6.166679859E-1
7.652116200E0,-8.440623879E-1,1.879172772E-1,8.805615902E-1
7.668782138E0,-1.336037636E0,-3.136790693E-1,1.187062979E0
7.685448075E0,-1.772042394E0,-1.974620372E-1,1.129183531E0
7.702114013E0,-1.960341454E0,6.704241037E-1,2.041051984E-1
7.718779950E0,-2.064493895E0,1.177518249E0,-9.621120095E-1
7.735445888E0,-3.018435478E0,-9.621120244E-2,-1.058475971E0
7.752111825E0,-4.628828049E0,-3.235368967E0,4.374555349E-1
7.768777763E0,-5.138060093E0,-3.467803001E0,5.403862596E-1
7.785443700E0,-3.689546824E0,-6.551524997E-1,-1.165988207E0
7.802109638E0,-1.365206480E0,1.986074150E-1,-1.276478291E0
7.818775575E0,5.508472919E-1,-9.321032763E-1,-4.537961781E-1
7.835441513E0,1.397887707E0,-2.008523464E0,4.104247689E-1
7.852107450E0,9.044616818E-1,-2.219042778E0,9.017891288E-1
7.868773388E0,-5.482511222E-2,-2.004323721E0,6.610320210E-1
7.885439325E0,-8.929315805E-1,-1.669646144E0,2.254854590E-1
7.902105263E0,-1.345964193E0,-1.266475439E0,-2.848157100E-2
7.918771200E0,-1.262581110E0,-9.694424272E-1,-1.625663936E-1
7.935437138E0,-8.025999665E-1,-8.151990771E-1,-2.876409590E-1
7.952103075E0,-2.505309284E-1,-7.330377102E-1,-5.248091817E-1
7.968769013E0,2.420551628E-1,-7.001274228E-1,-8.452841640E-1
7.985434950E0,5.319104791E-1,-5.390118361E-1,-1.134452224E0
8.002100888E0,5.494728684E-1,-5.849030241E-2,-1.338022947E0
8.018766825E0,5.114465356E-1,7.612902522E-1,-1.571984172E0
8.035432763E0,5.778780580E-1,1.636583090E0,-1.890092015E0
8.052098700E0,7.256309986E-1,2.315559387E0,-2.219577074E0
8.068764638E0,6.501892209E-1,2.721784353E0,-2.475682259E0
8.085430575E0,-2.107483447E-1,3.208032846E0,-2.961854219E0
8.102096513E0,-1.276707411E0,3.444132090E0,-4.116159439E0
8.118762450E0,-1.066111803E0,3.950080633E0,-5.117290497E0
8.135428388E0,1.548542231E-1,3.783849239E0,-4.585990906E0
8.152094325E0,1.604512691E0,2.985830784E0,-3.286223412E0
8.168760263E0,2.568228245E0,2.324722290E0,-2.317773581E0
8.185426200E0,2.692080975E0,2.323806047E0,-1.594662547E0
8.202092138E0,2.520199060E0,2.654894590E0,-9.805143476E-1
8.218758075E0,2.240117550E0,2.775769472E0,-1.282052398E-1
8.235424013E0,1.683848739E0,2.495459080E0,8.076395988E-1
8.252089950E0,1.001971006E0,2.014631987E0,1.510515928E0
8.268755888E0,3.940841556E-1,1.666897297E0,1.750127554E0
8.285421825E0,-2.290742844E-2,1.470656991E0,1.704083681E0
8.302087763E0,-2.929860055E-1,1.076114655E0,1.612148523E0
8.318753700E0,-4.338667095E-1,3.959167302E-1,1.665904641E0
8.335419638E0,-5.112174749E-1,-4.856374860E-1,1.893222690E0
8.352085575E0,-5.188532472E-1,-1.571602345E0,2.142073631E0
8.368751513E0,-7.189878225E-1,-2.278296471E0,2.322889566E0
8.385417450E0,-1.132696033E0,-2.365421057E0,2.270278931E0
8.402083388E0,-1.566868186E0,-2.280434608E0,2.165286541E0
8.418749325E0,-2.340223074E0,-2.613737583E0,2.639699459E0
8.435415263E0,-3.550117016E0,-3.709094524E0,3.841117620E0
8.452081200E0,-4.429380417E0,-4.918988705E0,4.341568470E0
8.468747138E0,-3.916024923E0,-4.237492561E0,3.203603983E0
8.485413075E0,-2.732092619E0,-2.046702385E0,1.835725069E0
8.502079013E0,-1.640859127E0,-8.911753297E-1,1.166217208E0
8.518744950E0,-1.023580313E0,-1.361999393E0,1.173853040E0
8.535410888E0,-1.040150046E0,-1.886274099E0,1.530139923E0
8.552076825E0,-1.379485369E0,-1.872376919E0,1.803120136E0
8.568742763E0,-1.631925225E0,-1.734932303E0,1.656054378E0
8.585408700E0,-1.603749156E0,-1.754938126E0,1.155221701E0
8.602074638E0,-1.358410597E0,-1.618562579E0,5.914698243E-1
8.618740575E0,-1.060155869E0,-1.197065949E0,-7.437278330E-2
8.635406513E0,-8.985057473E-1,-6.343830824E-1,-7.473167181E-1
8.652072450E0,-8.704823256E-1,-1.275943816E-1,-1.241735339E0
8.668738388E0,-8.594104052E-1,1.837175786E-1,-1.538157463E0
8.685404325E0,-6.617192626E-1,3.329212964E-1,-1.756159902E0
8.702070263E0,-2.467130125E-1,4.792234302E-1,-1.973856807E0
8.718736200E0,2.638935745E-1,8.826996088E-1,-2.243859053E0
8.735402138E0,5.597811937E-1,1.707977891E0,-2.509050608E0
8.752068075E0,3.495673835E-1,2.849989653E0,-2.652680397E0
8.768734013E0,-1.504254490E-1,3.944812059E0,-2.373056889E0
8.785399950E0,-3.617083132E-1,4.079736710E0,-1.765246511E0
8.802065888E0,1.038928270E0,2.837314129E0,-2.305174589E0
8.818731825E0,2.601138592E0,2.540586710E0,-4.010785580E0
8.835397763E0,2.758054495E0,3.596084595E0,-4.651887894E0
8.852063700E0,2.567922831E0,4.237339973E0,-4.279031277E0
8.868729638E0,2.585485220E0,3.313330650E0,-3.565846682E0
8.885395575E0,2.518060923E0,1.595578790E0,-2.526994944E0
8.902061513E0,2.297004223E0,3.210094273E-1,-1.329089046E0
8.918727450E0,1.831219912E0,-1.039233729E-1,-3.070359230E-1
8.935393388E0,1.150640130E0,1.482110620E-1,4.883863926E-1
8.952059325E0,6.813433170E-1,6.730202436E-1,1.195691466E0
8.968725263E0,7.102830410E-1,1.026100159E0,1.612835765E0
8.985391200E0,9.463059306E-1,7.775545120E-1,1.776394725E0
9.002057138E0,9.261473417E-1,1.669951528E-1,1.903683782E0
9.018723075E0,5.859720111E-1,-4.834994674E-1,2.111148596E0
9.035389013E0,4.245510325E-2,-1.255098104E0,2.405738115E0
9.052054950E0,-7.192169428E-1,-2.098396778E0,2.701320410E0
9.068720888E0,-1.673464060E0,-2.694066286E0,2.843728304E0
9.085386825E0,-2.704832792E0,-2.612210512E0,2.582278252E0
9.102052763E0,-3.577911377E0,-1.771736979E0,1.992717266E0
9.118718700E0,-4.340881348E0,-8.102357984E-1,1.601687431E0
9.135384638E0,-5.575286388E0,-7.450259328E-1,1.955836296E0
9.152050575E0,-6.702866554E0,-2.222326040E0,2.599458694E0
9.168716513E0,-6.725468636E0,-2.740033865E0,2.373209715E0
9.185382450E0,-5.918287277E0,-9.325614572E-1,1.306945205E0
9.202048388E0,-4.769174099E0,9.233984947E-1,2.499964088E-1
9.218714325E0,-3.393964767E0,1.644677043E0,-2.945131958E-1
9.235380263E0,-2.287383080E0,1.479667187E0,-2.632827163E-1
9.252046200E0,-1.738902926E0,6.897426844E-1,1.081994250E-1
9.268712138E0,-1.507843375E0,-2.729038298E-1,1.947895139E-1
9.285378075E0,-1.262581110E0,-1.010828495E0,-1.643989831E-1
9.302044013E0,-9.986112118E-1,-1.331303477E0,-5.064069033E-1
9.318709950E0,-6.971494555E-1,-1.223027706E0,-5.376373529E-1
9.335375888E0,-2.709185183E-1,-7.955750227E-1,-4.184423685E-1
9.352041825E0,2.765690386E-1,-3.872882724E-1,-3.371973634E-1
9.368707763E0,9.245438576E-1,-8.582650125E-2,-2.726747692E-1
9.385373700E0,1.674074888E0,2.310595959E-1,-2.016617358E-1
9.402039638E0,2.465602875E0,5.348120928E-1,-1.362992078E-1
9.418705575E0,3.097084522E0,8.725439906E-1,-1.131627038E-1
9.435371513E0,3.248960733E0,1.508683324E0,-1.970802546E-1
9.452037450E0,2.540433884E0,2.961395979E0,-3.991237879E-1
9.468703388E0,7.515164018E-1,5.629729748E0,-6.189587116E-1
9.485369325E0,-1.044044256E0,8.472006798E0,-8.985057473E-1
9.502035263E0,-1.807701588E0,8.057993889E0,-1.809305072E0
9.518701200E0,-8.859829903E-1,2.248058796E0,-2.429867268E0
9.535367138E0,1.969428062E0,-1.002887249E0,-1.710192323E0
9.552033075E0,4.189081669E0,9.831104875E-1,-9.740238786E-1
9.568699013E0,4.641808510E0,3.298669815E0,-5.259546041E-1
9.585364950E0,4.116388798E0,3.976882458E0,-6.364447474E-1
9.602030888E0,3.509494543E0,3.361436129E0,-1.054658055E0
9.618696825E0,2.826165915E0,2.445138931E0,-5.342776179E-1
9.635362763E0,2.219348192E0,2.184834242E0,5.574904680E-1
9.652028700E0,2.534019709E0,2.301127672E0,1.784870505E0
9.668694638E0,3.927325964E0,1.817170024E0,2.476522207E0
9.685360575E0,5.354076862E0,7.518981695E-1,1.970955253E0
9.702026513E0,5.548255920E0,-2.856556475E-1,8.346703649E-1
9.718692450E0,4.149299145E0,-4.759400189E-1,-1.320995111E-2
9.735358388E0,1.777005672E0,3.693441153E-1,-3.636936247E-1
9.752024325E0,-4.683042169E-1,1.656512618E0,-4.789179862E-1
9.768690263E0,-1.922544122E0,2.726213217E0,-3.912588954E-1
9.785356200E0,-2.421315193E0,2.967657566E0,-7.490729541E-2
9.802022138E0,-2.266919136E0,2.076940298E0,4.511236250E-1
9.818688075E0,-2.358930588E0,4.129445851E-1,1.133001447E0
9.835354013E0,-3.177031279E0,-7.362447977E-1,2.324645996E0
9.852019950E0,-4.763065338E0,-1.173776627E0,4.000095367E0
9.868685888E0,-5.919585228E0,-1.216231823E0,5.028562546E0
9.885351825E0,-4.328588009E0,-1.350392938E0,4.773831844E0
9.902017763E0,-9.060651660E-1,-1.188361049E0,4.800098896E0
9.918683700E0,2.050367594E0,-5.510764122E-1,5.436238289E0
9.935349638E0,3.752924204E0,2.203694731E-1,5.385612965E0
9.952015575E0,3.921064615E0,1.318169832E0,4.497262955E0
9.968681513E0,3.130834818E0,2.293797255E0,3.495062828E0
9.985347450E0,2.228358269E0,2.834870815E0,2.951011419E0
1.000201339E1,1.946367860E0,2.950095177E0,2.750647783E0
1.001867932E1,2.416122913E0,2.746295214E0,2.629314661E0
1.003534526E1,3.316384792E0,2.447124243E0,2.519969940E0
1.005201120E1,4.371424675E0,2.357098103E0,2.379623652E0
1.006867714E1,4.839805126E0,2.503171206E0,2.356868982E0
1.008534308E1,4.306444168E0,2.375195026E0,2.726900339E0
1.010200901E1,2.795546293E0,9.727258086E-1,3.375944138E0
1.011867495E1,1.617340803E0,-1.214399219E0,3.170999050E0
1.013534089E1,1.330463529E0,-2.092440844E0,2.312123299E0
1.015200682E1,9.267582297E-1,-1.053207278E0,1.905669093E0
1.016867276E1,5.445095897E-1,4.211149216E-1,2.273562431E0
1.018533870E1,7.512873411E-1,7.911462188E-1,3.165424824E0
1.020200464E1,1.480278134E0,-2.046396956E-2,3.998415470E0
1.021867058E1,2.504163742E0,-1.226463795E0,4.218326569E0
1.023533651E1,3.473529816E0,-2.091219187E0,4.011548996E0
1.025200245E1,4.110127449E0,-2.222402334E0,3.652513266E0
1.026866839E1,4.293463230E0,-1.646891475E0,3.286834240E0
1.028533432E1,3.931525707E0,-6.219366789E-1,2.940703154E0
1.030200026E1,3.214446783E0,2.609919906E-1,2.558530807E0
1.031866620E1,2.296164274E0,5.266417861E-1,2.146807909E0
1.033533214E1,1.397658587E0,2.917642891E-1,1.806403518E0
1.035199808E1,7.553343177E-1,-1.104138121E-1,1.632077932E0
1.036866401E1,3.532325625E-1,-2.037997693E-1,1.588401198E0
1.038532995E1,1.713475734E-1,1.559232324E-1,1.557857871E0
1.040199589E1,9.537126124E-2,7.883973718E-1,1.511355877E0
1.041866183E1,1.259908639E-2,8.469640017E-1,1.769140720E0
1.043532776E1,1.064431891E-1,-3.502545953E-1,2.382754326E0
1.045199370E1,1.070235133E0,-1.872376919E0,2.719341040E0
1.046865964E1,2.809138060E0,-2.159712315E0,2.463006735E0
1.048532558E1,4.185721874E0,-1.005941629E0,1.973474979E0
1.050199151E1,4.941056252E0,-7.788525894E-3,1.373300433E0
1.051865745E1,5.219686985E0,2.139553875E-1,7.072287202E-1
1.053532339E1,5.036045551E0,2.777144015E-1,2.376264036E-1
1.055198933E1,4.478020668E0,5.329795480E-1,5.245801434E-2
1.056865526E1,3.809581757E0,8.768200278E-1,-3.901898861E-2
1.058532120E1,3.261483431E0,1.100625634E0,-2.367864549E-1
1.060198714E1,2.868926525E0,1.218293428E0,-6.672934294E-1
1.061865308E1,2.571129799E0,1.601916552E0,-1.422474980E0
1.063531901E1,2.155512810E0,2.270049810E0,-2.279594660E0
1.065198495E1,1.506239772E0,3.041342974E0,-2.961243391E0
1.066865089E1,8.913280964E-1,3.651062489E0,-3.367086649E0
1.068531683E1,6.229293346E-1,4.002386093E0,-3.543244839E0
1.070198276E1,6.919570565E-1,4.276816845E0,-3.565541267E0
1.071864870E1,1.053894520E0,4.505967617E0,-3.398469925E0
1.073531464E1,1.725922108E0,4.302549839E0,-2.937801361E0
1.075198058E1,2.290361166E0,3.807443857E0,-2.416962862E0
1.076864651E1,2.317010164E0,3.287827015E0,-2.187048674E0
1.078531245E1,2.102596521E0,2.716515779E0,-2.064264774E0
1.080197839E1,2.010432243E0,1.786015868E0,-1.599778533E0
1.081864433E1,1.864970207E0,7.602975965E-1,-9.107993841E-1
1.083531026E1,1.518380761E0,3.191768527E-1,-4.633409381E-1
1.085197620E1,8.858302832E-1,5.849793553E-1,-1.404225379E-1
1.086864214E1,4.156934917E-1,1.052825451E0,3.470475674E-1
1.088530808E1,5.307651162E-1,1.031674266E0,1.247462273E0
1.090197401E1,1.225318432E0,4.450149834E-1,2.372064352E0
1.091863995E1,1.940870166E0,-4.101193547E-1,3.305694818E0
1.093530589E1,2.484845161E0,-1.535255909E0,3.768424749E0
1.095197183E1,2.784168959E0,-2.420475245E0,3.810421705E0
1.096863776E1,2.459646940E0,-2.464610338E0,3.724442482E0
1.098530370E1,1.268384337E0,-1.793575406E0,3.859291077E0
1.100196964E1,-2.086866796E-1,-1.061377525E0,4.217792034E0
1.101863558E1,-1.341917157E0,-7.373138070E-1,4.456640244E0
1.103530151E1,-2.047771454E0,-8.210785985E-1,4.275290012E0
1.105196745E1,-2.734536171E0,-1.107879639E0,4.080271244E0
1.106863339E1,-3.916177750E0,-1.167057157E0,4.398226261E0
1.108529933E1,-5.685165882E0,-8.829286695E-1,5.324068546E0
1.110196526E1,-7.227141380E0,-1.434157729E0,5.489536285E0
1.111863120E1,-7.976825237E0,-1.260290384E0,3.964130640E0
1.113529714E1,-7.621377945E0,7.194460034E-1,1.808388829E0
1.115196308E1,-5.584449291E0,1.921856999E0,1.107192412E-2
1.116862901E1,-2.771493435E0,1.024725676E0,-7.186824083E-1
1.118529495E1,-4.861720204E-1,-2.682459950E-1,2.315941155E-1
1.120196089E1,8.370374441E-1,-7.475457788E-1,5.258781910E-1
1.121862683E1,8.987348080E-1,-4.033998251E-1,2.148716897E-1
1.123529276E1,7.108938694E-2,2.341902852E-1,-1.817322709E-2
1.125195870E1,-7.470112443E-1,9.399681687E-1,-3.039052188E-1
1.126862464E1,-8.839213252E-1,1.459126830E0,-6.981421113E-1
1.128529058E1,-2.367864549E-1,1.679419994E0,-1.074816585E0
1.130195651E1,7.926734090E-1,1.795942426E0,-1.344589710E0
1.131862245E1,1.818849921E0,1.784335971E0,-1.452101946E0
1.133528839E1,2.573038816E0,1.742033601E0,-1.415984511E0
1.135195433E1,3.047986269E0,1.850920320E0,-1.421940446E0
1.136862026E1,3.528126001E0,2.132299900E0,-1.493640780E0
1.138528620E1,4.202978611E0,2.473009586E0,-1.584354162E0
1.140195214E1,4.991681576E0,2.939252138E0,-1.707901597E0
1.141861808E1,5.437459946E0,3.113501310E0,-1.857410669E0
1.143528401E1,5.164021969E0,2.392222881E0,-1.891084671E0
1.145194995E1,4.144030094E0,8.358157277E-1,-1.182786942E0
1.146861589E1,2.847088099E0,2.133445293E-1,-9.249256253E-1
1.148528183E1,1.791895509E0,1.881692648E0,-1.775249362E0
1.150194776E1,9.749401808E-1,3.908618212E0,-2.081292629E0
1.151861370E1,9.453132749E-1,4.558043957E0,-1.451720119E0
1.153527964E1,1.974467635E0,3.539426804E0,-2.939786613E-1
1.155194558E1,3.424126148E0,1.984699726E0,6.329322457E-1
1.156861151E1,4.303465843E0,1.014799118E0,8.286380768E-1
1.158527745E1,4.003760338E0,8.809433579E-1,6.994401813E-1
1.160194339E1,2.870148182E0,9.001855850E-1,8.035926223E-1
1.161860933E1,1.539608359E0,5.664243698E-1,1.009072304E0
1.163527526E1,5.015199780E-1,3.397935256E-2,1.072067738E0
1.165194120E1,-1.298087649E-2,-4.360810816E-1,1.134528637E0
1.166860714E1,-2.410625070E-1,-6.204859018E-1,1.195767760E0
1.168527308E1,-5.522981286E-1,-7.580831647E-1,1.329394460E0
1.170193901E1,-9.847903848E-1,-1.306105256E0,1.434997678E0
1.171860495E1,-1.395215154E0,-2.048916817E0,1.371849537E0
1.173527089E1,-1.863061190E0,-2.283412457E0,1.336877584E0
1.175193683E1,-2.437350512E0,-1.863213897E0,1.226158381E0
1.176860276E1,-3.204138517E0,-1.406210780E0,1.022893071E0
1.178526870E1,-4.393415928E0,-1.986761332E0,1.687055826E0
1.180193464E1,-4.781162262E0,-3.771173716E0,2.551658630E0
1.181860058E1,-3.672977209E0,-3.567984819E0,2.118402719E0
1.183526651E1,-2.200335026E0,-9.452368617E-1,3.662134409E-1
1.185193245E1,-1.146364093E0,9.208786488E-2,-4.861720204E-1
1.186859839E1,-9.386700988E-1,-8.691078424E-1,-1.889099330E-1
1.188526433E1,-1.572442293E0,-2.130543709E0,2.506072819E-1
1.190193026E1,-2.711246967E0,-2.308686972E0,7.170025110E-1
1.191859620E1,-3.759720087E0,-1.785939574E0,1.071533203E0
1.193526214E1,-4.188776016E0,-8.499419689E-1,1.133230567E0
1.195192808E1,-4.065916061E0,9.987638891E-2,1.203098178E0
1.196859401E1,-3.348989725E0,8.321505189E-1,1.180343509E0
1.198525995E1,-2.010203362E0,9.425643682E-1,9.936479330E-1
1.200192589E1,-3.801106215E-1,3.394880891E-1,3.650680780E-1
1.201859183E1,8.536835313E-1,-4.595993757E-1,-6.717221737E-1
1.203525776E1,1.360624909E0,-6.619483232E-1,-1.547015071E0
1.205192370E1,1.499520302E0,2.281579971E-1,-1.947284222E0
1.206858964E1,1.805716276E0,1.925293088E0,-1.891160965E0
1.208525558E1,2.585332394E0,3.088150501E0,-1.707367063E0
1.210192151E1,3.536067247E0,2.822271585E0,-1.910708666E0
1.211858745E1,4.282085896E0,1.977216601E0,-2.262337685E0
1.213525339E1,4.619664669E0,9.150754213E-1,-2.063730240E0
1.215191933E1,4.324693680E0,3.042106628E-1,-1.238146544E0
1.216858526E1,3.922057390E0,9.589049816E-1,-8.790344000E-1
1.218525120E1,3.582340240E0,1.628031015E0,-1.613828421E0
1.220191714E1,3.159316301E0,1.753258228E0,-2.505919933E0
1.221858308E1,2.555400133E0,1.765781045E0,-2.676198483E0
1.223524901E1,1.932470679E0,1.696066022E0,-2.311665058E0
1.225191495E1,1.513188362E0,1.486081243E0,-1.847178698E0
1.226858089E1,1.400712967E0,1.003727198E0,-1.374751210E0
1.228524683E1,1.442175388E0,2.947422564E-1,-9.016364217E-1
1.230191276E1,1.507537961E0,-4.980075061E-1,-4.337140024E-1
1.231857870E1,1.699807644E0,-1.386052132E0,6.368265301E-2
1.233524464E1,1.896964192E0,-2.166890144E0,5.423715711E-1
1.235191058E1,1.873674989E0,-2.903974771E0,9.595922232E-1
1.236857651E1,1.539531946E0,-3.829434872E0,1.302821875E0
1.238524245E1,8.735366464E-1,-4.828427792E0,1.580536246E0
1.240190839E1,-2.314413935E-1,-5.039863586E0,1.869933486E0
1.241857433E1,-1.563737512E0,-4.255971432E0,2.155207396E0
1.243524026E1,-2.722548008E0,-2.694448233E0,2.452163935E0
1.245190620E1,-3.591503143E0,-7.470112443E-1,2.732856274E0
1.246857214E1,-4.379289627E0,3.649916872E-2,3.439932346E0
1.248523808E1,-5.356062412E0,-1.336266756E0,5.039023399E0
1.250190401E1,-5.731438637E0,-2.771264315E0,4.835453033E0
1.251856995E1,-4.892950535E0,-1.608407021E0,2.641990185E0
1.253523589E1,-3.532020092E0,-6.383536756E-2,8.710168004E-1
1.255190183E1,-1.606574416E0,-5.576431751E-1,-2.260963321E-1
1.256856776E1,-3.472002745E-1,-1.774562240E0,-2.252563834E-1
1.258523370E1,-4.105774760E-1,-1.927049279E0,2.286925018E-1
1.260189964E1,-1.226158381E0,-1.380172610E0,7.973312736E-1
1.261856558E1,-2.049375057E0,-8.175661564E-1,1.259145021E0
1.263523151E1,-2.511646986E0,-5.417606831E-1,1.662392139E0
1.265189745E1,-2.283259869E0,-6.469821334E-1,1.587484837E0
1.266856339E1,-1.582063437E0,-6.955459118E-1,5.946768522E-1
1.268522933E1,-9.328668714E-1,-3.500255048E-1,-3.971384764E-1
1.270189526E1,-6.343830824E-1,2.504545636E-2,-6.493492723E-1
1.271856120E1,-2.913061380E-1,2.265544683E-1,-6.198750138E-1
1.273522714E1,2.791652083E-1,3.723984361E-1,-8.376483321E-1
1.275189308E1,9.883792400E-1,5.735256672E-1,-1.408043265E0
1.276855901E1,1.592371821E0,9.282090068E-1,-2.202702045E0
1.278522495E1,1.843131781E0,1.403385520E0,-2.847469807E0
1.280189089E1,1.913610339E0,1.828929186E0,-2.687194109E0
1.281855682E1,2.234619617E0,1.169729710E0,-6.982184649E-1
1.283522276E1,2.676885843E0,-1.169042438E-1,1.155832529E0
1.285188870E1,2.612592220E0,-7.252492309E-1,5.190823674E-1
1.286855464E1,1.915442824E0,1.072678566E0,-1.711184978E0
1.288522058E1,1.469511628E0,3.603567600E0,-2.908174515E0
1.290188651E1,2.374736786E0,4.301939011E0,-2.666959286E0
1.291855245E1,4.076071739E0,3.143815517E0,-1.613446593E0
1.293521839E1,5.590176105E0,1.459203243E0,-6.539307237E-1
1.295188432E1,6.433246136E0,1.201876476E-1,-2.383136153E-1
1.296855026E1,6.401786327E0,-5.333613157E-1,-1.473711282E-1
1.298521620E1,5.653248310E0,-6.806560755E-1,-2.728274763E-1
1.300188214E1,4.519101143E0,-4.759400189E-1,-6.115520000E-1
1.301854808E1,3.285917997E0,2.275471389E-2,-1.007926941E0
1.303521401E1,2.344040871E0,4.251618981E-1,-1.530903459E0
1.305187995E1,2.206978083E0,2.231183648E-1,-2.203694582E0
1.306854589E1,2.863352299E0,-1.957058012E-1,-2.865108490E0
1.308521182E1,3.471468210E0,-3.785070777E-1,-3.201389551E0
1.310187776E1,3.234452724E0,-2.021198869E-1,-3.028514862E0
1.311854370E1,1.557247043E0,6.172025204E-1,-2.577925682E0
1.313520964E1,-1.099022150E0,1.615279198E0,-2.154214621E0
1.315187558E1,-3.452531338E0,2.361984968E0,-2.124816895E0
1.316854151E1,-4.709691048E0,2.501873016E0,-1.853898287E0
1.318520745E1,-4.931205750E0,1.971642375E0,-5.581013560E-1
1.320187339E1,-4.070802689E0,1.031750560E0,1.100091100E0
1.321853932E1,-2.308534384E0,5.479456782E-1,2.064341068E0
1.323520526E1,-3.048215210E-1,4.200458825E-1,2.068311691E0
1.325187120E1,8.271108866E-1,4.983129501E-1,1.746462345E0
1.326853714E1,7.605266571E-1,9.191987514E-1,1.508301497E0
1.328520308E1,-2.237292230E-1,1.644753456E0,1.528307319E0
1.330186901E1,-1.254639864E0,2.342055559E0,1.684688687E0
1.331853495E1,-1.414151907E0,2.403981924E0,1.865504622E0
1.333520089E1,-4.984656572E-1,1.654756308E0,2.098244190E0
1.335186682E1,1.475238442E0,6.523272395E-1,2.519664526E0
1.336853276E1,3.532478333E0,-7.483857274E-1,3.292026758E0
1.338519870E1,3.767355919E0,-2.153756380E0,3.821417332E0
1.340186464E1,2.944597244E0,-2.118555307E0,3.863108873E0
1.341853058E1,2.290895700E0,-1.252120137E0,3.720930099E0
1.343519651E1,2.319224596E0,-1.037172079E0,3.726504326E0
1.345186245E1,2.637943268E0,-1.289993644E0,3.641441345E0
1.346852839E1,2.742019176E0,-1.081383348E0,3.101665974E0
1.348519432E1,2.922529936E0,-4.364628792E-1,2.628474712E0
1.350186026E1,3.231016636E0,-5.199986324E-2,2.285856009E0
1.351852620E1,3.467344761E0,-1.464548260E-1,2.020893335E0
1.353519214E1,3.449400663E0,-4.918988645E-1,1.880394459E0
1.355185808E1,3.361970663E0,-8.169552684E-1,1.752800107E0
1.356852401E1,3.203069448E0,-8.521563411E-1,1.644371629E0
1.358518995E1,2.765995741E0,-3.901898861E-1,1.630474448E0
1.360185589E1,2.070678949E0,3.798815310E-1,1.731496215E0
1.361852182E1,1.577940106E0,5.910117030E-1,1.804418206E0
1.363518776E1,2.092440844E0,-2.658025324E-1,1.401629210E0
1.365185370E1,3.512166977E0,-9.862411618E-1,2.049451321E-1
1.366851964E1,4.325075150E0,-1.221729559E-3,-1.164002895E0
1.368518558E1,3.953516960E0,1.965839267E0,-2.017533541E0
1.370185151E1,3.209941626E0,3.458716393E0,-2.297920465E0
1.371851745E1,3.105102062E0,3.632812738E0,-2.360534191E0
1.373518339E1,3.739714146E0,2.838612318E0,-2.383823395E0
1.375184932E1,4.700069904E0,2.108552456E0,-2.404287338E0
1.376851526E1,5.456625938E0,2.294255495E0,-2.285168886E0
1.378518120E1,5.617741585E0,2.587775946E0,-1.977827430E0
1.380184714E1,5.275733471E0,1.925522089E0,-1.539837360E0
1.381851308E1,4.610807419E0,-5.772672221E-2,-1.182710528E0
1.383517901E1,3.798662663E0,-1.606956124E0,-1.586950302E0
1.385184495E1,2.218660831E0,-8.902590871E-1,-1.954461813E0
1.386851089E1,5.620719790E-1,1.239215612E0,-1.928729177E0
1.388517682E1,1.652389169E-1,3.209483624E0,-1.578780055E0
1.390184276E1,1.273729444E0,3.522246361E0,-6.490437984E-1
1.391850870E1,2.977736712E0,2.046855211E0,6.835576892E-1
1.393517464E1,4.262003422E0,2.527453005E-2,1.793880820E0
1.395184058E1,4.682049274E0,-1.117500782E0,2.448498726E0
1.396850651E1,4.215501308E0,-1.100472927E0,2.902523994E0
1.398517245E1,3.290117741E0,-4.689914286E-1,3.387550592E0
1.400183839E1,2.380311012E0,2.085339576E-1,3.825387955E0
1.401850432E1,1.598022223E0,2.590830326E-1,3.923049927E0
1.403517026E1,7.729730010E-1,-2.796997130E-1,3.812941551E0
1.405183620E1,-6.795870513E-2,-8.323032856E-1,3.864635944E0
1.406850214E1,-9.850194454E-1,-7.589994669E-1,4.039649010E0
1.408516808E1,-2.071671486E0,2.657261863E-2,4.143419266E0
1.410183401E1,-3.106018305E0,1.202258229E0,4.479471207E0
1.411849995E1,-3.768424749E0,1.447673202E0,5.203040600E0
1.413516589E1,-3.339826822E0,2.456440032E-1,5.491368771E0
1.415183182E1,-1.777005672E0,-7.449495792E-1,3.941986799E0
1.416849776E1,-2.209803313E-1,-4.522690177E-1,1.850920320E0
1.418516370E1,4.402807951E-1,2.057087123E-1,8.927025199E-1
1.420182964E1,4.879282415E-1,5.133554935E-1,4.402044415E-1
1.421849558E1,3.121519089E-1,6.611084342E-1,-3.634645417E-2
1.423516151E1,2.858847082E-1,5.321395993E-1,-4.777726233E-1
1.425182745E1,6.014727354E-1,1.496618688E-1,-9.549343586E-1
1.426849339E1,1.100625634E0,2.069304511E-2,-1.436982989E0
1.428515932E1,1.652389288E0,4.108065665E-1,-2.003025532E0
1.430182526E1,2.088470221E0,1.132925034E0,-2.693989992E0
1.431849120E1,2.194760799E0,1.698509574E0,-3.417864799E0
1.433515714E1,2.190943003E0,1.694538951E0,-4.100506306E0
1.435182308E1,2.276845694E0,1.385975838E0,-4.478249550E0
1.436848901E1,2.373744249E0,1.472795010E0,-4.799411774E0
1.438515495E1,2.390542984E0,2.299218655E0,-5.208080292E0
1.440182089E1,2.264170408E0,3.494146585E0,-5.459527493E0
1.441848682E1,2.033568859E0,3.944430351E0,-5.339034557E0
1.443515276E1,2.171395302E0,3.450698853E0,-5.520155907E0
1.445181870E1,3.223991632E0,3.134728909E0,-6.154157162E0
1.446848464E1,4.336071014E0,3.349066257E0,-6.759905815E0
1.448515058E1,4.658989429E0,3.089677811E0,-6.793274403E0
1.450181651E1,4.148230076E0,2.496604443E0,-6.287554741E0
1.451848245E1,3.339750528E0,2.379471064E0,-5.192732334E0
1.453514839E1,3.160156250E0,2.165591955E0,-3.372966290E0
1.455181432E1,3.871966362E0,1.450422049E0,-1.471496940E0
1.456848026E1,4.503142357E0,7.327322960E-1,-1.713475734E-1
1.458514620E1,4.201986313E0,4.039343297E-1,8.178715706E-1
1.460181214E1,2.860221624E0,4.563159943E-1,1.666286349E0
1.461847808E1,9.304997921E-1,7.409789562E-1,2.546695232E0
1.463514401E1,-8.652899861E-1,1.068707943E0,3.482769251E0
1.465180995E1,-2.001651049E0,9.688315392E-1,4.486038208E0
1.466847589E1,-2.297157049E0,3.827067912E-1,5.368585110E0
1.468514182E1,-1.964464784E0,-2.662606835E-1,5.886522293E0
1.470180776E1,-1.468595266E0,-7.525854111E-1,5.737242222E0
1.471847370E1,-1.211573958E0,-9.076687098E-1,4.772915363E0
1.473513964E1,-1.858097911E0,-7.875574231E-1,3.913352489E0
1.475180558E1,-3.909687281E0,-1.207221523E-1,4.330420494E0
1.476847151E1,-5.960741997E0,-2.054032870E-2,5.826046467E0
1.478513745E1,-5.967461586E0,-1.408348799E0,6.115443707E0
1.480180339E1,-4.876228333E0,-1.186757565E0,4.240394115E0
1.481846932E1,-3.754604101E0,-3.939314187E-1,2.574031353E0
1.483513526E1,-2.628703833E0,-6.343067288E-1,2.302196741E0
1.485180120E1,-1.855043650E0,-8.890373111E-1,2.154596329E0
1.486846714E1,-1.614591956E0,-8.120683432E-1,1.895360708E0
1.488513308E1,-1.809992313E0,-5.597811937E-1,1.608865142E0
1.490179901E1,-2.014021158E0,-1.358410567E-1,1.088713765E0
1.491846495E1,-2.017304659E0,-3.817904799E-4,4.501309991E-1
1.493513089E1,-1.535103202E0,-6.727148592E-2,-3.738492429E-1
1.495179682E1,-9.415717125E-1,4.825831577E-2,-1.046564102E0
1.496846276E1,-5.167915821E-1,5.066359639E-1,-1.680336237E0
1.498512870E1,-3.263545036E-1,9.916626215E-1,-2.423529625E0
1.500179464E1,-2.193768173E-1,1.384754062E0,-3.070358992E0
1.501846058E1,1.882227063E-1,1.869475245E0,-3.486892462E0
1.503512651E1,1.165911794E0,2.395506144E0,-3.613646984E0
1.505179245E1,2.341750145E0,2.966970205E0,-3.411908865E0
1.506845839E1,3.492848396E0,3.203603983E0,-3.117701054E0
1.508512432E1,4.644328594E0,3.010570765E0,-3.253923893E0
1.510179026E1,5.421272278E0,2.666577578E0,-3.776060581E0
1.511845620E1,5.193037987E0,2.501033068E0,-3.896630049E0
1.513512214E1,3.997270107E0,2.022649527E0,-2.897408009E0
1.515178808E1,2.709414482E0,1.451720119E0,-2.007836103E0
1.516845401E1,2.031507254E0,1.699731231E0,-2.353738308E0
1.518511995E1,1.842444539E0,2.289979458E0,-2.563570499E0
1.520178589E1,1.984317899E0,2.419864416E0,-2.072129726E0
1.521845182E1,2.526612997E0,1.643760800E0,-1.211497545E0
1.523511776E1,3.223151684E0,5.296961069E-1,-5.038870573E-1
1.525178370E1,3.434510946E0,-2.738201320E-1,-1.058323234E-1
1.526844964E1,3.139310360E0,-4.396699369E-1,1.013271958E-1
1.528511558E1,2.562883139E0,-1.218675226E-1,1.113301069E-1
1.530178151E1,1.794262528E0,2.612210512E-1,2.756527252E-2
1.531844745E1,1.059697628E0,6.444623470E-1,1.557705179E-2
1.533511339E1,4.558578432E-1,7.301361561E-1,1.909715980E-1
1.535177932E1,-2.173915058E-1,2.406807244E-1,8.098539710E-1
1.536844526E1,-8.349757791E-1,-4.830413163E-1,1.989204764E0
1.538511120E1,-1.248378515E0,-8.547525406E-1,3.388619661E0
1.540177714E1,-1.786321282E0,-3.265072107E-1,4.030409336E0
1.541844308E1,-2.318384647E0,9.485203028E-1,3.143662930E0
1.543510901E1,-3.061272383E0,1.642386317E0,2.131001711E0
1.545177495E1,-4.777344227E0,1.099556610E-1,3.538892269E0
1.546844089E1,-5.146459579E0,-3.213530540E0,5.125231743E0
1.548510682E1,-1.861915827E0,-4.366308689E0,3.868224859E0
1.550177276E1,3.735437989E-1,-2.327394724E0,1.580001712E0
1.551843870E1,-5.525271893E-1,-6.285798550E-1,4.586831033E-1
1.553510464E1,-2.003865480E0,-5.708531141E-1,-3.680460155E-1
1.555177058E1,-3.145342827E0,-1.256548882E0,-5.626828074E-1
1.556843651E1,-3.317682981E0,-2.252411127E0,4.447095692E-1
1.558510245E1,-1.988212109E0,-3.968253851E0,1.901927471E0
1.560176839E1,-1.656970754E-2,-5.426158905E0,2.932303667E0
1.561843432E1,1.244484305E0,-5.577271938E0,2.833267212E0
1.563510026E1,1.247767687E0,-4.586220264E0,1.893757224E0
1.565176620E1,3.970621154E-2,-2.941237450E0,7.627410293E-1
1.566843214E1,-1.576947451E0,-1.007086992E0,-2.189186662E-1
1.568509808E1,-2.434983253E0,6.010909677E-1,-1.015104532E0
1.570176401E1,-2.054338217E0,1.267620802E0,-1.712559462E0
1.571842995E1,-7.486147881E-1,9.664644599E-1,-2.435365200E0
1.573509589E1,6.055197120E-1,1.828012913E-1,-2.955440044E0
1.575176182E1,1.086346626E0,-1.622609496E-1,-3.175275087E0
1.576842776E1,7.971021533E-1,2.381609082E-1,-3.365406752E0
1.578509370E1,5.276344419E-1,1.407050610E0,-3.534921646E0
1.580175964E1,9.770018458E-1,2.467435598E0,-3.198029757E0
1.581842558E1,2.184681416E0,1.733023405E0,-1.749898553E0
1.583509151E1,2.872744322E0,-5.027416945E-1,-3.878227770E-1
1.585175745E1,2.362672329E0,-9.262236953E-1,-1.184772253E0
1.586842339E1,7.826704979E-1,1.610545039E0,-2.425133228E0
1.588508933E1,-1.031597927E-1,4.072024822E0,-2.911152363E0
1.590175526E1,4.875464439E-1,4.489398003E0,-2.895117283E0
1.591842120E1,2.075947523E0,3.747884512E0,-2.370918989E0
1.593508714E1,3.728565931E0,2.665966511E0,-1.391320944E0
1.595175308E1,4.569726467E0,1.539684653E0,-4.473057389E-1
1.596841901E1,4.335001945E0,6.873756051E-1,1.761581302E-1
1.598508495E1,3.356930971E0,8.445205539E-2,4.763218164E-1
1.600175089E1,1.975307584E0,-3.950004280E-1,4.889208972E-1
1.601841683E1,4.954113364E-1,-6.330850124E-1,3.719402850E-1
1.603508276E1,-7.548761368E-1,-5.785652995E-1,2.389244884E-1
1.605174870E1,-1.853821874E0,-4.214966893E-1,3.324631453E-1
1.606841464E1,-2.821584463E0,-5.028944016E-1,7.642682195E-1
1.608508058E1,-3.513846874E0,-8.477275968E-1,1.325958371E0
1.610174651E1,-3.789117813E0,-1.357494235E0,1.786168575E0
1.611841245E1,-3.673893452E0,-1.940411925E0,1.986303210E0
1.613507839E1,-3.690615892E0,-2.186437845E0,1.919489861E0
1.615174432E1,-4.516047001E0,-1.366122723E0,1.574580312E0
1.616841026E1,-5.990980148E0,3.097084463E-1,1.757534385E0
1.618507620E1,-7.154066563E0,1.446069598E0,3.680536747E0
1.620174214E1,-5.340179920E0,-1.108719558E-1,4.876228333E0
1.621840808E1,-6.759982109E-1,-1.384601355E0,3.339826822E0
1.623507401E1,1.760894060E0,-4.569268525E-1,1.109177709E0
1.625173995E1,1.040150046E0,9.807434082E-1,1.534034163E-1
1.626840589E1,-1.618791670E-1,2.245462656E0,-1.837939471E-1
1.628507182E1,-2.752709389E-1,2.438953876E0,-4.861720204E-1
1.630173776E1,7.172316313E-1,2.222860575E0,-4.469239414E-1
1.631840370E1,2.147571564E0,1.476612926E0,-6.688969582E-2
1.633506964E1,3.349142551E0,5.771145225E-1,1.520289779E-1
1.635173558E1,4.139296055E0,-1.036179364E-1,7.422006875E-2
1.636840151E1,4.394408703E0,-2.564104795E-1,1.023198478E-2
1.638506745E1,4.276129723E0,6.207913160E-2,-8.177952468E-2
1.640173339E1,4.058890820E0,2.664133906E-1,-3.272708058E-1
1.641839932E1,3.896477461E0,2.189186662E-1,-8.054252267E-1
1.643506526E1,3.960160017E0,3.603338599E-1,-1.505018115E0
1.645173120E1,4.266432285E0,8.018363714E-1,-2.061057806E0
1.646839714E1,4.615770817E0,1.405981660E0,-1.790750146E0
1.648506308E1,4.193663120E0,4.248564541E-1,-1.782961637E-1
1.650172901E1,3.013472319E0,-3.333947182E0,1.051450968E0
1.651839495E1,1.490891814E0,-7.091605663E0,1.096044183E0
1.653506089E1,5.383246019E-2,-5.950281143E0,5.115228891E-1
1.655172682E1,-1.342986226E0,-1.927049279E0,-1.852447391E-1
1.656839276E1,-2.115272045E0,1.396895051E0,-8.850666881E-1
1.658505870E1,-1.833357930E0,3.000262260E0,-1.188742876E0
1.660172464E1,-6.062833071E-1,3.206581831E0,-1.059010506E0
1.661839058E1,1.091920853E0,2.257679939E0,-5.442805290E-1
1.663505651E1,2.651382208E0,8.459713459E-1,-7.170025259E-2
1.665172245E1,3.700237036E0,-1.963930279E-1,6.108647678E-3
1.666838839E1,4.115319729E0,-5.203040838E-1,-1.973856837E-1
1.668505432E1,3.948629856E0,-1.331685185E-1,-4.893790483E-1
1.670172026E1,3.270875454E0,7.347176075E-1,-6.844739914E-1
1.671838620E1,2.172311544E0,2.032270670E0,-7.634282708E-1
1.673505214E1,8.003092408E-1,3.480707407E0,-4.703658819E-1
1.675171808E1,-6.122392416E-1,4.839347363E0,5.291616321E-1
1.676838401E1,-1.529758096E0,6.199895859E0,2.091753721E0
1.678504995E1,-1.376736522E0,7.056252003E0,3.525835037E0
1.680171589E1,1.543197185E-1,6.471272469E0,4.103255272E0
1.681838182E1,3.055392981E0,4.480005741E0,3.765523195E0
1.683504776E1,5.677224636E0,2.605032921E0,3.594480991E0
1.685171370E1,6.792358398E0,2.320446253E0,3.643197536E0
1.686837964E1,6.594361782E0,3.018893719E0,3.519726515E0
1.688504558E1,5.574141026E0,3.350822449E0,3.457341909E0
1.690171151E1,4.256352901E0,2.510883331E0,3.628765821E0
1.691837745E1,3.058905363E0,4.901426136E-1,3.949240685E0
1.693504339E1,2.374965906E0,-1.372384071E0,4.101880550E0
1.695170932E1,2.152763844E0,-2.159406900E0,3.968788385E0
1.696837526E1,2.162537575E0,-1.866344571E0,3.733758211E0
1.698504120E1,2.438037634E0,-1.051756382E0,3.291873932E0
1.700170714E1,3.167410135E0,-5.773435831E-1,2.253938437E0
1.701837308E1,3.995742798E0,-7.147117853E-1,8.367320299E-1
1.703503901E1,3.880136728E0,-1.158886790E0,4.948004708E-2
1.705170495E1,2.837237835E0,-1.338404775E0,7.551816106E-2
1.706837089E1,1.616348147E0,-1.224478483E0,5.100721121E-1
1.708503682E1,8.927025199E-1,-9.328668714E-1,9.401972294E-1
1.710170276E1,8.428406715E-1,-7.176133990E-1,1.190117359E0
1.711836870E1,1.062141180E0,-6.600393653E-1,1.311908484E0
1.713503464E1,1.184848547E0,-7.217367291E-1,1.412777543E0
1.715170058E1,1.221653223E0,-9.868520498E-1,1.374140263E0
1.716836651E1,1.224631190E0,-1.344131589E0,1.334586859E0
1.718503245E1,9.666171670E-1,-1.546709657E0,1.489975572E0
1.720169839E1,3.724747896E-1,-1.550680280E0,1.766620994E0
1.721836432E1,-7.015018463E-1,-1.124220252E0,1.970955253E0
1.723503026E1,-2.024940491E0,-3.578903973E-1,2.250807524E0
1.725169620E1,-2.732550859E0,3.014617562E-1,2.543640852E0
1.726836214E1,-2.177962065E0,6.462949514E-1,2.453843832E0
1.728502808E1,-6.040689349E-1,8.103885055E-1,1.750432968E0
1.730169401E1,1.358945012E0,6.058251262E-1,6.457604170E-1
1.731835995E1,3.000567913E0,-4.749473557E-2,-2.761872411E-1
1.733502589E1,3.950309753E0,-6.559160352E-1,-6.956222653E-1
1.735169182E1,4.146015644E0,-8.739184141E-1,-7.099775672E-1
1.736835776E1,3.795379162E0,-6.284271479E-1,-6.075813770E-1
1.738502370E1,3.208567142E0,-3.741546720E-2,-6.499601007E-1
1.740168964E1,2.606636286E0,5.845975876E-1,-9.272163510E-1
1.741835558E1,2.114279270E0,9.908990264E-1,-1.340160966E0
1.743502151E1,1.749058604E0,1.139033794E0,-1.707214355E0
1.745168745E1,1.565264583E0,1.084972262E0,-1.898414969E0
1.746835339E1,1.507996082E0,1.014493704E0,-1.897575021E0
1.748501932E1,1.519984245E0,1.160795808E0,-1.944764376E0
1.750168526E1,1.669875264E0,1.397124052E0,-2.185063362E0
1.751835120E1,1.871995091E0,1.481347084E0,-2.535088778E0
1.753501714E1,1.983783364E0,1.529758096E0,-2.830060244E0
1.755168308E1,1.963243008E0,1.806479812E0,-3.034089088E0
1.756834901E1,1.664224744E0,2.546542645E0,-3.010723352E0
1.758501495E1,1.187215686E0,3.600513458E0,-2.758970737E0
1.760168089E1,1.208672285E0,3.712988853E0,-1.960646868E0
1.761834682E1,2.336023331E0,1.675678492E0,-5.679515004E-1
1.763501276E1,4.219319344E0,-1.158963203E0,-1.421787739E-1
1.765167870E1,5.195099354E0,-2.572504282E0,-1.158657789E0
1.766834464E1,4.307818413E0,-1.454239964E0,-2.115577459E0
1.768501058E1,2.311435938E0,1.198364019E0,-2.482325315E0
1.770167651E1,6.287325621E-1,3.198258877E0,-2.504851103E0
1.771834245E1,3.520108387E-2,3.377394915E0,-2.189491987E0
1.773500839E1,6.511818767E-1,1.924529433E0,-1.721340537E0
1.775167432E1,1.752876520E0,4.902189970E-2,-1.219896913E0
1.776834026E1,2.538830280E0,-8.902590871E-1,-8.021417856E-1
1.778500620E1,2.826547623E0,-8.310051560E-1,-4.305069447E-1
1.780167214E1,2.800509691E0,-4.043924809E-1,6.704241037E-2
1.781833808E1,2.667875528E0,-1.656207144E-1,6.950113773E-1
1.783500401E1,2.390772104E0,-2.811505198E-1,1.276020169E0
1.785166995E1,1.890397429E0,-5.770381689E-1,1.618867993E0
1.786833589E1,1.143386126E0,-8.881973624E-1,1.678503752E0
1.788500182E1,3.633881807E-1,-1.040531754E0,1.639866471E0
1.790166776E1,-2.576322258E-1,-8.494074941E-1,1.683619738E0
1.791833370E1,-6.503419280E-1,-4.424188137E-1,1.824653149E0
1.793499964E1,-6.771436334E-1,-7.864884287E-2,2.001345634E0
1.795166558E1,-5.253437161E-1,1.496618688E-1,2.097709656E0
1.796833151E1,-6.201804876E-1,-3.245219216E-2,2.012417555E0
1.798499745E1,-1.499291301E0,-8.323032856E-1,2.310825109E0
1.800166339E1,-2.988884926E0,-1.704541802E0,3.272860765E0
1.801832932E1,-4.246426582E0,-1.602756500E0,4.168083191E0
1.803499526E1,-4.997637272E0,1.295796931E-1,4.203742504E0
1.805166120E1,-5.051088333E0,2.078772783E0,3.347615242E0
1.806832714E1,-3.934961796E0,2.341826439E0,2.050215006E0
1.808499308E1,-1.884288788E0,1.111239433E0,9.747111201E-1
1.810165901E1,-2.120464295E-1,-2.146426141E-1,4.059959948E-1
1.811832495E1,4.624246359E-1,-9.453896284E-1,3.184132576E-1
1.813499089E1,2.820668221E-1,-1.039004683E0,4.563159943E-1
1.815165682E1,-3.633118272E-1,-7.848848701E-1,4.889208972E-1
1.816832276E1,-1.095585942E0,-3.975202441E-1,3.329976499E-1
1.818498870E1,-1.596571445E0,-5.581776798E-2,1.049923822E-1
1.820165464E1,-1.688812017E0,2.295324355E-1,-1.453094631E-1
1.821832058E1,-1.402392864E0,5.581777096E-1,-6.714931130E-1
1.823498651E1,-8.574250937E-1,9.303470850E-1,-1.415144563E0
1.825165245E1,-2.953531146E-1,1.089019179E0,-1.912388563E0
1.826831839E1,3.122282624E-1,9.411135316E-1,-2.079383612E0
1.828498432E1,1.029841661E0,5.891027451E-1,-2.136499643E0
1.830165026E1,1.788077593E0,4.424951673E-1,-2.205145597E0
1.831831620E1,2.339993954E0,6.743947268E-1,-2.320751667E0
1.833498214E1,2.342895508E0,9.514982700E-1,-1.951254845E0
1.835164808E1,2.145280838E0,5.161807537E-1,-9.080504775E-1
1.836831401E1,3.028362036E0,-7.435751557E-1,-6.672934294E-1
1.838497995E1,4.356611252E0,-1.742186308E0,-1.808541536E0
1.840164589E1,4.056829453E0,-1.210810304E0,-2.899622440E0
1.841831182E1,2.233016253E0,7.894663811E-1,-3.307451010E0
1.843497776E1,3.207803667E-1,3.067381144E0,-3.220631838E0
1.845164370E1,-4.873937368E-1,4.282543659E0,-2.690095663E0
1.846830964E1,5.551233515E-2,3.970315695E0,-1.833739758E0
1.848497558E1,1.352378249E0,2.499735117E0,-9.516509771E-1
1.850164151E1,2.583729029E0,7.738893032E-1,-3.024544120E-1
1.851830745E1,3.180849314E0,-3.168860972E-1,1.252272725E-1
1.853497339E1,3.093648434E0,-6.217839718E-1,4.415788651E-1
1.855163932E1,2.613890409E0,-3.988946974E-1,7.184533477E-1
1.856830526E1,2.027612925E0,7.567087561E-2,9.245438576E-1
1.858497120E1,1.514104724E0,4.776198864E-1,1.022205830E0
1.860163714E1,9.317215085E-1,6.904299259E-1,1.011897564E0
1.861830308E1,2.360992432E-1,5.046506524E-1,9.802088737E-1
1.863496901E1,-5.791761875E-1,-5.207622424E-2,1.067180753E0
1.865163495E1,-1.331914306E0,-6.401863098E-1,1.281136155E0
1.866830089E1,-1.679190874E0,-9.634864926E-1,1.660483241E0
1.868496682E1,-1.716377258E0,-1.011592031E0,2.130390882E0
1.870163276E1,-2.004705429E0,-8.048143387E-1,2.513403177E0
1.871829870E1,-2.911916018E0,-6.300306916E-1,2.830365658E0
1.873496464E1,-4.140594006E0,-1.345047832E0,3.873035431E0
1.875163058E1,-4.908604145E0,-2.224540472E0,5.200062752E0
1.876829651E1,-4.898983002E0,-1.043204308E0,4.871875763E0
1.878496245E1,-4.448622704E0,1.830456257E0,2.713613987E0
1.880162839E1,-3.269424677E0,2.981936455E0,6.017781496E-1
1.881829432E1,-1.550909281E0,1.493411660E0,-2.753472924E-1
1.883496026E1,-2.148716897E-1,-5.373319387E-1,-1.839466542E-1
1.885162620E1,2.595411837E-1,-1.612148523E0,2.317468226E-1
1.886829214E1,8.743002266E-2,-1.683085203E0,4.499019086E-1
1.888495808E1,-4.674642682E-1,-1.165988207E0,4.963276386E-1
1.890162401E1,-1.155145288E0,-4.021781087E-1,5.183951259E-1
1.891828995E1,-1.751120210E0,2.805396616E-1,6.282744408E-1
1.893495589E1,-1.946749687E0,6.746237874E-1,6.427824497E-1
1.895162182E1,-1.501734734E0,8.329904675E-1,6.498073786E-2
1.896828776E1,-6.996692419E-1,7.935133576E-1,-1.007392406E0
1.898495370E1,4.123337194E-2,6.904299259E-1,-1.859090567E0
1.900161964E1,7.113520503E-1,8.134428263E-1,-2.138790369E0
1.901828558E1,1.517922640E0,1.141400814E0,-2.082590818E0
1.903495151E1,2.433074474E0,1.568395376E0,-2.008446932E0
1.905161745E1,3.229947567E0,1.812054038E0,-2.047924280E0
1.906828339E1,3.698022604E0,1.580841660E0,-2.012188673E0
1.908494932E1,3.644572020E0,4.674642682E-1,-1.646891475E0
1.910161526E1,3.359374523E0,-1.114293694E0,-1.116813540E0
1.911828120E1,3.235979795E0,-1.971642375E0,-1.129259944E0
1.913494714E1,2.574031353E0,-1.053436279E0,-1.932547092E0
1.915161308E1,1.126892805E0,1.204014540E0,-2.891070366E0
1.916827901E1,-8.979712427E-2,3.235674381E0,-3.365025043E0
1.918494495E1,-4.428769648E-1,4.219624996E0,-3.203298569E0
1.920161089E1,1.170569658E-1,4.043237686E0,-2.453920126E0
1.921827682E1,1.301752806E0,2.831129074E0,-1.505323529E0
1.923494276E1,2.509585142E0,1.256548882E0,-7.663298845E-1
1.925160870E1,3.195204496E0,9.926552325E-2,-3.562868834E-1
1.926827464E1,3.264843225E0,-5.677987933E-1,-2.346484363E-1
1.928494058E1,2.875951290E0,-7.606793642E-1,-3.477347791E-1
1.930160651E1,2.317086458E0,-3.999637067E-1,-5.260309577E-1
1.931827245E1,1.853974581E0,2.620609999E-1,-7.101303339E-1
1.933493839E1,1.577787399E0,7.853430510E-1,-9.452368617E-1
1.935160432E1,1.385365009E0,1.029307127E0,-1.149418473E0
1.936827026E1,9.851721525E-1,7.149408460E-1,-9.451605082E-1
1.938493620E1,1.324812919E-1,-8.895718306E-2,-1.349247545E-1
1.940160214E1,-7.957277298E-1,-8.602503538E-1,7.544943690E-1
1.941826808E1,-1.591150045E0,-1.207145214E0,1.141629934E0
1.943493401E1,-2.856785536E0,-1.096884012E0,1.502040148E0
1.945159995E1,-4.721450329E0,-1.021976829E0,3.106705666E0
1.946826589E1,-6.001975536E0,-1.679649115E0,4.596986771E0
1.948493182E1,-5.007946014E0,-2.351905823E0,2.973384380E0
1.950159776E1,-3.142593861E0,-1.527543783E0,-1.847102344E-1
1.951826370E1,-2.158566952E0,-4.489856064E-1,-1.663308382E0
1.953492964E1,-1.653687358E0,-2.684750557E-1,-1.726227522E0
1.955159558E1,-1.465464592E0,-1.129183531E0,-1.223714828E0
1.956826151E1,-1.505247116E0,-1.828089237E0,-6.105593443E-1
1.958492745E1,-1.608788729E0,-2.176587582E0,-8.132137358E-2
1.960159339E1,-1.736688614E0,-2.159330606E0,3.508654535E-1
1.961825932E1,-1.822591424E0,-1.831983447E0,7.806851864E-1
1.963492526E1,-1.849622250E0,-1.380707145E0,1.167820692E0
1.965159120E1,-1.713704824E0,-1.005636096E0,1.050687432E0
1.966825714E1,-1.233565092E0,-9.031635523E-1,3.830885887E-1
1.968492308E1,-7.398335934E-1,-9.850957990E-1,-2.328922004E-1
1.970158901E1,-4.607447684E-1,-9.180533886E-1,-5.635227561E-1
1.971825495E1,-1.447749585E-1,-4.076758921E-1,-7.932842970E-1
1.973492089E1,3.270417452E-1,4.786889255E-1,-9.498183727E-1
1.975158682E1,9.389755130E-1,1.537012100E0,-9.188169837E-1
1.976825276E1,1.691179156E0,2.301967621E0,-8.301652074E-1
1.978491870E1,2.301433086E0,2.857625484E0,-9.692133069E-1
1.980158464E1,2.463694096E0,3.437107086E0,-1.096960425E0
1.981825058E1,1.935219646E0,3.083874464E0,-2.665661275E-1
1.983491651E1,1.323133111E0,9.525672793E-1,1.454239964E0
1.985158245E1,1.596800566E0,-2.201556683E0,2.412305117E0
1.986824839E1,3.252625942E0,-3.591426849E0,1.286710262E0
1.988491432E1,3.919919252E0,-1.211268544E0,-9.057597518E-1
1.990158026E1,2.916726589E0,2.354120255E0,-2.486448765E0
1.991824620E1,1.520671487E0,4.679682255E0,-3.207269192E0
1.993491214E1,7.296779752E-1,5.463574409E0,-3.086012602E0
1.995157808E1,9.130137563E-1,4.831634998E0,-2.320140839E0
1.996824401E1,1.822133303E0,3.390681267E0,-1.331379771E0
1.998490995E1,2.850982189E0,1.801974773E0,-4.876227975E-1
2.000157589E1,3.497735262E0,5.629118681E-1,1.153007243E-2
2.001824182E1,3.691074133E0,-2.288452238E-1,1.569922417E-1
2.003490776E1,3.609981775E0,-6.741656661E-1,5.803215317E-3
2.005157370E1,3.286452532E0,-7.717512846E-1,-3.394117355E-1
2.006823964E1,2.705061913E0,-5.756636858E-1,-6.875283122E-1
2.008490558E1,1.794109821E0,-2.193768173E-1,-8.472694755E-1
2.010157151E1,6.739365458E-1,-1.191186346E-2,-7.755692005E-1
2.011823745E1,-4.685332775E-1,5.467239767E-2,-6.200277805E-1
2.013490339E1,-1.197142243E0,-3.161225095E-2,-5.010618567E-1
2.015156932E1,-1.554421782E0,-2.196822464E-1,-4.119519293E-1
2.016823526E1,-1.791971803E0,-4.013381600E-1,-3.166570365E-1
2.018490120E1,-2.718653679E0,-4.042397738E-1,2.023489587E-2
2.020156714E1,-4.961138248E0,-2.392299175E-1,1.281976104E0
2.021823308E1,-7.535933495E0,-1.391244531E0,3.715126991E0
2.023489901E1,-7.725224972E0,-3.504378557E0,4.778108120E0
2.025156495E1,-3.881816626E0,-3.974438906E0,2.529209375E0
2.026823089E1,-6.854666471E-1,-1.968206286E0,-4.932733253E-2
2.028489682E1,-3.350593448E-1,-2.228129357E-1,-1.182405114E0
2.030156276E1,-9.563851953E-1,6.714931130E-1,-1.585804939E0
2.031822870E1,-1.739513874E0,5.623010397E-1,-1.681558013E0
2.033489464E1,-2.246302605E0,1.790597439E-1,-1.412243009E0
2.035156058E1,-2.316628218E0,-2.298378795E-1,-1.062217474E0
2.036822651E1,-2.058537960E0,-5.354993343E-1,-7.977893949E-1
2.038489245E1,-1.735772252E0,-6.362156868E-1,-5.616901517E-1
2.040155839E1,-1.485775828E0,-5.795579553E-1,-2.498437017E-1
2.041822432E1,-1.359784961E0,-4.069886506E-1,1.508836001E-1
2.043489026E1,-1.365740895E0,-9.689842910E-2,5.774962902E-1
2.045155620E1,-1.394146085E0,2.740492225E-1,9.268345833E-1
2.046822214E1,-1.376201987E0,5.161807537E-1,1.221347809E0
2.048488808E1,-1.331990600E0,6.801979542E-1,1.383379698E0
2.050155401E1,-1.137430191E0,8.636100888E-1,1.124754786E0
2.051821995E1,-7.260127664E-1,1.109254122E0,6.959276795E-1
2.053488589E1,-1.473711282E-1,1.449887514E0,4.105011225E-1
2.055155182E1,6.776781082E-1,2.028911114E0,7.841976732E-2
2.056821776E1,1.514791965E0,2.917108297E0,-1.957058012E-1
2.058488370E1,1.958127022E0,3.927325964E0,-1.449276656E-1
2.060154964E1,1.798156857E0,4.624093533E0,3.903425932E-1
2.061821558E1,7.202095985E-1,3.549658775E0,8.964440823E-1
2.063488151E1,-2.685514390E-1,8.423825502E-1,-5.574141163E-3
2.065154745E1,-5.418370366E-1,-1.792735457E0,-1.597411394E0
2.066821339E1,-6.482802629E-1,-2.104887247E0,-2.610683441E0
2.068487932E1,-7.827468514E-1,-1.527161989E-2,-2.503629208E0
2.070154526E1,-9.740238786E-1,2.712926865E0,-1.822820544E0
2.071821120E1,-9.980766773E-1,4.683118343E0,-1.220431447E0
2.073487714E1,-7.434224486E-1,5.406840324E0,-7.656426430E-1
2.075154308E1,-1.785252392E-1,4.908909321E0,-3.000873327E-1
2.076820901E1,7.705295682E-1,3.787209034E0,4.402807951E-1
2.078487495E1,1.940870166E0,2.544633627E0,1.375362039E0
2.080154089E1,2.693455458E0,1.754021883E0,1.910555959E0
2.081820682E1,2.842812061E0,1.532048821E0,1.909486890E0
2.083487276E1,2.570671797E0,1.661323071E0,1.670715213E0
2.085153870E1,2.119700670E0,1.618257165E0,1.546404243E0
2.086820464E1,1.557857871E0,1.690110087E0,1.596266031E0
2.088487058E1,1.083292365E0,1.618180752E0,1.710039616E0
2.090153651E1,8.273400068E-1,1.380401731E0,1.756541729E0
2.091820245E1,6.780598760E-1,1.169882417E0,1.671478748E0
2.093486839E1,4.267654121E-1,9.918916821E-1,1.426216602E0
2.095153432E1,-2.037234008E-1,7.881683111E-1,9.968549609E-1
2.096820026E1,-1.252501845E0,1.058704972E0,5.794052482E-1
2.098486620E1,-2.266155720E0,1.369100690E0,2.970330119E-1
2.100153214E1,-2.762941360E0,1.245018721E0,-1.313359290E-2
2.101819808E1,-3.096702576E0,5.279398561E-1,-5.100721121E-1
2.103486401E1,-3.861963511E0,-6.191878319E-1,-1.233259678E0
2.105152995E1,-4.464123249E0,-1.507079720E0,-1.815490127E0
2.106819589E1,-3.803702354E0,-1.372307777E0,-1.686444998E0
2.108486182E1,-2.160781384E0,-4.432587624E-1,-1.197218657E0
2.110152776E1,-5.377900600E-1,5.457313061E-1,-4.265363216E-1
2.111819370E1,1.305723470E-2,7.459422350E-1,3.191004992E-1
2.113485964E1,-3.255145550E-1,3.918697536E-1,4.718166888E-1
2.115152558E1,-6.353757381E-1,-5.039634556E-2,1.259144992E-1
2.116819151E1,-7.680860758E-1,-6.238456368E-1,-2.816086709E-1
2.118485745E1,-7.142536640E-1,-1.134986758E0,-4.931969643E-1
2.120152339E1,-4.470766485E-1,-1.373758554E0,-5.111411214E-1
2.121818932E1,-8.261945844E-2,-1.270369649E0,-4.012618065E-1
2.123485526E1,1.295796931E-1,-7.992402315E-1,-3.492619395E-1
2.125152120E1,1.315650046E-1,-2.753472924E-1,-3.425424397E-1
2.126818714E1,-2.153298259E-2,1.568395346E-1,-3.644571900E-1
2.128485308E1,-2.115119249E-1,4.107302129E-1,-4.178315103E-1
2.130151901E1,-3.413970470E-1,4.551706314E-1,-4.551706314E-1
2.131818495E1,-4.314996004E-1,3.349066079E-1,-4.196641147E-1
2.133485089E1,-5.134318471E-1,1.581376195E-1,-3.701077104E-1
2.135151682E1,-6.172025204E-1,-5.459604040E-2,-3.346775472E-1
2.136818276E1,-8.036689758E-1,-2.577849329E-1,-3.549887836E-1
2.138484870E1,-9.233984947E-1,-3.773617148E-1,-4.718166888E-1
2.140151464E1,-8.702532649E-1,-3.984365463E-1,-6.517163515E-1
2.141818058E1,-6.756164432E-1,-3.120755553E-1,-7.870228887E-1
2.143484651E1,-4.995346665E-1,-1.339320987E-1,-7.673988938E-1
2.145151245E1,-3.243691921E-1,6.139190868E-2,-5.555815101E-1
2.146817839E1,-1.608865112E-1,1.548542231E-1,-3.323104382E-1
2.148484432E1,-1.679878086E-1,9.575305134E-2,-2.314413935E-1
2.150151026E1,-1.637881249E-1,6.108647678E-3,-2.487746775E-1
2.151817620E1,-1.863901168E-1,1.664606482E-2,-4.099666178E-1
2.153484214E1,-3.116937578E-1,7.544180006E-2,-5.362629294E-1
2.155150808E1,-4.938841760E-1,5.054906011E-2,-5.031235218E-1
2.156817401E1,-6.456077099E-1,-1.601229310E-1,-3.494910002E-1
2.158483995E1,-6.537780166E-1,-4.505127668E-1,-1.802051067E-1
2.160150589E1,-4.342485070E-1,-6.784417033E-1,-7.803797722E-2
2.161817182E1,-4.978547990E-2,-6.539307237E-1,-9.773836471E-3
2.163483776E1,3.122282624E-1,-3.966803253E-1,2.328922041E-2
2.165150370E1,4.647917449E-1,-2.878700197E-2,5.245801434E-2
2.166816964E1,3.899607956E-1,3.002400398E-1,1.260672212E-1
2.168483558E1,2.172387838E-1,5.246564746E-1,1.689804643E-1
2.170150151E1,1.229365394E-1,5.871174335E-1,1.532506943E-1
2.171816745E1,1.356119812E-1,4.574613571E-1,1.110246703E-1
2.173483339E1,2.138026655E-1,2.676351368E-1,9.521854669E-2
2.175149932E1,2.499964088E-1,4.657844082E-3,7.185296714E-2
2.176816526E1,2.534325123E-1,-3.152825832E-1,3.894263133E-2
2.178483120E1,2.440404743E-1,-5.698604584E-1,-1.649334840E-2
2.180149714E1,1.779143661E-1,-6.291907430E-1,-5.054906011E-2
2.181816308E1,6.421715766E-2,-5.424479246E-1,-6.436987966E-2
2.183482901E1,-3.993528336E-2,-3.620901108E-1,-7.101303339E-2
2.185149495E1,-1.697440445E-1,-1.392771751E-1,-6.765327603E-2
2.186816089E1,-2.867246568E-1,1.036179364E-1,-6.162098423E-2
2.188482682E1,-2.746600807E-1,3.377318680E-1,-4.909825698E-2
2.190149276E1,-2.326631248E-1,4.397462904E-1,-1.504254527E-2
2.191815870E1,-2.253327519E-1,4.386008978E-1,3.008509055E-2
2.193482464E1,-2.671006322E-1,3.857611120E-1,4.520399496E-2
2.195149058E1,-3.189477623E-1,2.363283187E-1,1.985310577E-2
2.196815651E1,-3.439932168E-1,1.412624773E-2,-1.404988952E-2
2.198482245E1,-4.492910504E-1,-1.257617921E-1,-4.864010960E-2
2.200148839E1,-3.519344628E-1,-2.740492225E-1,-1.397353224E-2
2.201815432E1,-2.428951114E-1,-3.775144219E-1,-9.239329956E-3
2.203482026E1,-5.681042373E-2,-3.859901726E-1,-5.841394514E-2
2.205148620E1,1.110246703E-1,-3.584249020E-1,-1.466075480E-1
