"Time (s)","Linear Acceleration x (m/s^2)","Linear Acceleration y (m/s^2)","Linear Acceleration z (m/s^2)"
7.466995000E-2,0.000000000E0,0.000000000E0,0.000000000E0
9.133588800E-2,-2.176604271E-1,2.466821671E-2,-8.271503448E-2
1.080018250E-1,-9.181690216E-2,3.123760223E-2,2.036623955E-1
1.246677630E-1,1.798176765E-1,-7.355165482E-2,3.890914917E-1
1.413337000E-1,3.962945938E-1,-2.203593254E-1,3.754076958E-1
1.579996380E-1,3.320174217E-1,-2.167718410E-1,8.193111420E-1
1.746655750E-1,-8.145332336E-3,-1.082220078E-1,4.831390381E-1
1.913315130E-1,-2.851581573E-1,-2.960777283E-2,1.508998871E-1
2.079974500E-1,-2.829074860E-1,1.476507187E-1,2.799425125E-1
2.246633880E-1,1.360917091E-1,-1.735687256E-2,4.942312241E-1
2.413293250E-1,1.488394737E-1,-9.383106232E-2,3.659539223E-1
2.579952630E-1,-7.997655869E-2,-1.728248596E-2,1.097798347E-1
2.746612000E-1,-2.451772690E-1,-1.014466286E-1,-8.088111877E-3
2.913271380E-1,-7.572603226E-2,-1.089057922E-1,1.244640350E-2
3.079930750E-1,-1.748085022E-3,-4.404783249E-2,1.238493919E-1
3.246590130E-1,4.179430008E-2,-9.689712524E-2,1.572289467E-1
3.413249500E-1,7.772970200E-2,-2.414035797E-2,2.034783363E-1
3.579908880E-1,1.987504959E-2,-1.266765594E-2,1.317815781E-1
3.746568250E-1,-1.278214455E-1,2.298593521E-2,9.379768372E-2
3.913227630E-1,2.513504028E-2,-8.915376663E-2,-1.906476021E-1
4.079887000E-1,1.226730347E-1,4.445409775E-2,-4.247364998E-1
4.246546380E-1,-6.720018387E-2,1.509952545E-1,-4.708428383E-1
4.413205750E-1,-2.085223198E-1,1.458849907E-1,-5.699539185E-1
4.579865130E-1,-1.704382896E-1,1.296439171E-1,-6.743884087E-1
4.746524500E-1,-7.518482208E-2,1.482858658E-1,-7.567868233E-1
4.913183880E-1,-3.333258629E-2,8.955812454E-2,-6.356945038E-1
5.079843250E-1,-1.592645645E-1,-1.006126404E-1,-5.653204918E-1
5.246502630E-1,-4.291074276E-1,-2.989981174E-1,-6.465115547E-1
5.413162000E-1,-1.138744354E-1,-8.240604401E-2,-7.812457085E-1
5.579821380E-1,9.374911785E-1,2.328000069E-1,-2.090236187E0
5.746480750E-1,-7.375354767E-1,3.640763760E-1,-3.496357918E0
5.913140130E-1,5.723831654E-1,4.553365707E-1,-3.091729641E0
6.079799500E-1,6.487045288E-1,-2.396543026E-1,-1.340200424E0
6.246458880E-1,8.477874994E-1,-8.212392330E-1,3.027677536E-1
6.413118250E-1,1.145596504E0,-6.144355536E-1,1.467017174E0
6.579777630E-1,1.274785399E0,-6.416169405E-1,5.406408310E-1
6.746437000E-1,8.915668726E-1,-3.115202785E-1,1.538571358E0
6.913096380E-1,2.261859328E-1,-3.861588240E-2,3.294086456E0
7.079755750E-1,-1.425946653E-1,1.026502550E-1,2.838296890E0
7.246415130E-1,1.407839298E0,8.387702703E-1,7.381744385E-1
7.413074500E-1,1.927272320E0,5.927343369E-1,1.690610886E0
7.579733880E-1,2.318434238E0,-3.084695041E-1,7.839307785E-1
7.746393250E-1,2.375674248E0,-2.076713800E0,1.636095047E-1
7.913052630E-1,2.443475723E0,-2.666753054E0,6.757736206E-3
8.079712000E-1,1.222981215E-1,-1.207889795E0,5.432720184E-1
8.246371380E-1,-1.726994514E0,6.255368590E-1,1.569830894E0
8.413030750E-1,-2.336461782E0,2.787218690E-1,2.721946716E0
8.579690130E-1,-1.563960433E0,-5.195787549E-1,1.661101341E0
8.746349500E-1,-3.665578067E-1,-1.136093855E0,9.058952332E-3
8.913008880E-1,2.500675321E-1,-8.285211325E-1,-3.532133102E-1
9.079668250E-1,-1.328135133E-1,9.246311188E-1,-2.450551987E-1
9.246327630E-1,-3.535514176E-1,8.992283344E-1,-1.110839844E-1
9.412987000E-1,-4.302674532E-1,-3.563795090E-1,-1.112556458E-2
9.579646380E-1,-9.277250767E-1,-4.087897539E-1,2.641162872E-1
9.746305750E-1,-9.195257425E-1,1.153056622E-1,1.006955147E0
9.912965130E-1,-2.084631920E-1,1.736629009E-2,1.258547783E0
1.007962450E0,1.382182837E-1,-9.718465805E-2,1.200962067E-2
1.024628388E0,-8.018672466E-3,-1.050791740E-1,-1.319615364E0
1.041294325E0,-6.927928925E-1,5.622704029E-1,-1.554646492E0
1.057960263E0,-3.138163686E-1,3.548130989E-1,-9.855937958E-1
1.074626200E0,5.893182755E-2,-1.125071049E-1,-1.936712265E-1
1.091292138E0,3.658190966E-1,2.213692665E-2,3.779315948E-1
1.107958075E0,-6.278292537E-1,-8.610507250E-1,-4.817295074E-2
1.124624013E0,-2.571650147E-1,-6.609876156E-1,-2.827892303E-1
1.141289950E0,7.084107399E-2,4.383180141E-1,9.177465439E-1
1.157955888E0,8.382940292E-2,3.508367538E-1,1.275174141E0
1.174621825E0,3.249621391E-2,2.045331001E-1,6.990556717E-1
1.191287763E0,3.870948553E-1,-2.361388206E-1,4.514217377E-1
1.207953700E0,-1.129873991E-1,6.972765923E-2,2.622604370E-3
1.224619638E0,-7.495927811E-2,-5.981943607E-1,-1.025655746E0
1.241285575E0,-4.096235037E-1,-4.167366028E-2,-2.650861740E-1
1.257951513E0,-2.909643650E-1,2.130882740E-1,7.714195251E-1
1.274617450E0,6.521630287E-2,1.436080933E-1,1.247527122E0
1.291283388E0,1.114854813E-1,-8.650445938E-2,5.438070297E-1
1.307949325E0,-1.060788631E-1,-2.355289459E-2,-1.163691998E0
1.324615263E0,-8.471972942E-1,-1.498351097E-1,-1.321105480E0
1.341281200E0,4.646706581E-2,-1.221795082E0,1.915720940E0
1.357947138E0,-8.223236799E-1,-1.126622677E0,3.179370880E0
1.374613075E0,-6.920791864E-1,-2.002132893E0,1.334991455E-1
1.391279013E0,-1.015925884E0,7.742271423E-1,1.191920280E0
1.407944950E0,-6.581678391E-1,1.284340620E0,8.488082886E-1
1.424610888E0,-4.669477940E-1,8.786897659E-1,-1.319849968E0
1.441276825E0,-2.796068192E-1,7.686257362E-2,-1.337721825E0
1.457942763E0,1.769428253E-1,2.368292809E-1,-1.359976292E0
1.474608700E0,9.108872414E-1,2.109827995E-1,-1.445528030E0
1.491274638E0,1.347606897E0,3.979091644E-1,-1.245346546E0
1.507940575E0,8.010001183E-1,1.060789585E0,-2.291282654E0
1.524606513E0,7.188723087E-1,3.084616661E-1,-1.626904964E0
1.541272450E0,-1.880691051E-1,-5.320091248E-1,-8.693194389E-1
1.557938388E0,-2.066640854E-1,-5.722193718E-1,-8.282370567E-1
1.574604325E0,5.797362328E-2,4.822511673E-1,-1.325376034E0
1.591270263E0,3.401603699E-1,4.251699448E-1,5.575799942E-1
1.607936200E0,4.904773235E-1,5.378675461E-2,5.253887177E-1
1.624602138E0,-3.185423613E-1,-6.436781883E-1,-1.157166004E0
1.641268075E0,-9.803494215E-1,-7.669677734E-1,-8.692946434E-1
1.657934013E0,-1.906485558E-1,-2.739243507E-1,-6.740665436E-2
1.674599950E0,2.957301140E-1,-2.999696732E-1,3.528671265E-1
1.691265888E0,3.185343742E-1,-1.549296379E-1,1.864795685E-1
1.707931825E0,9.842958450E-1,2.832412720E-1,-1.000728607E-1
1.724597763E0,1.123139858E-1,-3.156738281E-1,-9.370613098E-2
1.741263700E0,1.701815128E-1,1.042652130E-2,3.099699020E-1
1.757929638E0,2.833430767E-1,3.247785568E-2,3.770399094E-1
1.774595575E0,2.096607685E-1,-1.930437088E-1,4.918794632E-1
1.791261513E0,6.089522839E-1,1.799983978E-1,5.563602448E-1
1.807927450E0,3.850283623E-1,-7.997512817E-3,-3.004059792E-1
1.824593388E0,8.327429295E-1,4.742903709E-1,-1.616342068E0
1.841259325E0,7.885499001E-1,4.537286758E-1,-3.395483494E0
1.857925263E0,2.996205091E-1,5.752563477E-2,-3.816082478E0
1.874591200E0,3.552030325E-1,-5.394144058E-1,-1.778101921E0
1.891257138E0,-2.231286764E-1,-2.723484039E-1,1.190262794E0
1.907923075E0,-7.452476621E-1,-6.418011189E-1,1.770211220E0
1.924589013E0,-8.922660351E-1,-9.001500607E-1,4.807233810E-1
1.941254950E0,-1.100843191E0,-5.797338486E-2,4.742622375E-3
1.957920888E0,-8.124362826E-1,1.277074814E-1,2.569494247E-1
1.974586825E0,-6.224250793E-2,-1.412146091E-1,3.630962372E-1
1.991252763E0,7.176802158E-1,1.257085800E-2,5.096187592E-1
2.007918700E0,1.502102852E0,-9.848737717E-2,9.358692169E-2
2.024584638E0,1.814305782E0,-7.482600212E-2,-1.489858627E-1
2.041250575E0,4.548239708E-1,8.597040176E-2,-2.162246704E-1
2.057916513E0,1.897587180E-1,5.912480354E-1,2.233448029E-1
2.074582450E0,-1.005648613E0,8.585124016E-1,5.116224289E-1
2.091248388E0,-1.328308582E0,7.491316795E-1,4.931106567E-1
2.107914325E0,-1.005929947E0,1.577899456E-1,9.287109375E-1
2.124580263E0,-2.356709242E-1,-1.305718422E-1,8.526201248E-1
2.141246200E0,4.264065027E-1,-4.677891731E-2,1.437759399E-1
2.157912138E0,5.832440853E-1,1.212511063E-1,-3.054265976E-1
2.174578075E0,4.559434652E-1,9.967494011E-2,-1.976022720E-1
2.191244013E0,2.075817585E-1,4.205584526E-2,1.144247055E-1
2.207909950E0,7.071709633E-2,-1.196148396E-1,6.129188538E-1
2.224575888E0,1.267050505E-1,-2.146489620E-1,8.324670792E-1
2.241241825E0,-5.947589874E-2,-1.629672050E-1,1.045593262E0
2.257907763E0,-2.711296082E-1,-1.611514091E-1,1.025382996E0
2.274573700E0,-1.148247719E-1,-1.742169857E-1,7.403554916E-1
2.291239638E0,5.905056000E-2,-1.792764664E-2,3.969841003E-1
2.307905575E0,1.072510481E-1,-4.275822639E-2,2.786607742E-1
2.324571513E0,5.912828445E-2,-1.837208271E-1,8.185291290E-2
2.341237450E0,-7.134509087E-2,-1.105663776E-1,1.799936295E-1
2.357903388E0,-5.608131289E-1,-5.753898621E-2,8.482265472E-2
2.374569325E0,-1.823710203E-1,-2.316164970E-2,1.619739532E-1
2.391235263E0,1.267775297E-1,-4.694604874E-2,-9.627723694E-2
2.407901200E0,6.582958698E-1,2.735757828E-2,-2.584133148E-1
2.424567138E0,6.174421310E-2,-2.449512482E-3,-7.636899948E-1
2.441233075E0,9.729766846E-2,3.204965591E-2,-6.535310745E-1
2.457899013E0,-1.883075237E-1,-1.978397369E-2,-1.689376831E-1
2.474564950E0,-3.839566708E-1,-1.216650009E-3,-1.650590897E-1
2.491230888E0,-3.823543787E-1,7.781505585E-3,-2.766504288E-1
2.507896825E0,-5.747401714E-2,-2.154994011E-2,-2.721881866E-1
2.524562763E0,4.164021015E-1,4.220724106E-3,-2.379074097E-1
2.541228700E0,3.042582273E-1,8.440160751E-2,-3.246517181E-1
2.557894638E0,1.823205948E-1,3.978729248E-3,-2.654867172E-1
2.574560575E0,3.508242369E-1,3.184032440E-2,-4.467105865E-2
2.591226513E0,1.780441999E-1,7.474184036E-3,7.183456421E-2
2.607892450E0,-5.506241322E-2,-4.122829437E-2,1.406135559E-1
2.624558388E0,-1.746029854E-1,1.105785370E-3,1.367006302E-1
2.641224325E0,-2.755546570E-2,-9.980440140E-3,9.618473053E-2
2.657890263E0,3.676573038E-1,-1.587634087E-1,8.175277710E-2
2.674556200E0,1.546865702E-1,1.070494652E-1,-1.332149506E-1
2.691222138E0,4.523200989E-1,-9.108543396E-2,-4.063396454E-1
2.707888075E0,5.295431614E-2,-1.431202888E-2,-1.496229172E-1
2.724554013E0,-2.816756964E-1,-2.224588394E-2,2.366399765E-1
2.741219950E0,-3.994615078E-1,-1.762809753E-1,9.883117676E-2
2.757885888E0,-4.381762743E-1,-1.037964821E-1,-2.517700195E-4
2.774551825E0,-2.497234344E-1,-7.311367989E-2,-1.720790863E-1
2.791217763E0,1.590611935E-1,-5.246329308E-2,-1.733760834E-1
2.807883700E0,4.129148722E-1,-1.788258553E-2,-3.333616257E-1
2.824549638E0,2.201468945E-1,6.371498108E-3,-2.513160706E-1
2.841215575E0,7.948637009E-3,1.953577995E-2,-2.014160156E-3
2.857881513E0,-9.107697010E-2,-6.597256660E-2,2.136745453E-1
2.874547450E0,-1.806199551E-1,-3.800296783E-2,2.846031189E-1
2.891213388E0,-1.017814875E-1,1.755452156E-2,8.312511444E-2
2.907879325E0,-2.423524857E-2,-1.867604256E-2,-1.372957230E-1
2.924545263E0,-1.547420025E-2,6.138992310E-2,-1.626701355E-1
2.941211200E0,1.280936003E-1,1.057212353E-1,-1.568794250E-1
2.957877138E0,2.693569660E-1,8.491897583E-2,-1.947746277E-1
2.974543075E0,2.895851135E-1,1.046564579E-1,-1.894826889E-1
2.991209013E0,1.859171391E-1,1.136798859E-1,-1.134843826E-1
3.007874950E0,-2.384781837E-2,6.933808327E-2,5.910873413E-2
3.024540888E0,-1.066207886E-1,-1.014947891E-2,2.102031708E-1
3.041206825E0,-1.417839527E-2,-4.005050659E-2,3.007211685E-1
3.057872763E0,4.638648033E-2,-8.665156364E-2,2.865123749E-1
3.074538700E0,4.472613335E-3,-9.005236626E-2,1.469964981E-1
3.091204638E0,7.349669933E-2,-3.839683533E-2,1.645946503E-2
3.107870575E0,8.551502228E-2,-1.081085205E-2,-2.462100983E-2
3.124536513E0,-2.951550484E-2,1.889252663E-2,1.476383209E-2
3.141202450E0,-1.724355221E-1,-6.514072418E-3,1.025066376E-1
3.157868388E0,-2.232173681E-1,5.724668503E-3,1.386337280E-1
3.174534325E0,-6.344830990E-2,-2.764463425E-3,1.222848892E-1
3.191200263E0,4.289221764E-2,9.490489960E-3,5.808830261E-3
3.207866200E0,-6.531834602E-2,2.896142006E-2,-1.459522247E-1
3.224532138E0,5.907154083E-2,4.454302788E-2,-1.798925400E-1
3.241198075E0,2.722592354E-1,1.128869057E-1,-7.314300537E-2
3.257864013E0,8.573174477E-2,5.969238281E-2,1.508340836E-1
3.274529950E0,-1.926838160E-1,8.490562439E-2,2.756681442E-1
3.291195888E0,-2.024507523E-1,6.376814842E-2,2.011718750E-1
3.307861825E0,1.590281725E-1,-1.022386551E-2,2.114906311E-1
3.324527763E0,1.827573776E-1,8.675384521E-2,-1.116189957E-1
3.341193700E0,7.915008068E-2,9.487676620E-2,-1.390447617E-1
3.357859638E0,3.446698189E-3,1.345157623E-1,-1.272659302E-1
3.374525575E0,1.793047190E-1,1.000683308E-1,8.572864532E-2
3.391191513E0,1.578593254E-1,6.816005707E-2,2.070837021E-1
3.407857450E0,4.050922394E-2,4.820537567E-2,2.216043472E-1
3.424523388E0,-7.411956787E-3,-2.090716362E-2,2.168045044E-1
3.441189325E0,-1.773834229E-3,-8.047938347E-2,1.772565842E-1
3.457855263E0,3.069400787E-2,-6.204628944E-2,-2.262401581E-2
3.474521200E0,2.775526047E-2,5.123853683E-3,-3.237504959E-1
3.491187138E0,1.165187359E-1,2.315378189E-2,-4.181957245E-1
3.507853075E0,-1.485466957E-2,7.485556602E-2,-2.954635620E-1
3.524519013E0,-5.407583714E-2,-4.646420479E-2,-1.011667252E-1
3.541184950E0,-1.111879349E-1,-1.143443584E-1,-1.813316345E-2
3.557850888E0,-1.256002188E-1,-1.637670994E-1,-1.010608673E-2
3.574516825E0,-1.103541851E-1,-1.576182842E-1,-2.003002167E-2
3.591182763E0,-1.493166685E-1,-1.580078602E-1,-9.038543701E-2
3.607848700E0,-2.879309654E-2,-1.981098652E-1,-5.724620819E-2
3.624514638E0,4.174280167E-2,-1.601939201E-1,-1.883602142E-2
3.641180575E0,-5.681347847E-2,-1.423516273E-1,2.155017853E-2
3.657846513E0,-1.731780767E-1,-1.746075153E-1,8.315086365E-2
3.674512450E0,-2.909550667E-1,-1.914699078E-1,1.561927795E-1
3.691178388E0,-2.286581993E-1,-2.027256489E-1,1.432504654E-1
3.707844325E0,-7.993912697E-2,-1.705794334E-1,1.225786209E-1
3.724510263E0,-1.557749510E-1,-8.713746071E-2,6.934738159E-2
3.741176200E0,-2.644282579E-1,-3.983020782E-2,6.529712677E-2
3.757842138E0,-2.943007946E-1,-1.081442833E-2,7.972717285E-2
3.774508075E0,-9.618330002E-2,1.900935173E-2,9.749031067E-2
3.791174013E0,2.044868469E-2,6.516695023E-2,6.404685974E-2
3.807839950E0,-5.244016647E-2,8.715009689E-2,6.435680389E-2
3.824505888E0,-8.695101738E-2,1.134381294E-1,6.042480469E-2
3.841171825E0,-6.973505020E-2,8.509516716E-2,1.549816132E-1
3.857837763E0,-7.685494423E-2,8.126902580E-2,2.462978363E-1
3.874503700E0,-7.830500603E-2,7.233119011E-2,1.676664352E-1
3.891169638E0,-5.025148392E-2,7.238292694E-2,1.003332138E-1
3.907835575E0,1.214482784E-1,5.533599854E-2,5.400848389E-2
3.924501513E0,2.455971241E-1,6.701660156E-2,-2.221012115E-2
3.941167450E0,2.425336838E-1,9.295058250E-2,-1.859855652E-2
3.957833388E0,5.644018650E-1,-6.834387779E-2,2.427768707E-2
3.974499325E0,-2.510704994E-1,1.931099892E-1,-9.087562561E-2
3.991165263E0,7.879185677E-2,-7.145166397E-3,8.416652679E-2
4.007831200E0,7.108688354E-2,2.970457077E-3,-7.413768768E-2
4.024497138E0,-4.427194595E-2,2.481245995E-2,-2.280635834E-1
4.041163075E0,-6.403803825E-2,6.851243973E-2,-2.755088806E-1
4.057829013E0,1.879906654E-2,8.629274368E-2,-2.100028992E-1
4.074494950E0,2.191329002E-2,2.937006950E-2,-3.691196442E-2
4.091160888E0,-3.151774406E-2,-1.296424866E-2,1.250991821E-1
4.107826825E0,-6.182885170E-2,-2.785611153E-2,2.061376572E-1
4.124492763E0,-6.053209305E-2,-4.284477234E-2,1.928730011E-1
4.141158700E0,1.837348938E-2,7.898330688E-3,6.407260895E-2
4.157824638E0,1.271884441E-1,5.019402504E-2,-7.351112366E-2
4.174490575E0,1.075305939E-1,6.845307350E-2,-1.047515869E-1
4.191156513E0,1.246411800E-1,4.160451889E-2,-6.003189087E-2
4.207822450E0,1.269626617E-1,-1.810598373E-2,5.343627930E-2
4.224488388E0,-3.547072411E-2,1.892542839E-2,1.073350906E-1
4.241154325E0,-1.221339703E-1,6.935334206E-2,5.205154419E-3
4.257820263E0,-7.584547997E-2,9.885215759E-2,2.083110809E-2
4.274486200E0,8.934116364E-2,1.728811264E-1,5.472755432E-2
4.291152138E0,1.521627903E-1,2.251415253E-1,4.632949829E-3
4.307818075E0,1.041727066E-1,1.960363388E-1,-8.333969116E-2
4.324484013E0,4.751133919E-2,1.834235191E-1,-1.646947861E-1
4.341149950E0,9.829497337E-2,8.843445778E-2,-1.553030014E-1
4.357815888E0,4.227519035E-2,4.975581169E-2,-8.233451843E-2
4.374481825E0,-8.006048203E-2,-1.250529289E-2,5.332183838E-2
4.391147763E0,-1.617052555E-1,-4.083466530E-2,1.299524307E-1
4.407813700E0,-1.623816490E-1,-4.180240631E-2,1.531982422E-1
4.424479638E0,-9.927749634E-2,-3.437232971E-2,3.599452972E-2
4.441145575E0,-9.955310822E-2,-7.317781448E-3,-5.135440826E-2
4.457811513E0,-3.326249123E-2,-4.667520523E-2,-5.369186401E-4
4.474477450E0,-4.827785492E-2,-4.577159882E-2,-4.706954956E-2
4.491143388E0,-1.530501842E-1,2.310919762E-2,-6.189632416E-2
4.507809325E0,-1.643226147E-1,1.216793060E-2,-9.783935547E-2
4.524475263E0,8.839392662E-2,-1.116881371E-1,-1.038427353E-1
4.541141200E0,-8.968234062E-2,2.308011055E-2,-7.351779938E-2
4.557807138E0,-1.063036919E-1,3.964233398E-2,-1.243677139E-1
4.574473075E0,-1.386864185E-1,9.210872650E-2,-1.372423172E-1
4.591139013E0,-1.717555523E-1,1.204466820E-1,-4.342651367E-2
4.607804950E0,1.412987709E-1,-1.150693893E-1,4.357395172E-1
4.624470888E0,9.517264366E-2,-1.858506203E-1,5.853042603E-1
4.641136825E0,-1.071190834E-2,-1.997232437E-3,3.789482117E-1
4.657802763E0,-8.803749084E-2,6.133770943E-2,-1.076707840E-1
4.674468700E0,-5.174231529E-2,2.034299374E-1,-3.176279068E-1
4.691134638E0,-4.354262352E-2,2.086350918E-1,-3.514623642E-1
4.707800575E0,-1.436941624E-1,1.502833366E-1,-2.534122467E-1
4.724466513E0,-1.799623966E-1,-1.702260971E-2,-3.591241837E-1
4.741132450E0,-1.478905678E-1,1.014690399E-1,-7.570362091E-2
4.757798388E0,-6.121945381E-2,1.181204319E-1,-1.148138046E-1
4.774464325E0,1.914858818E-2,2.068026066E-1,-1.389684677E-1
4.791130263E0,1.569073200E-1,2.737848759E-1,-1.855325699E-1
4.807796200E0,1.427204609E-1,3.535575867E-1,-2.593860626E-1
4.824462138E0,2.297511101E-1,4.418673515E-1,-3.123025894E-1
4.841128075E0,4.049203396E-1,4.843716621E-1,-3.368444443E-1
4.857794013E0,4.533176422E-1,5.140659809E-1,-3.608341217E-1
4.874459950E0,4.577338696E-1,4.648466110E-1,-3.624372482E-1
4.891125888E0,3.585028648E-1,4.468014240E-1,-2.462577820E-1
4.907791825E0,1.721527576E-1,3.627943993E-1,-1.114215851E-1
4.924457763E0,-9.114742279E-3,3.017535210E-1,1.869201660E-4
4.941123700E0,-1.966392994E-1,2.845072746E-1,-1.096954346E-1
4.957789638E0,-3.865780830E-1,1.868548393E-1,-1.820087433E-1
4.974455575E0,-5.526025295E-1,2.027750015E-2,5.481147766E-2
4.991121513E0,-6.281638145E-1,5.294251442E-2,2.219552994E-1
5.007787450E0,-6.831524372E-1,3.220303059E-1,8.436002731E-1
5.024453388E0,-2.814784050E-1,2.250289917E-2,5.379877090E-1
5.041119325E0,-4.600358009E-1,2.499294281E-2,3.253250122E-1
5.057785263E0,-7.604918480E-1,2.180311680E-1,5.166339874E-2
5.074451200E0,-1.005318761E0,1.990411282E-1,-7.802772522E-2
5.091117138E0,-1.053922534E0,1.725473404E-1,-1.006326675E-1
5.107783075E0,-9.226617813E-1,2.081992626E-1,-1.199693680E-1
5.124449013E0,-8.680073023E-1,1.774492264E-1,-4.651613235E-1
5.141114950E0,-7.908511162E-1,2.094213963E-1,-7.424640656E-1
5.157780888E0,-6.894257069E-1,2.530410290E-1,-7.648119926E-1
5.174446825E0,-6.125323772E-1,1.863093376E-1,-6.228780746E-1
5.191112763E0,-5.481984615E-1,1.396551132E-1,-2.985954285E-1
5.207778700E0,-4.881978035E-1,6.057882309E-2,9.320831299E-2
5.224444638E0,-5.252189636E-1,8.819413185E-2,3.255805969E-1
5.241110575E0,-4.775583744E-1,1.788568497E-1,1.976728439E-1
5.257776513E0,-3.691892624E-1,2.638444901E-1,-6.484031677E-3
5.274442450E0,-2.756102085E-1,2.256793976E-1,-5.157566071E-2
5.291108388E0,-3.240849972E-1,1.821894646E-1,8.093833923E-3
5.307774325E0,-4.593613148E-1,1.485087872E-1,4.715061188E-2
5.324440263E0,-5.631413460E-1,4.947090149E-2,4.628658295E-2
5.341106200E0,-6.305000782E-1,7.442784309E-2,2.383899689E-2
5.357772138E0,-5.526254177E-1,7.298183441E-2,1.369609833E-1
5.374438075E0,-4.753856659E-1,9.000492096E-2,2.433261871E-1
5.391104013E0,-4.108567238E-1,8.415150642E-2,2.712669373E-1
5.407769950E0,-2.353868484E-1,7.219314575E-4,3.751106262E-1
5.424435888E0,-1.757895947E-1,-7.065486908E-2,5.095968246E-1
5.441101825E0,-1.401014328E-1,-2.121205330E-1,5.377435684E-1
5.457767763E0,-2.668061256E-1,-2.663559914E-1,4.700231552E-1
5.474433700E0,-4.302089214E-1,-2.731537819E-1,3.623418808E-1
5.491099638E0,-3.595235348E-1,-3.283591270E-1,1.385602951E-1
5.507765575E0,-1.524686813E-1,-4.072535038E-1,1.672496796E-1
5.524431513E0,1.079428196E-1,-5.120170116E-1,2.408227921E-1
5.541097450E0,2.902140617E-1,-6.448607445E-1,2.647390366E-1
5.557763388E0,4.155473709E-1,-7.832422256E-1,2.951116562E-1
5.574429325E0,4.972944260E-1,-9.350340366E-1,1.005010605E-1
5.591095263E0,5.490779877E-1,-9.929084778E-1,-2.904987335E-1
5.607761200E0,6.960926056E-1,-1.050303340E0,-5.892591476E-1
5.624427138E0,8.351163864E-1,-1.140382171E0,-6.168537140E-1
5.641093075E0,8.762087822E-1,-1.239650965E0,-6.367940903E-1
5.657759013E0,9.141516685E-1,-1.438256860E0,-8.525528908E-1
5.674424950E0,8.612275124E-1,-1.477024078E0,-1.133372307E0
5.691090888E0,9.621291161E-1,-1.479184151E0,-1.314591408E0
5.707756825E0,9.374542236E-1,-1.447446823E0,-1.451307297E0
5.724422763E0,8.118786812E-1,-1.454874277E0,-1.473934174E0
5.741088700E0,5.563125610E-1,-1.549683571E0,-1.615890980E0
5.757754638E0,3.295416832E-1,-1.739535809E0,-1.748607635E0
5.774420575E0,3.943490982E-1,-1.800018072E0,-2.107057095E0
5.791086513E0,4.908547401E-1,-1.605723739E0,-2.645869732E0
5.807752450E0,5.389170647E-1,-1.584299207E0,-2.740515232E0
5.824418388E0,5.241556168E-1,-1.759516001E0,-2.634086609E0
5.841084325E0,4.652075768E-1,-2.116233110E0,-2.516745090E0
5.857750263E0,6.614618301E-1,-2.426310539E0,-2.470357418E0
5.874416200E0,8.017420769E-1,-2.513191223E0,-2.505420685E0
5.891082138E0,6.657476425E-1,-2.357122421E0,-2.479594231E0
5.907748075E0,6.732611656E-1,-1.823731899E0,-2.787451267E0
5.924414013E0,1.383453369E0,-1.604486346E0,-3.369697094E0
5.941079950E0,1.923056602E0,-1.380734682E0,-3.206251383E0
5.957745888E0,2.048358917E0,-1.628475785E0,-2.650240898E0
5.974411825E0,1.788491249E0,-1.806301475E0,-1.810204029E0
5.991077763E0,1.749814987E0,-1.811859369E0,-1.003903866E0
6.007743700E0,1.738929749E0,-1.589107513E0,-6.041336060E-1
6.024409638E0,1.660752296E0,-1.389832020E0,-8.326539993E-1
6.041075575E0,2.165138245E0,-1.589578986E0,-8.036417961E-1
6.057741513E0,2.315299034E0,-1.632589936E0,-2.296152115E-1
6.074407450E0,2.313528061E0,-1.596996307E0,3.179755211E-1
6.091073388E0,2.277462006E0,-1.463398457E0,8.290133476E-1
6.107739325E0,2.692332268E0,-1.182878017E0,1.151931047E0
6.124405263E0,3.550823212E0,-5.566134453E-1,8.421020508E-1
6.141071200E0,3.959031105E0,1.818022728E-1,7.994270325E-2
6.157737138E0,4.337377548E0,8.475183249E-1,-5.729100704E-1
6.174403075E0,4.678822517E0,1.123103619E0,-6.919607520E-1
6.191069013E0,5.331817627E0,1.214116096E0,7.740833759E-1
6.207734950E0,5.669926643E0,1.681229234E0,2.881645679E0
6.224400888E0,5.061936378E0,2.388786316E0,4.188061714E0
6.241066825E0,4.263121605E0,3.029888868E0,4.579849720E0
6.257732763E0,3.339718819E0,3.668672562E0,4.883637905E0
6.274398700E0,2.348314285E0,4.245355129E0,5.208835125E0
6.291064638E0,1.625719070E0,4.691234589E0,5.508001328E0
6.307730575E0,8.150053024E-1,5.200425148E0,5.714449406E0
6.324396513E0,1.669473648E-1,5.689001083E0,5.713869095E0
6.341062450E0,-2.366819382E-1,6.207347870E0,5.498704433E0
6.357728388E0,-6.830835342E-1,6.751332283E0,5.163212776E0
6.374394325E0,-1.281843185E0,7.162708282E0,4.952144146E0
6.391060263E0,-1.766047955E0,7.437425613E0,4.866487980E0
6.407726200E0,-1.946491241E0,7.495037079E0,4.717425346E0
6.424392138E0,-1.897474766E0,7.535707951E0,4.544052601E0
6.441058075E0,-1.806351185E0,7.667237759E0,4.480497360E0
6.457724013E0,-1.640612602E0,7.711346626E0,4.506840229E0
6.474389950E0,-1.746477127E0,7.689993382E0,4.099274635E0
6.491055888E0,-1.818108082E0,7.445523262E0,3.526093006E0
6.507721825E0,-2.007271290E0,7.187352180E0,3.200588942E0
6.524387763E0,-1.798311234E0,6.962463856E0,3.026940823E0
6.541053700E0,-1.267206192E0,6.738846302E0,3.006621838E0
6.557719638E0,-4.761152267E-1,6.414677143E0,3.953586817E0
6.574385575E0,2.671737671E-1,6.193002701E0,5.589003563E0
6.591051513E0,1.478521347E0,5.674994946E0,7.351774216E0
6.607717450E0,4.303140640E0,4.746500969E0,8.913022995E0
6.624383388E0,8.574371338E0,3.622018814E0,9.294739723E0
6.641049325E0,1.171392536E1,2.441401005E0,8.715497971E0
6.657715263E0,1.239594936E1,7.513678074E-1,6.936931610E0
6.674381200E0,1.192540264E1,-1.530911922E0,5.064616680E0
6.691047138E0,1.030418301E1,-3.778246880E0,3.709473133E0
6.707713075E0,7.869773865E0,-5.625938892E0,2.086269379E0
6.724379013E0,5.360213280E0,-6.998148441E0,1.049450397E0
6.741044950E0,3.475851536E0,-8.020003319E0,6.617369652E-1
6.757710888E0,2.594264507E0,-9.135272980E0,7.476654053E-1
6.774376825E0,2.448109627E0,-1.050248814E1,7.962007523E-1
6.791042763E0,1.809523106E0,-1.206083202E1,2.689909935E-1
6.807708700E0,-2.384233475E-2,-1.284248161E1,-1.180126667E0
6.824374638E0,-2.272194862E0,-1.244676876E1,-3.009775639E0
6.841040575E0,-3.874775410E0,-1.185447502E1,-4.897811890E0
6.857706513E0,-4.496808052E0,-1.143193245E1,-6.027850151E0
6.874372450E0,-4.397326469E0,-1.095526314E1,-6.407618046E0
6.891038388E0,-4.175841808E0,-1.046026611E1,-6.142529488E0
6.907704325E0,-4.727006912E0,-9.759148598E0,-5.818192482E0
6.924370263E0,-5.476263046E0,-9.181177139E0,-6.084350586E0
6.941036200E0,-5.634118080E0,-9.082620621E0,-6.541655064E0
6.957702138E0,-4.912422180E0,-8.957180977E0,-7.237565041E0
6.974368075E0,-1.937858105E0,-9.182871819E0,-7.708011627E0
6.991034013E0,1.932273865E0,-7.754196167E0,-6.914130211E0
7.007699950E0,9.531507492E0,-3.914048433E0,-2.321462870E0
7.024365888E0,1.932112694E1,4.104341507E0,9.618213654E0
7.041031825E0,2.698400879E1,1.107335091E1,1.739435196E1
7.057697763E0,2.490559769E1,1.248959827E1,1.415780354E1
7.074363700E0,1.421257019E1,1.258454704E1,1.250282860E1
7.091029638E0,3.562623978E0,1.151567078E1,8.496549606E0
7.107695575E0,-2.358401775E0,9.876425743E0,4.311356544E0
7.124361513E0,-5.567063808E0,8.523801804E0,3.109612465E-1
7.141027450E0,-8.595855713E0,7.892361641E0,-3.461333513E0
7.157693388E0,-1.057363319E1,7.200235367E0,-5.852973461E0
7.174359325E0,-1.006334972E1,6.215694904E0,-5.688547611E0
7.191025263E0,-9.136704445E0,5.715789795E0,-3.922558784E0
7.207691200E0,-8.780592918E0,5.340662003E0,-2.494787693E0
7.224357138E0,-9.213677406E0,5.463751793E0,-1.332710862E0
7.241023075E0,-1.029478264E1,5.617947102E0,-6.908156872E-1
7.257689013E0,-1.154367542E1,5.410523415E0,-1.826578379E-1
7.274354950E0,-1.193519974E1,4.901185036E0,6.132066250E-1
7.291020888E0,-1.107654572E1,4.145482063E0,1.206425667E0
7.307686825E0,-9.362040520E0,3.915433168E0,1.423110247E0
7.324352763E0,-6.762035370E0,4.613816261E0,2.059378386E0
7.341018700E0,-3.508647442E0,6.060559273E0,3.413498163E0
7.357684638E0,1.521883011E-1,7.657592773E0,6.823711872E0
7.374350575E0,3.728491306E0,9.631337166E0,1.103628540E1
7.391016513E0,1.304574680E1,1.015907669E1,1.517243004E1
7.407682450E0,2.479843903E1,7.352571011E0,1.411235619E1
7.424348388E0,2.761871338E1,4.301813602E0,7.399240017E0
7.441014325E0,2.235673332E1,-1.313605309E-1,2.596886396E0
7.457680263E0,1.473881531E1,-5.530649185E0,1.670536041E0
7.474346200E0,7.152588367E0,-9.831352234E0,2.617257595E0
7.491012138E0,1.367852211E0,-1.269065285E1,3.207786560E0
7.507678075E0,-1.457848549E0,-1.416748619E1,1.901137352E0
7.524344013E0,-3.085752726E0,-1.441810417E1,-1.314635515E0
7.541009950E0,-4.220646858E0,-1.400274467E1,-4.515778065E0
7.557675888E0,-5.059872150E0,-1.366650772E1,-7.058987141E0
7.574341825E0,-6.200515747E0,-1.300797176E1,-8.606290817E0
7.591007763E0,-7.778687477E0,-1.215000916E1,-9.143864632E0
7.607673700E0,-9.264356613E0,-1.128552437E1,-8.939739227E0
7.624339638E0,-1.034120274E1,-1.018339920E1,-8.431065559E0
7.641005575E0,-1.055102539E1,-9.329837799E0,-7.744369507E0
7.657671513E0,-9.294149399E0,-8.821004868E0,-6.829370975E0
7.674337450E0,-5.104312897E0,-9.121722221E0,-6.754848957E0
7.691003388E0,2.860990524E0,-1.065745544E1,-7.167571068E0
7.707669325E0,1.064643002E1,-1.103065777E1,-5.585872650E0
7.724335263E0,1.418360329E1,-6.797756195E0,-1.936231494E0
7.741001200E0,1.325171566E1,6.744562626E0,5.815759659E0
7.757667138E0,2.254438782E1,1.241275978E1,1.313756847E1
7.774333075E0,3.022385979E1,7.125471592E0,1.799570656E1
7.790999013E0,1.520252895E1,8.514024734E0,2.130481720E1
7.807664950E0,7.202987671E-1,8.955163956E0,1.645397568E1
7.824330888E0,-5.361033916E0,6.939057827E0,9.030523300E0
7.840996825E0,-7.023490906E0,6.425654888E0,1.750609159E0
7.857662763E0,-5.430869102E0,4.998707294E0,-1.742864132E0
7.874328700E0,-5.364079475E0,4.342238426E0,-1.861850977E0
7.890994638E0,-6.613224506E0,4.005528450E0,-6.973748207E-1
7.907660575E0,-7.697227001E0,3.506894588E0,1.001400232E0
7.924326513E0,-8.426824570E0,3.411535263E0,2.085746288E0
7.940992450E0,-9.080215454E0,3.628753662E0,2.119665384E0
7.957658388E0,-9.963451385E0,3.725051403E0,1.692668438E0
7.974324325E0,-1.105754375E1,3.657156467E0,1.072488070E0
7.990990263E0,-1.169424725E1,3.358666897E0,5.630519390E-1
8.007656200E0,-1.111176968E1,2.730480194E0,1.036369085E0
8.024322138E0,-8.828258514E0,2.273980141E0,2.160899639E0
8.040988075E0,-5.036231995E0,3.701752663E0,3.930105686E0
8.057654013E0,-2.841792107E-1,9.623006821E0,5.882397652E0
8.074319950E0,3.363774776E0,1.876814270E1,6.188219070E0
8.090985888E0,1.345655823E1,2.062222672E1,7.926931381E0
8.107651825E0,1.703463364E1,1.541318321E1,1.160879230E1
8.124317763E0,1.107704353E1,7.646589279E0,1.384473896E1
8.140983700E0,5.401309490E0,1.954708099E0,1.266161537E1
8.157649638E0,5.952875614E0,-3.426527977E0,8.718509674E0
8.174315575E0,6.637774467E0,-7.577304363E0,3.247684002E0
8.190981513E0,7.093596935E0,-1.179552841E1,-1.226951361E0
8.207647450E0,6.430323601E0,-1.484222507E1,-3.728028774E0
8.224313388E0,5.952337265E0,-1.653890800E1,-5.911835194E0
8.240979325E0,6.263603687E0,-1.685820770E1,-6.507546425E0
8.257645263E0,7.046469212E0,-1.706394386E1,-6.601009369E0
8.274311200E0,6.246463776E0,-1.697959518E1,-6.497714996E0
8.290977138E0,4.063004971E0,-1.649213791E1,-6.617683411E0
8.307643075E0,1.634807587E0,-1.588201714E1,-6.776354313E0
8.324309013E0,-3.521277905E-1,-1.516203880E1,-6.892356873E0
8.340974950E0,-7.976183891E-1,-1.425633430E1,-6.120852470E0
8.357640888E0,3.647325039E-1,-1.313097763E1,-5.838662148E0
8.374306825E0,2.900537968E0,-1.235364056E1,-5.804795265E0
8.390972763E0,5.359282494E0,-1.150386620E1,-5.116653919E0
8.407638700E0,5.913597107E0,-9.853973389E0,-4.454585075E0
8.424304638E0,6.954053879E0,-4.830809593E0,-2.226956844E0
8.440970575E0,1.707162857E1,2.823011875E0,4.692971230E0
8.457636513E0,3.243034744E1,8.557021141E0,1.487640476E1
8.474302450E0,3.413533401E1,1.261151600E1,1.895325851E1
8.490968388E0,2.134603500E1,1.350322533E1,1.607164383E1
8.507634325E0,7.009322166E0,1.238199615E1,1.092376137E1
8.524300263E0,-1.883635521E0,1.041973782E1,5.314091682E0
8.540966200E0,-5.788928986E0,9.294704437E0,2.127292633E0
8.557632138E0,-6.486264229E0,8.767029762E0,1.632887363E0
8.574298075E0,-5.973299980E0,9.137154579E0,2.637836218E0
8.590964013E0,-6.068214417E0,9.872919083E0,3.629457951E0
8.607629950E0,-6.436704636E0,9.955148697E0,3.342554569E0
8.624295888E0,-8.055185318E0,9.396898270E0,1.926783800E0
8.640961825E0,-1.096671200E1,8.529180527E0,2.220294476E-1
8.657627763E0,-1.357599926E1,7.465880871E0,-7.653466463E-1
8.674293700E0,-1.429425049E1,6.620614529E0,-1.571803093E-1
8.690959638E0,-1.310185623E1,5.819621563E0,1.367453814E0
8.707625575E0,-1.046490765E1,4.816950321E0,2.848273277E0
8.724291513E0,-7.191780567E0,4.146623611E0,3.355380058E0
8.740957450E0,-4.144949436E0,5.369296074E0,2.813480377E0
8.757623388E0,-1.597950935E0,1.060126495E1,3.645290136E0
8.774289325E0,3.781038284E0,1.880314636E1,9.169755936E0
8.790955263E0,1.823619843E1,1.900898743E1,2.065867424E1
8.807621200E0,2.889069748E1,1.296515274E1,2.339319801E1
8.824287138E0,2.551678467E1,6.282516956E0,1.488833809E1
8.840953075E0,1.818888092E1,-6.249427795E-3,8.468239784E0
8.857619013E0,1.292664909E1,-5.806730270E0,5.712232590E0
8.874284950E0,8.533483505E0,-1.047697735E1,2.992043972E0
8.890950888E0,6.433192730E0,-1.454813957E1,2.699542046E-1
8.907616825E0,6.206898212E0,-1.801492691E1,-2.385975838E0
8.924282763E0,5.584013939E0,-2.050923920E1,-5.085658550E0
8.940948700E0,4.022448540E0,-2.179380417E1,-6.108037472E0
8.957614638E0,2.413907051E0,-2.225460815E1,-6.513201714E0
8.974280575E0,1.337041855E-1,-2.159992599E1,-7.465552330E0
8.990946513E0,-2.407363176E0,-1.980179977E1,-9.406070709E0
9.007612450E0,-4.376123905E0,-1.812906265E1,-1.152201653E1
9.024278388E0,-5.441425323E0,-1.639985657E1,-1.284705639E1
9.040944325E0,-5.006826401E0,-1.473757076E1,-1.306352997E1
9.057610263E0,-2.874169827E0,-1.350128746E1,-1.238772869E1
9.074276200E0,1.833203793E0,-1.255948448E1,-1.065933895E1
9.090942138E0,7.506390095E0,-1.119862366E1,-8.192095757E0
9.107608075E0,1.141120338E1,-8.097380638E0,-4.705596447E0
9.124274013E0,1.269325829E1,-2.791967630E0,-1.099606037E0
9.140939950E0,1.568617630E1,4.247081280E0,7.619496346E0
9.157605888E0,2.490535355E1,8.750493050E0,1.807490158E1
9.174271825E0,2.990330124E1,8.955965042E0,2.255171967E1
9.190937763E0,2.326961327E1,8.432919502E0,2.099648666E1
9.207603700E0,1.200555611E1,7.232970238E0,1.820974159E1
9.224269638E0,1.291793823E0,5.870850086E0,1.294981384E1
9.240935575E0,-5.679665089E0,5.894169807E0,7.864948273E0
9.257601513E0,-7.530160427E0,6.482379913E0,4.717806816E0
9.274267450E0,-6.892923832E0,7.036635399E0,3.665410042E0
9.290933388E0,-7.192098618E0,7.510890007E0,3.327062607E0
9.307599325E0,-8.467424393E0,7.550395012E0,2.920143604E0
9.324265263E0,-9.310933113E0,6.835872650E0,2.503821373E0
9.340931200E0,-9.600887299E0,5.622649193E0,1.780465603E0
9.357597138E0,-1.010705280E1,4.507655144E0,1.237538338E0
9.374263075E0,-1.055559254E1,3.133200645E0,5.880465508E-1
9.390929013E0,-1.086913109E1,1.765809059E0,-7.357263565E-2
9.407594950E0,-1.106356239E1,5.083034039E-1,-1.223414421E0
9.424260888E0,-1.084991741E1,-2.285764217E-1,-2.834601164E0
9.440926825E0,-9.820776939E0,7.330174446E-1,-4.810390472E0
9.457592763E0,-9.003911972E0,3.656254292E0,-7.373218060E0
9.474258700E0,-8.127289772E0,7.632462978E0,-6.145985603E0
9.490924638E0,-7.319553375E0,1.165618801E1,3.801095963E0
9.507590575E0,-3.279805422E0,1.060414314E1,2.798158646E1
9.524256513E0,3.070842505E0,3.836774826E0,4.704985809E1
9.540922450E0,1.289255714E1,-3.355975151E0,4.447978973E1
9.557588388E0,1.736912918E1,-5.585320473E0,3.270854187E1
9.574254325E0,1.598338413E1,-7.833857536E0,1.976854706E1
9.590920263E0,1.241854954E1,-9.077676773E0,1.041783237E1
9.607586200E0,6.797123909E0,-1.063857555E1,4.879415989E0
9.624252138E0,4.670505524E0,-1.504380798E1,1.346364498E0
9.640918075E0,5.580690384E0,-1.866107178E1,1.406959057E0
9.657584013E0,8.535061836E0,-2.024224663E1,1.757166386E0
9.674249950E0,1.285123730E1,-2.225456047E1,-1.662632465E0
9.690915888E0,1.353723049E1,-2.232896996E1,-8.139892578E0
9.707581825E0,1.027513790E1,-2.056986427E1,-1.505277348E1
9.724247763E0,6.497995853E0,-1.863262177E1,-1.911308098E1
9.740913700E0,3.693644762E0,-1.755049896E1,-1.883474922E1
9.757579638E0,5.145182610E-1,-1.683153725E1,-1.651631355E1
9.774245575E0,-3.022855043E0,-1.618338013E1,-1.365565872E1
9.790911513E0,-6.079990864E0,-1.509411240E1,-1.163585281E1
9.807577450E0,-8.087399483E0,-1.383938789E1,-1.165817070E1
9.824243388E0,-8.855162621E0,-1.315926361E1,-1.089339066E1
9.840909325E0,-8.321196556E0,-1.041849899E1,-5.680880547E0
9.857575263E0,-2.635425091E0,-6.753010273E0,6.682241440E0
9.874241200E0,9.001405716E0,-5.384624481E0,2.850121117E1
9.890907138E0,1.318082237E1,-2.831486464E0,4.356906128E1
9.907573075E0,9.463975906E0,1.474378586E0,4.157003403E1
9.924239013E0,7.834836960E0,4.356301785E0,3.060955429E1
9.940904950E0,5.733889580E0,6.354989529E0,1.579495239E1
9.957570888E0,9.958839417E-1,6.931742668E0,3.463654041E0
9.974236825E0,-4.494455338E0,6.231647491E0,-2.903276205E0
9.990902763E0,-7.576747894E0,3.826261044E0,-3.309866428E0
1.000756870E1,-7.882323265E0,5.032358170E-1,-1.350500584E0
1.002423464E1,-6.767261982E0,-2.848119020E0,6.132831573E-1
1.004090058E1,-5.098406792E0,-5.474630833E0,2.146438122E0
1.005756651E1,-4.250987053E0,-6.550288200E0,1.426683903E0
1.007423245E1,-4.439894676E0,-5.516901016E0,-9.164905548E-2
1.009089839E1,-3.674747467E0,-2.996817350E0,9.288873672E-1
1.010756432E1,2.448347092E0,-1.834912777E0,6.627922058E0
1.012423026E1,9.728331566E0,-4.151422024E0,1.188301849E1
1.014089620E1,1.138764763E1,-7.349034786E0,1.057728958E1
1.015756214E1,7.470466137E0,-8.927176476E0,7.618624687E0
1.017422808E1,2.548263550E0,-9.195361137E0,7.561327457E0
1.019089401E1,-2.956085205E-1,-9.222858429E0,7.535701752E0
1.020755995E1,-7.024574280E-2,-9.070191383E0,6.336639881E0
1.022422589E1,8.308377266E-1,-8.281365395E0,4.304523468E0
1.024089182E1,1.185794830E0,-7.174738884E0,1.569453239E0
1.025755776E1,1.098943710E0,-5.786493301E0,-1.252855539E0
1.027422370E1,7.898073196E-1,-4.544870853E0,-4.380301952E0
1.029088964E1,1.063795090E-1,-3.498720169E0,-6.843312263E0
1.030755558E1,-1.233465672E0,-2.102546930E0,-8.338306427E0
1.032422151E1,-2.598169327E0,-9.862850904E-1,-8.690767288E0
1.034088745E1,-3.655936718E0,-3.509397507E-1,-7.562031746E0
1.035755339E1,-3.739518642E0,-1.548070908E-1,-5.975968361E0
1.037421932E1,-2.814916134E0,2.265088558E-1,-3.754848480E0
1.039088526E1,-2.069496155E0,1.404933572E0,-1.580045700E0
1.040755120E1,-1.754881382E0,4.029050350E0,1.943922997E0
1.042421714E1,-1.424846649E-1,7.906956196E0,7.829671860E0
1.044088308E1,4.505731583E0,1.039105129E1,1.475612068E1
1.045754901E1,9.494766235E0,1.044741344E1,1.927511406E1
1.047421495E1,1.115566158E1,9.760906219E0,1.732197571E1
1.049088089E1,9.746914864E0,9.273623466E0,1.328727150E1
1.050754682E1,6.230231285E0,8.706075668E0,9.075730324E0
1.052421276E1,1.732990265E0,8.075990677E0,4.775192738E0
1.054087870E1,-2.646698475E0,7.799658775E0,1.392928123E0
1.055754464E1,-5.110340118E0,7.853000641E0,-3.491790295E-1
1.057421058E1,-5.491055012E0,7.706712723E0,-5.194199085E-1
1.059087651E1,-4.623278141E0,7.625444412E0,-2.338931561E-1
1.060754245E1,-3.375268459E0,7.160679817E0,-2.746937275E-1
1.062420839E1,-3.328969955E0,6.735696793E0,-6.216732264E-1
1.064087432E1,-4.475004196E0,6.179306030E0,-1.106367350E0
1.065754026E1,-5.670054436E0,4.505546093E0,-6.285769939E-1
1.067420620E1,-5.987668037E0,2.198168993E0,1.286574125E0
1.069087214E1,-4.481254101E0,1.542334557E-1,3.589521885E0
1.070753808E1,-2.415558338E0,-7.587585449E-1,5.962440968E0
1.072420401E1,-1.223782063E0,-3.115196228E-1,8.912164688E0
1.074086995E1,1.079119682E0,1.515968323E0,1.098328400E1
1.075753589E1,5.039621830E0,3.142421722E0,1.104781532E1
1.077420182E1,8.305301666E0,3.076327801E0,1.085066986E1
1.079086776E1,8.701374054E0,1.246632099E0,1.126688004E1
1.080753370E1,8.088650703E0,-9.561471939E-1,1.046178627E1
1.082419964E1,8.824820518E0,-3.896901369E0,8.172573090E0
1.084086558E1,8.159832001E0,-8.140523911E0,4.349593163E0
1.085753151E1,5.194776058E0,-1.262962723E1,1.197438717E0
1.087419745E1,1.026775360E0,-1.595882416E1,-2.650856972E-1
1.089086339E1,-2.346934795E0,-1.803740501E1,-1.397742271E0
1.090752932E1,-3.847326756E0,-1.935982895E1,-3.718017101E0
1.092419526E1,-4.396968842E0,-1.999839973E1,-6.242730618E0
1.094086120E1,-4.105463028E0,-1.950991821E1,-8.308448792E0
1.095752714E1,-3.765447378E0,-1.820513153E1,-1.097509766E1
1.097419308E1,-4.128064156E0,-1.623085022E1,-1.393079090E1
1.099085901E1,-4.594985008E0,-1.418050098E1,-1.435833645E1
1.100752495E1,-3.642168045E0,-1.303565216E1,-1.207513428E1
1.102419089E1,-6.180238724E-1,-1.243597889E1,-9.450431824E0
1.104085682E1,3.253002167E0,-1.090240383E1,-7.619911194E0
1.105752276E1,8.134720802E0,-8.422616005E0,-6.596087456E0
1.107418870E1,1.259828663E1,-3.273948669E0,-4.939836025E0
1.109085464E1,2.444581604E1,4.202049971E-2,2.656672716E0
1.110752058E1,3.659617996E1,1.968751431E0,9.908531189E0
1.112418651E1,3.850599289E1,4.769752502E0,1.538826370E1
1.114085245E1,2.772869873E1,8.921373367E0,2.193663597E1
1.115751839E1,1.684157181E1,1.162069511E1,2.324827576E1
1.117418432E1,2.271001816E0,9.571126938E0,1.952367592E1
1.119085026E1,-3.809381962E0,1.019368362E1,1.390209389E1
1.120751620E1,-3.585317135E0,8.726892471E0,7.976852417E0
1.122418214E1,-6.380105019E0,1.005633640E1,3.378661633E0
1.124084808E1,-8.722739220E0,1.044542313E1,2.249223948E0
1.125751401E1,-8.997605324E0,1.013115692E1,3.761151552E0
1.127417995E1,-1.042293072E1,1.020987892E1,6.143733978E0
1.129084589E1,-1.203547096E1,9.939640999E0,6.990968704E0
1.130751182E1,-1.304338455E1,9.136476517E0,6.458878517E0
1.132417776E1,-1.423670006E1,8.675304413E0,5.320316792E0
1.134084370E1,-1.222293091E1,7.359715939E0,4.528412342E0
1.135750964E1,-9.351733208E0,5.978316784E0,5.454545021E0
1.137417558E1,-5.745054245E0,4.081692696E0,7.663155079E0
1.139084151E1,-2.013452053E0,2.676871300E0,9.770265579E0
1.140750745E1,2.004278183E0,2.812929392E0,1.052758503E1
1.142417339E1,6.291547775E0,4.113776684E0,1.149355316E1
1.144083932E1,1.119332027E1,4.034889698E0,1.418701172E1
1.145750526E1,1.955908012E1,2.104450226E0,1.663007355E1
1.147417120E1,2.614830399E1,-3.205518723E0,1.495810127E1
1.149083714E1,2.246205139E1,-7.730615616E0,1.161581993E1
1.150750308E1,1.241661263E1,-1.219609165E1,9.003318787E0
1.152416901E1,5.039217472E0,-1.488854504E1,7.736159325E0
1.154083495E1,2.612414837E0,-1.663325500E1,5.998017311E0
1.155750089E1,3.837262154E0,-1.839466667E1,1.130519867E0
1.157416682E1,3.432904720E0,-1.861340714E1,-5.663740635E0
1.159083276E1,-5.581855774E-2,-1.663030624E1,-1.111162758E1
1.160749870E1,-2.431863546E0,-1.514155006E1,-1.394499016E1
1.162416464E1,-4.080653191E0,-1.415664768E1,-1.496877289E1
1.164083058E1,-5.094183922E0,-1.379216957E1,-1.429293633E1
1.165749651E1,-5.316271782E0,-1.380287266E1,-1.383177280E1
1.167416245E1,-5.917863846E0,-1.309818363E1,-1.425349903E1
1.169082839E1,-6.520535469E0,-1.213615990E1,-1.440380096E1
1.170749432E1,-5.484121323E0,-1.135987282E1,-1.351549530E1
1.172416026E1,-3.708781481E0,-1.105044556E1,-1.228712273E1
1.174082620E1,-6.548719406E-1,-1.123606205E1,-1.110034847E1
1.175749214E1,5.086261272E0,-1.152494049E1,-8.641382217E0
1.177415808E1,1.053884697E1,-8.259029388E0,-2.718150377E0
1.179082401E1,1.985611725E1,-1.035532236E0,1.204882145E1
1.180748995E1,3.410007095E1,5.455703735E0,2.537822914E1
1.182415589E1,3.842829514E1,7.421242714E0,2.613335800E1
1.184082182E1,2.417810822E1,9.036094666E0,1.991006088E1
1.185748776E1,7.296073914E0,8.951785088E0,1.070802498E1
1.187415370E1,-2.285883427E0,7.743344784E0,2.930208683E0
1.189081964E1,-7.450563908E0,6.495800495E0,-1.936336040E0
1.190748558E1,-9.891201973E0,5.635869026E0,-2.514506817E0
1.192415151E1,-1.021549034E1,4.761512280E0,-1.486697197E-1
1.194081745E1,-1.163660240E1,5.214808464E0,1.605909348E0
1.195748339E1,-1.179969978E1,6.243747711E0,3.335260868E0
1.197414932E1,-1.089237595E1,7.603169918E0,5.690503120E0
1.199081526E1,-9.173478127E0,9.153503418E0,7.218650818E0
1.200748120E1,-7.650498390E0,1.118328953E1,6.486385345E0
1.202414714E1,-8.108570099E0,1.239923573E1,4.526389599E0
1.204081308E1,-8.514863968E0,1.167160988E1,3.743044376E0
1.205747901E1,-8.051158905E0,9.680445671E0,4.915028095E0
1.207414495E1,-6.974421024E0,7.015963554E0,7.191681862E0
1.209081089E1,-3.574970722E0,4.877742767E0,9.515815735E0
1.210747682E1,3.723096848E-1,4.790204525E0,9.925405502E0
1.212414276E1,3.467545033E0,6.211713791E0,1.096513367E1
1.214080870E1,8.126479149E0,7.422824860E0,1.221423149E1
1.215747464E1,1.697449684E1,6.335047722E0,1.367417145E1
1.217414058E1,2.540787125E1,3.421296120E0,1.432683182E1
1.219080651E1,2.749693871E1,-1.040225983E0,1.350049019E1
1.220747245E1,2.184745026E1,-5.489407063E0,9.996080399E0
1.222413839E1,1.468350983E1,-9.200344086E0,6.174343586E0
1.224080433E1,9.315695763E0,-1.239447021E1,3.423901558E0
1.225747026E1,5.353649616E0,-1.543615723E1,1.463220596E0
1.227413620E1,1.857724190E0,-1.787481308E1,-8.800969124E-1
1.229080214E1,-1.358750343E0,-1.958161545E1,-3.659284353E0
1.230746808E1,-4.254368782E0,-2.054880142E1,-5.629847050E0
1.232413401E1,-6.704337597E0,-2.060432243E1,-7.871771812E0
1.234079995E1,-8.924303055E0,-2.029618835E1,-1.040331173E1
1.235746589E1,-1.116928291E1,-1.985985565E1,-1.236398125E1
1.237413183E1,-1.245800591E1,-1.888784599E1,-1.274609756E1
1.239079776E1,-1.237352371E1,-1.763221550E1,-1.237473488E1
1.240746370E1,-1.057663250E1,-1.711278152E1,-1.103028584E1
1.242412964E1,-7.927580357E0,-1.673433876E1,-8.668014526E0
1.244079558E1,-5.249258041E0,-1.602091408E1,-7.027758121E0
1.245746151E1,-1.568789005E0,-1.465376949E1,-6.193611145E0
1.247412745E1,5.785043240E0,-1.076160812E1,-3.420884848E0
1.249079339E1,2.675438499E1,-5.007786274E0,4.559587002E0
1.250745933E1,4.792296600E1,2.677134275E0,1.393729401E1
1.252412526E1,4.563618469E1,1.027681732E1,1.951166725E1
1.254079120E1,2.932184410E1,1.138661385E1,1.959352493E1
1.255745714E1,1.198081493E1,1.050140667E1,1.428638268E1
1.257412308E1,1.122044563E0,9.241513252E0,7.029320717E0
1.259078901E1,-4.651213646E0,8.261823654E0,3.145156860E0
1.260745495E1,-7.578118801E0,7.673344135E0,2.765475273E0
1.262412089E1,-1.015577507E1,6.919316769E0,3.573298454E0
1.264078683E1,-1.074332619E1,6.274572372E0,5.495818138E0
1.265745276E1,-7.612305641E0,6.304602623E0,6.329308033E0
1.267411870E1,-7.412849426E0,7.851558208E0,5.073811531E0
1.269078464E1,-1.135525322E1,9.915692329E0,2.699820042E0
1.270745058E1,-1.409755898E1,1.188621044E1,2.155148029E0
1.272411651E1,-1.362423325E1,1.240707016E1,2.670014381E0
1.274078245E1,-1.154239941E1,1.173777008E1,3.895034075E0
1.275744839E1,-8.551988602E0,1.012052345E1,4.336932659E0
1.277411433E1,-6.479228973E0,8.006927490E0,4.216206074E0
1.279078026E1,-6.123338699E0,6.942535400E0,3.583220005E0
1.280744620E1,-5.068000793E0,7.445567608E0,6.288109779E0
1.282411214E1,7.670995712E0,6.576857090E0,1.012725544E1
1.284077808E1,3.043906784E1,3.573269367E0,1.270944595E1
1.285744401E1,4.616757965E1,1.070573807E0,1.133980370E1
1.287410995E1,4.212052917E1,-2.490190029E0,1.016614723E1
1.289077589E1,2.546498489E1,-7.540262222E0,1.060407448E1
1.290744183E1,9.757838249E0,-9.905365944E0,9.063716888E0
1.292410776E1,1.935729027E0,-1.099966335E1,4.989645958E0
1.294077370E1,-6.387200356E-1,-1.143630219E1,5.261431932E-1
1.295743964E1,-2.621003628E0,-1.168030167E1,-3.644188404E0
1.297410558E1,-4.111180305E0,-1.138671112E1,-6.197338104E0
1.299077151E1,-4.657249451E0,-1.077631950E1,-6.964344978E0
1.300743745E1,-4.855511665E0,-1.011197090E1,-6.080379486E0
1.302410339E1,-4.935686588E0,-1.030318356E1,-3.562842846E0
1.304076933E1,-6.170017242E0,-1.076247978E1,4.936035275E-1
1.305743526E1,-7.390636921E0,-1.148825932E1,4.370205879E0
1.307410120E1,-9.279427528E0,-1.210289001E1,4.661238670E0
1.309076714E1,-1.115662670E1,-1.255451488E1,2.651780128E0
1.310743308E1,-1.271398830E1,-1.119973087E1,-1.193645239E0
1.312409901E1,-1.291256523E1,-8.855463028E0,-2.617431402E0
1.314076495E1,-1.172580433E1,-7.119544029E0,-1.005412579E0
1.315743089E1,-1.105573654E1,-6.879816055E0,3.545432568E0
1.317409683E1,-1.126058006E1,-5.981969833E0,8.691021919E0
1.319076276E1,-7.078791618E0,-5.003036499E0,1.548012257E1
1.320742870E1,2.194692135E0,-3.789609909E0,2.066557693E1
1.322409464E1,1.083452606E1,-2.351767063E0,2.207645226E1
1.324076058E1,1.403025818E1,-1.348304749E-1,1.670429230E1
1.325742651E1,1.365638733E1,8.833570480E-1,8.850381851E0
1.327409245E1,1.051518154E1,1.056021690E0,1.554564834E0
1.329075839E1,6.723026752E0,-1.466341019E-1,-3.222128868E0
1.330742433E1,4.099260807E0,-2.792889118E0,-3.795608997E0
1.332409026E1,2.492264748E0,-4.922060966E0,-3.184568405E0
1.334075620E1,3.140336037E0,-6.748626232E0,-2.560910225E0
1.335742214E1,4.896644115E0,-6.826402664E0,-3.924372196E0
1.337408808E1,6.777339935E0,-5.533005238E0,-8.669320107E0
1.339075401E1,1.117727280E1,-3.263859272E0,-1.169387150E1
1.340741995E1,1.477764606E1,-1.223043680E0,-9.695195198E0
1.342408589E1,1.496067142E1,1.252973557E0,-5.471018314E0
1.344075183E1,1.404179096E1,4.094191074E0,-2.222991228E0
1.345741776E1,1.272602463E1,5.408961296E0,-6.880648732E-1
1.347408370E1,8.053495407E0,5.361946106E0,1.418359518E0
1.349074964E1,2.021059990E0,4.121800423E0,3.108051777E0
1.350741558E1,-2.531959057E0,3.269830465E0,3.537186146E0
1.352408151E1,-6.130315781E0,3.715746164E0,3.204731703E0
1.354074745E1,-8.972681046E0,4.954312801E0,3.642785072E0
1.355741339E1,-1.089999294E1,7.383303642E0,5.033684731E0
1.357407933E1,-1.174676991E1,1.060934925E1,5.853495598E0
1.359074526E1,-1.098369408E1,1.457187366E1,6.766962051E0
1.360741120E1,-7.845139027E0,1.755976677E1,9.561907768E0
1.362407714E1,-1.769042492E0,1.781069565E1,1.551292038E1
1.364074308E1,5.459658623E0,1.551368141E1,2.084597969E1
1.365740901E1,7.561536789E0,1.222661877E1,1.856825447E1
1.367407495E1,4.125585556E0,9.644785881E0,1.300534344E1
1.369074089E1,-6.895475388E-1,7.424831390E0,9.831764221E0
1.370740683E1,-2.756006718E0,4.937842369E0,1.163656235E1
1.372407276E1,-2.208714962E0,2.435673475E0,1.508728409E1
1.374073870E1,2.828216553E-1,5.983107090E-1,1.728936005E1
1.375740464E1,3.835620880E0,-1.104339361E-1,1.643267441E1
1.377407058E1,7.117806435E0,1.238052845E-1,1.427482605E1
1.379073651E1,1.008668518E1,6.389329433E-1,1.268244839E1
1.380740245E1,1.374815273E1,5.734021664E-1,1.324238777E1
1.382406839E1,1.951783180E1,-2.378100395E0,1.458705521E1
1.384073433E1,2.093356323E1,-6.477923870E0,1.047791481E1
1.385740026E1,1.705313492E1,-1.144014835E1,7.002666950E0
1.387406620E1,1.011816406E1,-1.667950439E1,6.717689037E0
1.389073214E1,1.230849266E0,-1.968309402E1,8.024953842E0
1.390739808E1,-6.560785294E0,-2.039285088E1,6.478774548E0
1.392406401E1,-1.041621780E1,-1.956423187E1,2.044743061E0
1.394072995E1,-1.074935913E1,-1.864323235E1,-3.300819874E0
1.395739589E1,-1.049673367E1,-1.716467667E1,-8.308114052E0
1.397406183E1,-1.050335503E1,-1.552819252E1,-1.131950474E1
1.399072776E1,-9.980190277E0,-1.387872696E1,-1.222902203E1
1.400739370E1,-7.714774132E0,-1.268347454E1,-1.235208130E1
1.402405964E1,-5.829307556E0,-1.128630257E1,-1.225018120E1
1.404072558E1,-4.679427624E0,-1.060451984E1,-1.132808208E1
1.405739151E1,-2.645772457E0,-1.066861820E1,-9.581500053E0
1.407405745E1,1.605895996E0,-1.026497650E1,-7.890851974E0
1.409072339E1,5.571619987E0,-7.733749866E0,-5.238479137E0
1.410738933E1,1.238966846E1,-2.760505438E0,-5.933613181E-1
1.412405526E1,2.262063789E1,5.315771103E0,8.321664810E0
1.414072120E1,3.504515457E1,1.161386681E1,1.609506416E1
1.415738714E1,3.678504944E1,1.714642334E1,1.746832466E1
1.417405308E1,2.544995880E1,2.089568520E1,1.336348152E1
1.419071901E1,1.412402058E1,2.150374985E1,8.534419060E0
1.420738495E1,6.412310600E0,2.046164513E1,5.607747555E0
1.422405089E1,3.202590942E-1,1.988328743E1,5.006740570E0
1.424071683E1,-2.720868587E0,1.963482094E1,6.314533234E0
1.425738276E1,-3.260332108E0,1.894412994E1,7.770864487E0
1.427404870E1,-2.355162621E0,1.804972267E1,8.389419556E0
1.429071464E1,-1.136823654E0,1.694514084E1,7.453287601E0
1.430738058E1,-9.513597488E-1,1.564185238E1,5.679237366E0
1.432404651E1,-1.668202877E0,1.403907013E1,4.901680470E0
1.434071245E1,-2.572001934E0,1.245226288E1,5.938787460E0
1.435737839E1,-4.045286179E-1,1.020459652E1,6.941915512E0
1.437404433E1,4.064224243E0,8.144569397E0,7.806068420E0
1.439071026E1,8.141932487E0,7.269300461E0,7.902896404E0
1.440737620E1,1.197296619E1,9.246225357E0,1.004367924E1
1.442404214E1,1.966359520E1,1.264239407E1,1.648536682E1
1.444070808E1,3.096551514E1,1.200925446E1,2.478173256E1
1.445737401E1,3.757654572E1,5.867148399E0,2.615272903E1
1.447403995E1,3.687343216E1,-3.395507574E0,2.157009125E1
1.449070589E1,3.053063202E1,-1.291283226E1,1.557473373E1
1.450737183E1,2.082753754E1,-2.260103989E1,9.564250946E0
1.452403776E1,1.079045105E1,-3.066362000E1,6.724751949E0
1.454070370E1,5.076534271E0,-3.720867157E1,5.757261276E0
1.455736964E1,2.260096073E0,-4.134952545E1,1.726088762E0
1.457403558E1,-1.609562993E0,-4.092980576E1,-4.563960075E0
1.459070151E1,-5.608758926E0,-3.781945801E1,-1.010069561E1
1.460736745E1,-8.726258278E0,-3.363400269E1,-1.261086845E1
1.462403339E1,-1.053715992E1,-3.019186974E1,-1.265642071E1
1.464069933E1,-1.063852215E1,-2.722185135E1,-1.069708443E1
1.465736526E1,-8.144403458E0,-2.507593155E1,-7.958761215E0
1.467403120E1,-3.666895390E0,-2.311449814E1,-6.527946949E0
1.469069714E1,2.032450199E0,-2.122666740E1,-6.205672264E0
1.470736308E1,8.748774529E0,-1.864824486E1,-6.852585793E0
1.472402901E1,1.386719704E1,-1.506016922E1,-8.670845032E0
1.474069495E1,1.798638344E1,-1.077626991E1,-1.019813728E1
1.475736089E1,2.189010620E1,-4.298373222E0,-4.278104782E0
1.477402683E1,3.396162415E1,3.179201365E0,1.150368595E1
1.479069276E1,4.610445786E1,8.176189423E0,1.980271530E1
1.480735870E1,4.004184723E1,1.343384266E1,2.069014359E1
1.482402464E1,2.424841309E1,1.644623756E1,1.992492104E1
1.484069058E1,1.311600590E1,1.607304764E1,1.544215584E1
1.485735651E1,5.645030022E0,1.476787663E1,1.033715057E1
1.487402245E1,-5.174694061E-1,1.395114040E1,6.497678757E0
1.489068839E1,-4.810194492E0,1.413317776E1,4.749843597E0
1.490735433E1,-6.135476112E0,1.419777012E1,5.194467545E0
1.492402026E1,-6.026872635E0,1.509230614E1,7.552585602E0
1.494068620E1,-7.520002842E0,1.626076126E1,7.934434891E0
1.495735214E1,-9.076572418E0,1.743684769E1,6.829349995E0
1.497401808E1,-1.002219582E1,1.830687904E1,6.000896454E0
1.499068401E1,-1.113506889E1,1.771301842E1,5.560739517E0
1.500734995E1,-1.105857849E1,1.521700001E1,6.586412430E0
1.502401589E1,-9.551005363E0,1.158417892E1,9.121921539E0
1.504068182E1,-7.307960033E0,8.391947746E0,1.048753166E1
1.505734776E1,-3.439361572E0,6.471913338E0,1.169168472E1
1.507401370E1,3.369890213E0,5.102888584E0,1.331817722E1
1.509067964E1,1.093062592E1,3.891452789E0,1.347157574E1
1.510734558E1,1.626135254E1,3.983675003E0,1.135353279E1
1.512401151E1,1.936719894E1,4.601421833E0,9.852466583E0
1.514067745E1,2.470245743E1,4.239537239E0,1.160243416E1
1.515734339E1,3.017516136E1,-1.684174061E0,1.252696609E1
1.517400932E1,2.671435547E1,-7.905406952E0,1.156525326E1
1.519067526E1,1.712988853E1,-1.280074310E1,8.788311005E0
1.520734120E1,8.280922890E0,-1.624259949E1,6.487174034E0
1.522400714E1,3.176121235E0,-1.926963043E1,3.758435726E0
1.524067308E1,1.074280739E-1,-2.149071121E1,-4.152674675E-1
1.525733901E1,-2.687809706E0,-2.161522293E1,-4.280525208E0
1.527400495E1,-4.350702763E0,-2.186166382E1,-7.009258270E0
1.529067089E1,-5.922283173E0,-2.223757553E1,-9.175132751E0
1.530733682E1,-8.016924858E0,-2.221787262E1,-1.067725945E1
1.532400276E1,-1.029466438E1,-2.311755371E1,-1.218197346E1
1.534066870E1,-1.326259232E1,-2.356029320E1,-1.399466705E1
1.535733464E1,-1.491251278E1,-2.298974419E1,-1.408113956E1
1.537400058E1,-1.353192043E1,-2.192168427E1,-1.275744724E1
1.539066651E1,-7.080423355E0,-2.118002129E1,-1.187649059E1
1.540733245E1,4.496238708E0,-2.078334045E1,-9.723497391E0
1.542399839E1,1.587840462E1,-1.648512268E1,-4.457077503E0
1.544066432E1,1.758102989E1,-6.096346855E0,2.503597498E0
1.545733026E1,2.338179398E1,5.302714825E0,1.645483208E1
1.547399620E1,4.426888275E1,7.746119022E0,3.437255859E1
1.549066214E1,4.727994156E1,1.101457691E1,2.968134499E1
1.550732808E1,3.021274948E1,1.496731091E1,1.184857273E1
1.552399401E1,1.411998081E1,1.311860657E1,2.064199924E0
1.554065995E1,1.776422501E0,9.065330505E0,-1.291658163E0
1.555732589E1,-9.051913261E0,6.082201958E0,5.920724869E-1
1.557399182E1,-1.493003845E1,5.557234764E0,7.688071251E0
1.559065776E1,-1.496636009E1,6.437846184E0,1.209525299E1
1.560732370E1,-1.002097511E1,8.029112816E0,9.905162811E0
1.562398964E1,-5.876240730E0,1.120063972E1,5.060345173E0
1.564065558E1,-5.961855888E0,1.352798843E1,-4.102104902E-2
1.565732151E1,-9.160907745E0,1.501666451E1,-3.082015991E0
1.567398745E1,-1.155790424E1,1.446928787E1,-1.058656573E0
1.569065339E1,-1.245718193E1,1.301999092E1,3.981368542E0
1.570731932E1,-1.152162552E1,1.100196648E1,7.739994049E0
1.572398526E1,-9.984935760E0,9.181571007E0,8.758950233E0
1.574065120E1,-8.733011246E0,7.641332626E0,5.437529564E0
1.575731714E1,-5.822473526E0,6.558490276E0,2.359266758E0
1.577398308E1,-1.593218327E0,5.892151356E0,1.680174947E0
1.579064901E1,3.275076866E0,6.210452557E0,3.366109133E0
1.580731495E1,1.183300781E1,7.418874264E0,7.457062244E0
1.582398089E1,2.363511848E1,9.775032043E0,1.000599575E1
1.584064682E1,3.784931946E1,8.811170578E0,8.112230301E0
1.585731276E1,4.184308243E1,3.015244484E0,3.471633434E0
1.587397870E1,3.401501083E1,-5.051330566E0,4.275775433E0
1.589064464E1,2.100382233E1,-1.182282829E1,7.720655441E0
1.590731058E1,9.181906700E0,-1.683135223E1,8.381689072E0
1.592397651E1,1.450181961E0,-1.937304688E1,5.825909615E0
1.594064245E1,-2.812374115E0,-1.999618340E1,7.738006711E-1
1.595730839E1,-4.969214439E0,-1.944194984E1,-4.975638866E0
1.597397432E1,-6.041927338E0,-1.841922569E1,-8.617183685E0
1.599064026E1,-6.907457829E0,-1.741736603E1,-1.011813450E1
1.600730620E1,-7.738331795E0,-1.652273369E1,-1.030996609E1
1.602397214E1,-8.080320358E0,-1.654179192E1,-9.449387550E0
1.604063808E1,-9.183382988E0,-1.623208237E1,-8.996036530E0
1.605730401E1,-1.055871868E1,-1.532729721E1,-8.096451759E0
1.607396995E1,-1.109078598E1,-1.448258018E1,-6.467586517E0
1.609063589E1,-1.046151161E1,-1.383019447E1,-4.248795509E0
1.610730182E1,-8.966403008E0,-1.311847687E1,-2.074370146E0
1.612396776E1,-7.356184959E0,-1.128419876E1,-1.398703218E0
1.614063370E1,-5.489014149E0,-9.125151634E0,-4.013288498E0
1.615729964E1,-2.502407551E0,-6.729348183E0,-5.261847496E0
1.617396558E1,1.488328934E0,-2.231699228E0,-3.615900278E-1
1.619063151E1,1.731794357E1,2.979288340E0,1.753838158E1
1.620729745E1,3.974066925E1,6.688186169E0,3.478092575E1
1.622396339E1,4.206249619E1,1.025741959E1,2.563949966E1
1.624062932E1,2.722120285E1,1.421823406E1,1.088850975E1
1.625729526E1,1.356689072E1,1.397425365E1,3.072553873E0
1.627396120E1,4.275696754E0,1.238507366E1,4.227060795E0
1.629062714E1,-2.936465740E0,9.026944160E0,5.635716438E0
1.630729308E1,-9.130920410E0,7.385179520E0,4.887026787E0
1.632395901E1,-1.191560650E1,6.675371170E0,2.461557150E0
1.634062495E1,-1.243502331E1,6.161560059E0,-3.695147038E-1
1.635729089E1,-1.218130207E1,5.110044003E0,-2.767549276E0
1.637395682E1,-1.167917347E1,3.731455326E0,-3.926629543E0
1.639062276E1,-1.057727718E1,2.812299252E0,-3.590725899E0
1.640728870E1,-9.095304489E0,1.591845989E0,-2.376038313E0
1.642395464E1,-7.381159306E0,1.521048546E-1,-8.855840564E-1
1.644062058E1,-6.430977345E0,-8.315119743E-1,3.275628090E-1
1.645728651E1,-6.705938816E0,-1.962940693E0,1.131985903E0
1.647395245E1,-6.957476616E0,-1.763753176E0,2.251210451E0
1.649061839E1,-4.709959030E-2,-3.093108892E0,6.384944439E0
1.650728432E1,1.098572350E1,-8.740835190E-1,1.287131786E1
1.652395026E1,2.510868835E1,-3.465276718E0,1.580245590E1
1.654061620E1,2.991569519E1,-6.128056526E0,1.493250656E1
1.655728214E1,2.266832924E1,-7.780815125E0,1.314594173E1
1.657394808E1,1.223869610E1,-9.871346474E0,1.294649506E1
1.659061401E1,3.083150864E0,-1.086802101E1,1.232181740E1
1.660727995E1,-2.832862854E0,-1.090440559E1,1.113658905E1
1.662394589E1,-5.203184605E0,-1.070570374E1,8.770272255E0
1.664061182E1,-5.400689125E0,-1.069461536E1,5.463115215E0
1.665727776E1,-5.532884598E0,-1.021957970E1,2.407104254E0
1.667394370E1,-6.326871872E0,-9.382426262E0,-5.421435833E-2
1.669060964E1,-8.174956322E0,-7.747416019E0,-1.695521116E0
1.670727558E1,-1.059436226E1,-5.694124222E0,-2.894014597E0
1.672394151E1,-1.272034359E1,-3.548418283E0,-3.171503067E0
1.674060745E1,-1.402057838E1,-2.129232645E0,-1.718885899E0
1.675727339E1,-1.330463791E1,-1.682108164E0,1.173772454E0
1.677393932E1,-8.839552879E0,-2.142906904E0,6.845373631E0
1.679060526E1,-1.374883175E0,-2.599094391E0,1.461991692E1
1.680727120E1,3.827065468E0,-3.514184237E0,2.245099449E1
1.682393714E1,3.757431030E0,-3.021519423E0,2.327914047E1
1.684060308E1,4.133933067E0,-2.643932819E0,1.771969604E1
1.685726901E1,6.804614067E0,-2.538768291E0,1.203005028E1
1.687393495E1,9.082966805E0,-2.082192421E0,8.621488571E0
1.689060089E1,9.547300339E0,-1.309332371E0,6.778341293E0
1.690726682E1,7.886774063E0,-1.478779316E-1,6.973918915E0
1.692393276E1,7.290880203E0,-2.271103859E-1,7.198683739E0
1.694059870E1,8.815721512E0,-2.612774372E0,6.018479824E0
1.695726464E1,9.280644417E0,-4.895223618E0,3.427298546E0
1.697393058E1,8.484583855E0,-6.670000553E0,1.251811266E0
1.699059651E1,8.233028412E0,-7.476989269E0,2.454698086E-1
1.700726245E1,7.400537491E0,-7.171559334E0,-1.256105185E0
1.702392839E1,2.572110176E0,-5.540190697E0,-4.480190754E0
1.704059432E1,-3.048771381E0,-3.696126461E0,-8.112718582E0
1.705726026E1,-6.399440765E0,-2.625516891E0,-9.283974648E0
1.707392620E1,-7.786281586E0,-2.355126858E0,-8.080763817E0
1.709059214E1,-7.935698509E0,-1.934105515E0,-5.876433372E0
1.710725808E1,-8.189409256E0,-1.334057093E0,-4.851645470E0
1.712392401E1,-8.586683273E0,-7.377344966E-1,-4.999252319E0
1.714058995E1,-8.161075592E0,-4.388881326E-1,-5.138730526E0
1.715725589E1,-7.374329090E0,1.023305655E-1,-4.728433609E0
1.717392182E1,-6.694352150E0,8.561000228E-1,-4.381766796E0
1.719058776E1,-4.523548126E0,1.822273493E0,-3.676480293E0
1.720725370E1,-7.759799957E-1,3.320317268E0,-3.088061571E0
1.722391964E1,3.468087196E0,5.082304001E0,-1.529908419E0
1.724058558E1,9.035249710E0,5.984983444E0,3.438605070E0
1.725725151E1,1.548282146E1,6.536776066E0,1.069084549E1
1.727391745E1,2.063763809E1,6.542422771E0,1.621271324E1
1.729058339E1,2.062115097E1,6.443936825E0,1.807379150E1
1.730724932E1,1.571993828E1,5.736579895E0,1.593945408E1
1.732391526E1,8.665127754E0,4.861485958E0,1.129734802E1
1.734058120E1,2.397034645E0,4.882712364E0,6.673899174E0
1.735724714E1,-1.085461617E0,5.098705292E0,3.116571188E0
1.737391308E1,-2.594286442E0,5.330293179E0,1.030896187E0
1.739057901E1,-3.028968334E0,5.515655041E0,1.782411337E-2
1.740724495E1,-3.311274052E0,5.594834328E0,-1.208900213E-1
1.742391089E1,-3.910302639E0,5.299641609E0,-2.216661572E-1
1.744057682E1,-4.585095882E0,4.881278992E0,6.370425224E-2
1.745724276E1,-5.182363510E0,4.494995594E0,4.441425800E-1
1.747390870E1,-5.292102337E0,4.121980667E0,6.205582619E-1
1.749057464E1,-5.011692524E0,3.546605110E0,1.376869321E0
1.750724058E1,-4.849426270E0,3.102620125E0,2.368050337E0
1.752390651E1,-4.735698223E0,2.632487297E0,3.015609980E0
1.754057245E1,-4.110495090E0,2.290645599E0,3.550328493E0
1.755723839E1,-3.747628689E0,2.386734009E0,3.340209007E0
1.757390432E1,-3.145526409E0,3.433819771E0,3.385672569E0
1.759057026E1,-1.856077671E0,4.523879051E0,6.314297676E0
1.760723620E1,1.905282021E0,4.696789742E0,1.433010101E1
1.762390214E1,1.093369770E1,3.321549177E0,2.060394287E1
1.764056808E1,2.031579208E1,1.049216270E0,1.832775688E1
1.765723401E1,2.326365852E1,4.836130142E-1,1.037304878E1
1.767389995E1,2.077117538E1,-9.522876740E-1,2.977226973E0
1.769056589E1,1.520052433E1,-4.464732647E0,4.013178349E-1
1.770723182E1,8.622690201E0,-8.295536995E0,2.376759768E0
1.772389776E1,3.495437622E0,-1.245727730E1,5.038035393E0
1.774056370E1,3.899326324E-1,-1.493835449E1,5.249773979E0
1.775722964E1,-6.624655724E-1,-1.700461960E1,2.615540266E0
1.777389558E1,-1.817920685E0,-1.791609383E1,-3.224084377E-1
1.779056151E1,-3.823072433E0,-1.726577568E1,-2.217807055E0
1.780722745E1,-5.950743675E0,-1.635826492E1,-3.527815819E0
1.782389339E1,-7.611226559E0,-1.554124355E1,-4.715714455E0
1.784055932E1,-8.302800179E0,-1.480742836E1,-6.001264095E0
1.785722526E1,-8.380518913E0,-1.369086361E1,-6.963206291E0
1.787389120E1,-8.235188484E0,-1.236657810E1,-6.757284164E0
1.789055714E1,-8.226766586E0,-1.148179436E1,-5.873177528E0
1.790722308E1,-8.340226173E0,-1.065015030E1,-5.104524136E0
1.792388901E1,-8.062952995E0,-1.016254044E1,-4.315652847E0
1.794055495E1,-7.126113892E0,-9.611534119E0,-4.275206566E0
1.795722089E1,-4.645865440E0,-8.914342880E0,-5.354048729E0
1.797388682E1,-1.849634171E0,-7.360778809E0,-7.623749256E0
1.799055276E1,2.946375847E0,-4.377212048E0,-8.300380707E0
1.800721870E1,1.242049408E1,-1.684646130E0,-4.621988773E0
1.802388464E1,2.307394409E1,1.920405149E0,8.944249153E-1
1.804055058E1,2.900005722E1,5.884619236E0,7.016397476E0
1.805721651E1,2.734781265E1,7.977823257E0,1.297355461E1
1.807388245E1,2.019305420E1,9.623689651E0,1.623629189E1
1.809054839E1,1.087503338E1,1.029011536E1,1.264342880E1
1.810721432E1,3.489529610E0,1.047457504E1,6.566869259E0
1.812388026E1,-1.056300163E0,1.082957172E1,1.493797779E0
1.814054620E1,-3.131555080E0,1.111779690E1,-1.202565193E0
1.815721214E1,-4.177093506E0,1.112337875E1,-2.025153637E0
1.817387808E1,-5.643607616E0,1.085450745E1,-1.436555266E0
1.819054401E1,-7.504414558E0,1.031418896E1,-1.153950691E-1
1.820720995E1,-8.516872406E0,9.671420097E0,1.001414537E0
1.822387589E1,-8.997750282E0,9.093706131E0,1.943607092E0
1.824054182E1,-1.048506927E1,8.357295036E0,2.577387333E0
1.825720776E1,-1.149457550E1,7.064079285E0,3.482615709E0
1.827387370E1,-1.087476349E1,6.001668930E0,5.065030575E0
1.829053964E1,-8.432919502E0,5.047378063E0,6.393892288E0
1.830720558E1,-5.050084114E0,4.921507835E0,6.926812172E0
1.832387151E1,-1.634379387E0,6.920446396E0,6.780078888E0
1.834053745E1,2.421854973E0,9.005208015E0,9.279716492E0
1.835720339E1,1.256902695E1,7.717080116E0,1.551296806E1
1.837386932E1,2.465918732E1,4.380683899E0,1.844340134E1
1.839053526E1,2.793914604E1,1.822413445E0,1.178035355E1
1.840720120E1,2.350712204E1,-4.008278847E-1,3.336305618E0
1.842386714E1,1.555084419E1,-3.850136280E0,-8.404766917E-1
1.844053308E1,7.656006813E0,-7.250086308E0,1.781787872E-1
1.845719901E1,1.979685307E0,-1.002480316E1,3.365313053E0
1.847386495E1,-9.082617760E-1,-1.231884670E1,4.746332169E0
1.849053089E1,-1.756944656E0,-1.397216892E1,3.385413647E0
1.850719682E1,-2.201687336E0,-1.495029449E1,1.708972454E-1
1.852386276E1,-3.015494823E0,-1.560649872E1,-2.860272884E0
1.854052870E1,-4.211542130E0,-1.578789902E1,-4.760208607E0
1.855719464E1,-5.277977943E0,-1.576418877E1,-5.904979229E0
1.857386058E1,-6.156474113E0,-1.550562096E1,-6.373569012E0
1.859052651E1,-7.172975540E0,-1.515002441E1,-7.369457245E0
1.860719245E1,-8.265208244E0,-1.432119179E1,-8.185204506E0
1.862385839E1,-9.335462570E0,-1.345310211E1,-8.731113434E0
1.864052432E1,-1.000847816E1,-1.290138531E1,-8.642318726E0
1.865719026E1,-9.952044487E0,-1.277338123E1,-7.275438786E0
1.867385620E1,-9.341917038E0,-1.271037865E1,-6.128857613E0
1.869052214E1,-7.376824379E0,-1.295755768E1,-6.672014713E0
1.870718808E1,-3.305885315E0,-1.243990517E1,-7.419188499E0
1.872385401E1,3.638344765E0,-9.143985748E0,-5.154097557E0
1.874051995E1,1.619703674E1,-4.251317978E0,9.561215639E-1
1.875718589E1,3.431586075E1,1.416530967E0,7.660855293E0
1.877385182E1,4.476602554E1,6.788410187E0,1.129392529E1
1.879051776E1,3.761421204E1,9.256264687E0,1.427302742E1
1.880718370E1,2.034375381E1,9.685404778E0,1.490538883E1
1.882384964E1,6.070144653E0,9.343182564E0,1.078412819E1
1.884051558E1,-1.399591446E0,8.897067070E0,5.272662640E0
1.885718151E1,-4.180965900E0,8.777809143E0,1.189811945E0
1.887384745E1,-5.765349388E0,9.208753586E0,-1.026200771E0
1.889051339E1,-7.401561737E0,9.455745697E0,-1.774442077E0
1.890717932E1,-9.303741455E0,9.618365288E0,-1.344263196E0
1.892384526E1,-1.045610332E1,9.986729622E0,6.675720215E-2
1.894051120E1,-8.825381279E0,9.951319695E0,2.600542307E0
1.895717714E1,-7.059463501E0,1.051408672E1,4.239706993E0
1.897384308E1,-7.895935535E0,1.089397049E1,4.586958885E0
1.899050901E1,-9.558028221E0,1.009311581E1,4.671388626E0
1.900717495E1,-1.022889519E1,8.624651909E0,5.715196133E0
1.902384089E1,-9.032400131E0,6.622445583E0,6.556488514E0
1.904050682E1,-6.629179955E0,5.117441177E0,6.721104622E0
1.905717276E1,-4.209502697E0,5.601866722E0,6.289990902E0
1.907383870E1,-9.727330208E-1,7.583622932E0,7.146008492E0
1.909050464E1,6.635127068E0,8.164010048E0,9.666135788E0
1.910717058E1,1.877648926E1,6.510313988E0,1.340406227E1
1.912383651E1,2.937278748E1,4.409019470E0,1.258509254E1
1.914050245E1,3.147850037E1,1.309710503E0,7.744770050E0
1.915716839E1,2.540411377E1,-2.965592146E0,5.554955482E0
1.917383432E1,1.581677246E1,-7.615186214E0,5.242938995E0
1.919050026E1,7.028508663E0,-1.120041275E1,5.439782619E0
1.920716620E1,1.642889977E0,-1.379927158E1,5.303814888E0
1.922383214E1,-6.564011574E-1,-1.567814445E1,3.553482533E0
1.924049808E1,-1.843860626E0,-1.665532875E1,2.480947971E-1
1.925716401E1,-2.764221668E0,-1.692082024E1,-2.893470049E0
1.927382995E1,-3.225263834E0,-1.681873703E1,-5.454101562E0
1.929049589E1,-3.453734398E0,-1.657857895E1,-7.162550926E0
1.930716182E1,-4.334695339E0,-1.556324482E1,-7.771990299E0
1.932382776E1,-5.524606705E0,-1.435649109E1,-7.954358578E0
1.934049370E1,-6.639541626E0,-1.355147362E1,-8.276593208E0
1.935715964E1,-8.270397186E0,-1.268557739E1,-8.944067955E0
1.937382558E1,-1.112811565E1,-1.136429405E1,-1.058862400E1
1.939049151E1,-1.206076813E1,-1.021246052E1,-1.139197540E1
1.940715745E1,-8.618171692E0,-1.059754181E1,-1.108327961E1
1.942382339E1,-4.048668861E0,-1.079443741E1,-1.139669991E1
1.944048932E1,1.844410896E-1,-6.227973461E0,-9.428359985E0
1.945715526E1,1.299520588E1,6.853709221E-1,-1.262441635E0
1.947382120E1,3.737145996E1,4.152758121E0,1.275060081E1
1.949048714E1,4.548828888E1,7.831956863E0,1.846953011E1
1.950715308E1,3.073016357E1,9.029586792E0,1.371258926E1
1.952381901E1,1.156780624E1,7.329985142E0,7.202360153E0
1.954048495E1,-1.661758423E-1,5.576129436E0,3.450722456E0
1.955715089E1,-5.467104912E0,4.076296806E0,1.115103006E0
1.957381682E1,-7.635446548E0,3.068372250E0,2.178277969E-1
1.959048276E1,-8.811570168E0,2.336877823E0,-1.918191910E-1
1.960714870E1,-9.834977150E0,1.383917809E0,-4.004402161E-1
1.962381464E1,-1.070696831E1,4.534649849E-1,-4.663715363E-1
1.964048058E1,-9.348134995E0,-3.225107193E-1,-1.862993240E-1
1.965714651E1,-7.360172272E0,6.394386292E-4,1.296532154E0
1.967381245E1,-7.861617088E0,1.452576637E0,2.109272242E0
1.969047839E1,-9.574511528E0,2.837853909E0,1.926271677E0
1.970714432E1,-1.043237019E1,3.336185932E0,2.356565714E0
1.972381026E1,-1.103445435E1,3.347306728E0,3.140451431E0
1.974047620E1,-1.197631741E1,2.482577324E0,3.681631565E0
1.975714214E1,-1.200098038E1,1.308605671E0,4.247547626E0
1.977380808E1,-1.064664555E1,4.966950417E-1,3.451131105E0
1.979047401E1,-9.459714890E0,1.669397354E0,1.361217499E0
1.980713995E1,-1.007746887E1,6.322556019E0,7.969214916E-1
1.982380589E1,-5.456948280E0,1.045052624E1,5.918126106E0
1.984047182E1,8.818603516E0,1.171374512E1,1.661906052E1
1.985713776E1,2.950146484E1,1.095664597E1,2.760296822E1
1.987380370E1,4.193686676E1,8.914303780E0,2.481838989E1
1.989046964E1,3.674287415E1,6.235626698E0,1.392965221E1
1.990713558E1,2.250054169E1,8.631777763E-1,6.045297623E0
1.992380151E1,9.354771614E0,-4.386203289E0,2.296595812E0
1.994046745E1,1.589150906E0,-8.478330612E0,2.347480059E0
1.995713339E1,-1.937846661E0,-1.136833763E1,3.069354773E0
1.997379932E1,-2.839502573E0,-1.352200508E1,2.522169113E0
1.999046526E1,-2.471185923E0,-1.496342278E1,3.866038322E-1
2.000713120E1,-1.744187593E0,-1.567016125E1,-1.714542508E0
2.002379714E1,-1.204167366E0,-1.579641151E1,-3.210124493E0
2.004046308E1,-1.085669994E0,-1.582639408E1,-4.701378822E0
2.005712901E1,-1.626512766E0,-1.543970871E1,-6.182687759E0
2.007379495E1,-2.924357653E0,-1.471065712E1,-7.638391972E0
2.009046089E1,-4.676023006E0,-1.357634354E1,-8.166770935E0
2.010712682E1,-5.946971416E0,-1.285330963E1,-8.463584900E0
2.012379276E1,-6.168991566E0,-1.272820091E1,-7.369022846E0
2.014045870E1,-5.914159775E0,-1.294295120E1,-6.483814240E0
2.015712464E1,-5.009246826E0,-1.347479248E1,-6.852841377E0
2.017379058E1,-4.461038113E0,-1.358834076E1,-8.982823372E0
2.019045651E1,-5.659339905E0,-1.026348877E1,-1.261838627E1
2.020712245E1,-3.566757202E0,-2.889335155E0,-9.652775764E0
2.022378839E1,1.389724159E1,6.064686775E-1,5.005421162E0
2.024045432E1,4.189331055E1,3.209560394E0,2.863184929E1
2.025712026E1,4.717757034E1,8.045915604E0,2.722423744E1
2.027378620E1,2.887701035E1,1.219775581E1,1.488343334E1
2.029045214E1,1.305015659E1,1.011612320E1,4.285662651E0
2.030711808E1,2.509877682E0,7.515530109E0,-1.299633980E-1
2.032378401E1,-3.488093853E0,4.749096394E0,-1.445322514E0
2.034044995E1,-6.302268505E0,2.323386669E0,-1.059582710E0
2.035711589E1,-7.376502514E0,4.975256920E-1,-5.120337009E-1
2.037378183E1,-8.158460617E0,-8.673911095E-1,-7.997848988E-1
2.039044776E1,-9.080342293E0,-1.620148659E0,-1.482939959E0
2.040711370E1,-9.854903221E0,-1.856941938E0,-2.131878614E0
2.042377964E1,-1.018928337E1,-1.845524073E0,-2.733863592E0
2.044044558E1,-1.001403427E1,-1.802319765E0,-2.958110332E0
2.045711151E1,-9.642306328E0,-1.200333595E0,-2.470893145E0
2.047377745E1,-9.220158577E0,-2.965965271E-1,-1.964530945E0
2.049044339E1,-7.788859367E0,4.608392715E-2,-9.210524559E-1
2.050710933E1,-6.375783920E0,6.428556442E-1,6.636571884E-1
2.052377526E1,-5.716291428E0,8.344745636E-1,2.538214684E0
2.054044120E1,-4.941016197E0,-2.411718369E-1,3.934756279E0
2.055710714E1,-5.060442924E0,-7.674074173E-2,4.572544098E0
2.057377308E1,-6.422283173E0,1.668497562E0,3.969845295E0
2.059043901E1,-8.151635170E0,5.112150192E0,2.308287144E0
2.060710495E1,-5.988508701E0,8.091780663E0,4.113893032E0
2.062377089E1,2.516916752E0,6.873244286E0,9.471954346E0
2.064043683E1,9.578310013E0,5.189608574E0,1.615336418E1
2.065710276E1,1.348279190E1,9.224705696E-1,1.825586891E1
2.067376870E1,1.417216110E1,-2.693237305E0,1.691577721E1
2.069043464E1,1.108091545E1,-2.850526810E0,1.286126518E1
2.070710058E1,7.149802685E0,-3.402131081E0,8.615694046E0
2.072376651E1,3.939791679E0,-4.532422543E0,5.366966248E0
2.074043245E1,1.752916813E0,-5.565601826E0,3.320371628E0
2.075709839E1,6.947077513E-1,-6.978134155E0,2.047343254E0
2.077376433E1,8.936288357E-1,-7.731181145E0,9.214782715E-1
2.079043026E1,2.578331709E0,-8.177912712E0,-1.852298737E0
2.080709620E1,4.079512119E0,-8.416852951E0,-5.184985161E0
2.082376214E1,3.922110558E0,-7.864198685E0,-7.298498154E0
2.084042808E1,4.995588303E0,-7.055522919E0,-8.184947014E0
2.085709401E1,3.599348068E0,-6.575924397E0,-8.900329590E0
2.087375995E1,3.315951347E0,-6.144925117E0,-8.466053963E0
2.089042589E1,3.811250448E0,-5.872793674E0,-7.684435844E0
2.090709183E1,4.300574780E0,-5.257467270E0,-7.524726868E0
2.092375776E1,4.449674129E0,-4.531143188E0,-7.773816109E0
2.094042370E1,4.095355034E0,-3.729320049E0,-7.892324448E0
2.095708964E1,2.333595276E0,-2.100575447E0,-8.207826614E0
2.097375558E1,-1.544842720E-1,3.783874512E-1,-6.612424850E0
2.099042151E1,-1.998624563E0,2.507710457E0,-3.488419056E0
2.100708745E1,-1.621235728E0,2.892385483E0,-4.539418221E-1
2.102375339E1,1.024983644E0,7.531137466E-1,1.720759392E0
2.104041933E1,3.247114658E0,-2.355384827E0,4.758127213E0
2.105708526E1,2.775069237E0,-3.810217381E0,9.084129333E0
2.107375120E1,2.036983013E0,-4.668097973E0,9.492418289E0
2.109041714E1,1.562726498E-2,-3.002824068E0,6.500625610E0
2.110708308E1,-1.140618443E0,1.244013309E-1,3.385154724E0
2.112374901E1,1.450961232E-1,1.154223442E0,5.020332336E-1
2.114041495E1,2.087611437E0,1.563351631E0,5.338096619E-2
2.115708089E1,2.586473227E0,1.821497440E0,1.060722351E0
2.117374683E1,2.043977499E0,1.516647100E0,2.327356339E0
2.119041276E1,1.746768594E0,1.957833767E-1,3.147782326E0
2.120707870E1,1.443670750E0,-4.154179096E-1,3.506193161E0
2.122374464E1,1.372811794E0,-9.175791740E-1,2.488986969E0
2.124041058E1,8.851264715E-1,-8.648300171E-1,1.072714806E0
2.125707651E1,2.055412531E-1,-4.744148254E-1,-6.753082275E-1
2.127374245E1,-3.272646666E-1,-3.092365265E-1,-1.900637150E0
2.129040839E1,-8.620702028E-1,-1.201438904E-1,-2.555905342E0
2.130707433E1,-1.303588748E0,1.271104813E-1,-2.794917583E0
2.132374026E1,-1.300458193E0,3.431129456E-1,-2.860640049E0
2.134040620E1,-1.166263580E0,6.070785522E-1,-2.705475330E0
2.135707214E1,-8.228698969E-1,8.394329548E-1,-2.565420151E0
2.137373808E1,-2.621647120E-1,7.286691666E-1,-1.868234158E0
2.139040401E1,2.139902115E-1,5.475392342E-1,-7.367143631E-1
2.140706995E1,2.572028637E-1,4.316568375E-1,2.009544373E-1
2.142373589E1,-1.265418530E-2,5.532796383E-1,4.732828140E-1
2.144040183E1,-1.032818556E-1,2.959582806E-1,8.675785065E-1
2.145706776E1,2.585264444E-1,3.461470604E-1,1.714838028E0
2.147373370E1,1.123332858E0,9.799504280E-2,1.994022369E0
2.149039964E1,1.816614509E0,1.811678410E-1,2.320593834E0
2.150706558E1,1.876427174E0,2.636106014E-1,2.065438271E0
2.152373151E1,7.999992371E-1,7.591979504E-1,1.630597115E0
2.154039745E1,-4.930721521E-1,6.618466377E-1,1.450429916E0
2.155706339E1,-1.020160079E0,-1.775622368E-2,1.831801414E0
2.157372933E1,-8.108446598E-1,-9.696813822E-1,2.445331573E0
2.159039526E1,-4.509019256E-1,-1.589223266E0,2.831381798E0
2.160706120E1,-1.456931829E-1,-1.806568623E0,2.609082222E0
2.162372714E1,5.748772621E-2,-1.731780648E0,1.988875389E0
2.164039308E1,-9.407472610E-2,-1.579294086E0,8.954019547E-1
2.165705901E1,-3.042351007E-1,-1.321408510E0,-3.612384796E-1
2.167372495E1,-2.329348326E-1,-1.022248983E0,-1.312495232E0
2.169039089E1,-1.306577921E-1,-5.983821154E-1,-1.691074848E0
2.170705683E1,-2.825039625E-1,-3.870743513E-1,-1.677525043E0
2.172372276E1,-6.134145260E-1,-1.347659826E-1,-1.426786423E0
2.174038870E1,-1.034858227E0,7.436466217E-2,-8.972234726E-1
2.175705464E1,-1.328759313E0,2.371454239E-2,-1.029958725E-1
2.177372058E1,-1.315251589E0,-8.748579025E-2,3.921184540E-1
2.179038651E1,-1.072901487E0,8.102345467E-2,4.271011353E-1
2.180705245E1,-6.625662446E-1,-1.534941196E-1,6.633234024E-1
2.182371839E1,-1.901957989E-1,-8.717209101E-1,1.263910294E0
2.184038433E1,1.689205170E-1,-1.329316616E0,1.798511505E0
2.185705026E1,2.800459862E-1,-1.384229183E0,1.682040215E0
2.187371620E1,5.906975269E-2,-1.124237180E0,9.233961105E-1
2.189038214E1,-5.098465085E-1,-7.698923349E-1,-1.842908859E-1
2.190704808E1,-9.659796953E-1,-4.533685446E-1,-1.289110184E0
2.192371401E1,-9.302887917E-1,-1.768262386E-1,-2.045937061E0
2.194037995E1,-7.625172138E-1,1.727342606E-2,-2.177038193E0
2.195704589E1,-4.754322767E-1,9.123075008E-2,-1.576613903E0
2.197371183E1,-2.132499218E-2,3.964898586E-1,-1.757427692E0
2.199037776E1,-2.177301645E-1,5.873243809E-1,-4.495258331E-1
2.200704370E1,-3.257758617E-1,3.658373356E-1,8.549404144E-2
2.202370964E1,2.015364170E-2,2.030330896E-1,6.792068481E-1
2.204037558E1,4.171224833E-1,-1.508883238E-1,8.822412491E-1
2.205704151E1,1.720650196E-1,-1.421943903E-1,8.523597717E-1
