"Time (s)","Acceleration x (m/s^2)","Acceleration y (m/s^2)","Acceleration z (m/s^2)"
5.075425000E-3,-4.337290287E0,6.236892223E0,5.370989323E0
2.174136300E-2,-4.202095509E0,5.997909069E0,5.447858810E0
3.840730000E-2,-5.357829094E0,6.970292568E0,6.896413803E0
5.507323800E-2,-4.280759811E0,7.190731049E0,6.625426769E0
7.173917500E-2,-3.315255880E0,5.557031631E0,5.159523964E0
8.840511300E-2,-2.812463999E0,5.097908497E0,4.162314892E0
1.050710500E-1,-2.504687071E0,5.031507969E0,3.526721478E0
1.217369880E-1,-1.812862277E0,4.705485821E0,3.662813187E0
1.384029250E-1,-1.700100541E0,4.767699242E0,4.246662140E0
1.550688630E-1,-1.657029629E0,5.000999451E0,5.314758301E0
1.717348000E-1,-1.155135155E0,5.105386257E0,6.001498222E0
1.884007380E-1,-1.826321840E0,5.913262844E0,6.596413612E0
2.050666750E-1,-2.759522676E0,7.433004379E0,7.528119087E0
2.217326130E-1,-2.767000198E0,8.322237015E0,7.962416649E0
2.383985500E-1,-5.261218548E-1,9.198907852E0,8.533702850E0
2.550644880E-1,1.463510156E0,9.474979401E0,7.184450150E0
2.717304250E-1,1.813759565E0,1.025982571E1,4.639982224E0
2.883963630E-1,9.475577474E-1,1.300738430E1,1.312463164E0
3.050623000E-1,3.613162339E-1,1.404257870E1,-3.281157911E-1
3.217282380E-1,-2.871387079E-2,1.292513084E1,1.130010486E0
3.383941750E-1,-1.231107235E0,1.054905796E1,3.059522867E0
3.550601130E-1,-2.554039001E0,6.904190540E0,3.083152056E0
3.717260500E-1,-2.926422119E0,3.030808926E0,3.628117323E0
3.883919880E-1,-3.585345745E0,-5.578267574E-1,4.064209461E0
4.050579250E-1,-3.578167200E0,-3.350848913E0,3.090928555E0
4.217238630E-1,-4.017848492E0,-5.618945599E0,2.429911375E0
4.383898000E-1,-5.362315655E0,-6.151648045E0,3.768994808E0
4.550557380E-1,-1.047428226E1,-4.704588413E0,6.489933014E0
4.717216750E-1,-1.689033699E1,-1.952244163E0,1.018684387E1
4.883876130E-1,-1.879980850E1,-2.246561289E0,1.066481018E1
5.050535500E-1,-1.651137352E1,-3.820739508E0,9.726525307E0
5.217194880E-1,-1.675185204E1,-4.968995094E0,7.251748085E0
5.383854250E-1,-2.111157417E1,-2.615355253E0,1.058674431E1
5.550513630E-1,-2.684567451E1,6.158527136E-1,1.640937996E1
5.717173000E-1,-2.754168701E1,3.719044685E0,1.910040855E1
5.883832380E-1,-2.573032188E1,8.175676346E0,1.834816360E1
6.050491750E-1,-2.392523575E1,1.084546852E1,1.555962849E1
6.217151130E-1,-1.883779526E1,1.127527905E1,1.392562962E1
6.383810500E-1,-1.179153061E1,9.730113983E0,1.409821224E1
6.550469880E-1,-6.632306099E0,7.609475136E0,1.402223969E1
6.717129250E-1,-4.929812908E0,6.787839413E0,1.242533016E1
6.883788630E-1,-4.556532383E0,7.320840836E0,1.185613728E1
7.050448000E-1,-4.256233215E0,7.818548203E0,1.129980564E1
7.217107380E-1,-4.199702740E0,9.716355324E0,8.656634331E0
7.383766750E-1,-2.759821892E0,9.824630737E0,5.714060307E0
7.550426130E-1,4.474578202E-1,8.382954597E0,3.608376503E0
7.717085500E-1,2.204686880E0,7.269095898E0,2.603989124E0
7.883744880E-1,1.915753603E0,5.983851433E0,2.081755638E0
8.050404250E-1,1.633101463E0,5.699404240E0,2.826521635E0
8.217063630E-1,1.416550994E0,6.090631008E0,3.603889942E0
8.383723000E-1,2.216351926E-1,6.598507404E0,3.609273911E0
8.550382380E-1,-1.006181955E0,5.983253002E0,2.987139940E0
8.717041750E-1,-1.855334878E0,4.940281391E0,3.439383507E0
8.883701130E-1,-2.935096025E0,4.822434902E0,5.855237007E0
9.050360500E-1,-6.442076683E0,5.626124382E0,8.077570915E0
9.217019880E-1,-1.185015488E1,4.558925152E0,8.005487442E0
9.383679250E-1,-1.433659649E1,9.562317729E-1,5.663212776E0
9.550338630E-1,-1.084965611E1,-7.926225066E-1,4.077070713E0
9.716998000E-1,-1.224766254E1,7.028916478E-1,7.273283482E0
9.883657380E-1,-1.933849335E1,2.031506538E0,1.447328663E1
1.005031675E0,-2.639283371E1,2.696711063E0,2.020648956E1
1.021697613E0,-2.767957497E1,1.894218206E0,1.932323837E1
1.038363550E0,-2.202383804E1,2.700898647E-1,1.430130291E1
1.055029488E0,-1.651705742E1,-1.333998680E0,1.001964569E1
1.071695425E0,-1.280907917E1,-2.343769789E0,7.526922703E0
1.088361363E0,-1.022303581E1,-2.350948334E0,5.120640278E0
1.105027300E0,-7.850851059E0,-1.718046665E0,2.405085802E0
1.121693238E0,-5.147858620E0,-8.365905881E-1,3.984049559E-1
1.138359175E0,-4.295116425E0,-3.179463148E-1,2.566302419E-1
1.155025113E0,-5.968895912E0,7.064808607E-1,1.131505966E0
1.171691050E0,-7.176374435E0,2.034198284E0,2.176272154E0
1.188356988E0,-5.995516300E0,2.471486807E0,1.863709688E0
1.205022925E0,-4.019941807E0,2.119442701E0,3.867399693E-1
1.221688863E0,-2.337787628E0,1.296610713E0,-1.373181105E0
1.238354800E0,-3.384647608E0,1.308874011E0,-1.474576890E-1
1.255020738E0,-4.679164886E0,2.089532375E0,3.708875179E0
1.271686675E0,-6.192625046E0,3.178266764E0,5.280959606E0
1.288352613E0,-6.300900459E0,3.538685560E0,5.255236626E0
1.305018550E0,-4.928915501E0,2.131107569E0,7.171588421E0
1.321684488E0,-1.239781260E0,1.954936147E0,1.088076305E1
1.338350425E0,-1.935793519E0,3.663112402E0,8.568697929E0
1.355016363E0,-5.016552448E0,5.844469070E0,3.599403381E0
1.371682300E0,-7.820342541E0,9.547661781E0,6.581458569E0
1.388348238E0,-1.110957623E1,8.797810555E0,1.307498074E1
1.405014175E0,-1.050479031E1,5.947958946E0,1.804636955E1
1.421680113E0,-6.912864685E0,3.156133175E0,1.820967865E1
1.438346050E0,-2.115853310E0,2.454138756E0,1.247139168E1
1.455011988E0,1.495514214E-1,2.105085611E0,6.863213539E0
1.471677925E0,-1.525424421E-2,2.838784933E0,3.967000723E0
1.488343863E0,-1.135992527E0,4.092923164E0,4.864309311E0
1.505009800E0,-3.043072224E0,4.513761044E0,7.781459332E0
1.521675738E0,-3.283251762E0,4.667499542E0,8.336893082E0
1.538341675E0,-2.569293261E0,4.426422596E0,6.694818497E0
1.555007613E0,-1.737488389E0,4.214358807E0,5.349753380E0
1.571673550E0,-9.993025661E-1,3.675674677E0,4.603790760E0
1.588339488E0,-1.710868180E-1,2.926422119E0,4.677968502E0
1.605005425E0,-5.802595019E-1,2.988635540E0,6.222236156E0
1.621671363E0,-1.267896891E0,3.051447153E0,5.610869884E0
1.638337300E0,-1.290329576E0,3.949054718E0,4.695615292E0
1.655003238E0,-6.783652306E-1,4.539782524E0,4.930410862E0
1.671669175E0,-4.522434771E-1,4.696512699E0,6.160022736E0
1.688335113E0,-8.617152572E-1,4.711168766E0,8.001299858E0
1.705001050E0,-1.659422517E0,5.286044121E0,9.954740524E0
1.721666988E0,-1.808674812E0,5.561218739E0,9.707083702E0
1.738332925E0,-3.346960545E-1,6.382256031E0,6.674778938E0
1.754998863E0,1.143769264E0,6.827620506E0,5.221737385E0
1.771664800E0,1.725225091E0,6.177071571E0,6.649653912E0
1.788330738E0,1.407577872E0,5.156233788E0,9.570692062E0
1.804996675E0,4.004986882E-1,5.115854740E0,1.151456165E1
1.821662613E0,-1.281954765E0,5.889035702E0,1.118106174E1
1.838328550E0,-3.047558784E0,7.481758118E0,1.033968544E1
1.854994488E0,-3.968795538E0,7.939385414E0,1.081256771E1
1.871660425E0,-3.567100286E0,6.976274490E0,1.107428265E1
1.888326363E0,-1.587936878E0,4.989633560E0,9.589237213E0
1.904992300E0,1.809572130E-1,3.584747314E0,9.470493317E0
1.921658238E0,5.000999570E-1,3.304488182E0,8.734998703E0
1.938324175E0,-2.530409992E-1,4.321138382E0,7.354041100E0
1.954990113E0,-1.388435364E0,5.587240696E0,6.281757832E0
1.971656050E0,-1.975275040E0,6.032904148E0,5.992226124E0
1.988321988E0,-1.797907114E0,5.574080467E0,7.141379356E0
2.004987925E0,-1.089631557E0,4.587339878E0,8.391927719E0
2.021653863E0,-6.556333899E-1,4.066003799E0,9.328718185E0
2.038319800E0,-7.328019142E-1,4.399503708E0,9.032905579E0
2.054985738E0,-1.198505044E0,5.352744102E0,7.781459332E0
2.071651675E0,-1.609173179E0,6.035595894E0,6.989434719E0
2.088317613E0,-1.625025630E0,6.127121449E0,6.939484596E0
2.104983550E0,-9.693922997E-1,5.373382568E0,7.580163002E0
2.121649488E0,9.870393202E-3,4.437489510E0,8.855537415E0
2.138315425E0,4.354937077E-1,4.199702740E0,9.879366875E0
2.154981363E0,-1.546361595E-1,4.983352184E0,9.133703232E0
2.171647300E0,-7.749754190E-1,6.055037498E0,8.113163948E0
2.188313238E0,-1.419242978E0,6.619444847E0,7.785945892E0
2.204979175E0,-2.061416626E0,6.627221584E0,8.899505615E0
2.221645113E0,-2.463410854E0,6.063711643E0,9.999606133E0
2.238311050E0,-1.978266120E0,5.082056046E0,1.057149029E1
2.254976988E0,-1.536192179E0,4.359124660E0,9.815657616E0
2.271642925E0,-1.296610713E0,4.575376034E0,8.081459045E0
2.288308863E0,-1.012463093E0,4.687539577E0,6.190232277E0
2.304974800E0,-6.260222197E-1,4.585844517E0,5.058426857E0
2.321640738E0,-5.108676553E-1,4.540380955E0,4.680361271E0
2.338306675E0,-8.276175261E-1,4.633102894E0,5.462215900E0
2.354972613E0,-1.342074394E0,4.950749874E0,6.432804585E0
2.371638550E0,-1.318146229E0,5.516951561E0,6.125027657E0
2.388304488E0,-1.276271820E0,6.081657887E0,6.111268997E0
2.404970425E0,-1.278365493E0,6.339783669E0,7.112665176E0
2.421636363E0,-1.322632670E0,6.227021694E0,8.606683731E0
2.438302300E0,-1.504188180E0,6.021538258E0,9.947262764E0
2.454968238E0,-1.709073544E0,5.840580940E0,1.077099228E1
2.471634175E0,-2.158026934E0,5.861218929E0,1.149512005E1
2.488300113E0,-2.835793972E0,6.035595894E0,1.205563831E1
2.504966050E0,-2.388934374E0,6.010471344E0,1.003250694E1
2.521631988E0,-1.604088426E0,5.817250729E0,7.638488293E0
2.538297925E0,-1.081256747E0,5.571986675E0,6.037091732E0
2.554963863E0,-9.346963167E-1,5.463412285E0,5.754439354E0
2.571629800E0,-1.529611826E0,5.684449196E0,6.628716946E0
2.588295738E0,-2.018046856E0,5.832505226E0,6.897610188E0
2.604961675E0,-2.003091574E0,6.011368752E0,6.486942291E0
2.621627613E0,-1.765005827E0,5.793622017E0,6.590431690E0
2.638293550E0,-1.805683732E0,5.538786411E0,7.088438034E0
2.654959488E0,-2.181656122E0,5.461019516E0,8.106583595E0
2.671625425E0,-2.553740025E0,5.372784138E0,9.040083885E0
2.688291363E0,-2.685943365E0,5.350949764E0,9.594022751E0
2.704957300E0,-2.433201551E0,5.116153717E0,9.644570351E0
2.721623238E0,-2.260020971E0,5.026721954E0,9.180662155E0
2.738289175E0,-2.298007011E0,5.012066364E0,8.804988861E0
2.754955113E0,-2.314756870E0,5.012963295E0,8.516056061E0
2.771621050E0,-2.254338026E0,5.071587563E0,8.147261620E0
2.788286988E0,-2.175075769E0,5.220241547E0,7.863114357E0
2.804952925E0,-2.070688963E0,5.239683151E0,7.903792381E0
2.821618863E0,-2.171486616E0,5.286941528E0,8.336295128E0
2.838284800E0,-2.295913219E0,5.228018284E0,8.598309517E0
2.854950738E0,-2.384746790E0,5.167599678E0,8.747561455E0
2.871616675E0,-2.193022013E0,5.129912853E0,8.524131775E0
2.888282613E0,-1.932204247E0,4.998008251E0,8.195716858E0
2.904948550E0,-1.562812328E0,4.744070053E0,7.991429329E0
2.921614488E0,-1.421037555E0,4.646562576E0,7.965407372E0
2.938280425E0,-1.482951880E0,4.662415028E0,7.975875854E0
2.954946363E0,-1.625025630E0,4.893920422E0,7.779066563E0
2.971612300E0,-1.789233088E0,5.061418056E0,7.886444569E0
2.988278238E0,-1.923829436E0,5.029115200E0,8.237890244E0
3.004944175E0,-2.150549412E0,4.998606682E0,8.846264839E0
3.021610113E0,-2.256132603E0,5.102096081E0,9.148359299E0
3.038276050E0,-2.272284269E0,5.227719307E0,8.925827026E0
3.054941988E0,-2.153241158E0,5.286044121E0,8.570492744E0
3.071607925E0,-2.144567251E0,5.367101192E0,8.183753014E0
3.088273863E0,-2.195414782E0,5.407180786E0,7.947760582E0
3.104939800E0,-2.511566401E0,5.487340450E0,8.174480438E0
3.121605738E0,-2.469093800E0,5.406283855E0,8.007880211E0
3.138271675E0,-2.140978098E0,5.391627789E0,7.869096279E0
3.154937613E0,-1.968694806E0,5.251647472E0,7.836793423E0
3.171603550E0,-1.876571178E0,5.272883892E0,7.910372734E0
3.188269488E0,-1.866999865E0,5.086842060E0,7.977969646E0
3.204935425E0,-1.962413669E0,4.963013172E0,7.995616913E0
3.221601363E0,-2.058126688E0,5.105984211E0,7.675277710E0
3.238267300E0,-2.285444736E0,5.266901970E0,7.226025105E0
3.254933238E0,-2.611167669E0,5.343770981E0,6.815357208E0
3.271599175E0,-2.891427040E0,5.405685425E0,7.006783009E0
3.288265113E0,-2.919841766E0,5.248656273E0,7.112067223E0
3.304931050E0,-2.705983400E0,4.926223755E0,7.157829762E0
3.321596988E0,-2.705385208E0,4.753940582E0,7.470093250E0
3.338262925E0,-2.895614386E0,4.733601570E0,8.001897812E0
3.354928863E0,-3.096312523E0,4.696512699E0,8.832207680E0
3.371594800E0,-2.976671457E0,4.545764923E0,9.193224907E0
3.388260738E0,-2.761915445E0,4.557429790E0,8.880661964E0
3.404926675E0,-2.904587507E0,4.705784798E0,8.637491226E0
3.421592613E0,-3.119343519E0,4.941477776E0,8.649456024E0
3.438258550E0,-3.322434187E0,4.953142643E0,9.105587006E0
3.454924488E0,-3.300300598E0,4.943870544E0,8.931808472E0
3.471590425E0,-3.271586657E0,5.025226593E0,8.481658936E0
3.488256363E0,-3.515953779E0,5.041079044E0,8.104789734E0
3.504922300E0,-3.503092289E0,5.099104881E0,8.164011955E0
3.521588238E0,-3.471985579E0,5.138586521E0,8.430212975E0
3.538254175E0,-3.688835144E0,5.190331459E0,8.769395828E0
3.554920113E0,-3.597010612E0,5.035396099E0,8.720941544E0
3.571586050E0,-3.468695641E0,4.917250633E0,8.755337715E0
3.588251988E0,-3.617349625E0,4.990231514E0,8.930911064E0
3.604917925E0,-3.774378538E0,5.105386257E0,9.052646637E0
3.621583863E0,-3.806681633E0,5.019543648E0,8.961718559E0
3.638249800E0,-3.782753468E0,4.943272591E0,8.741579056E0
3.654915738E0,-3.757628918E0,4.817050934E0,8.418847084E0
3.671581675E0,-4.138985157E0,4.976173878E0,8.365607262E0
3.688247613E0,-4.408775806E0,5.115555763E0,7.910073280E0
3.704913550E0,-4.452744007E0,5.204389095E0,7.520342350E0
3.721579488E0,-4.378267288E0,5.152345181E0,7.066603661E0
3.738245425E0,-4.351946354E0,5.094917774E0,6.780063152E0
3.754911363E0,-4.228117466E0,5.056931496E0,6.637690067E0
3.771577300E0,-4.059423447E0,5.006682396E0,6.401398659E0
3.788243238E0,-4.010969162E0,5.015356064E0,6.506383896E0
3.804909175E0,-4.000799656E0,4.990530491E0,6.566204548E0
3.821575113E0,-3.800699711E0,4.884648323E0,6.763014317E0
3.838241050E0,-3.573381424E0,4.777270317E0,6.789335251E0
3.854906988E0,-3.412464142E0,4.679164886E0,6.614060879E0
3.871572925E0,-3.235694408E0,4.607080936E0,6.542874336E0
3.888238863E0,-3.100799084E0,4.610969067E0,6.777669907E0
3.904904800E0,-2.881855726E0,4.578965187E0,6.874579430E0
3.921570738E0,-2.751745939E0,4.710570335E0,7.048058987E0
3.938236675E0,-3.055335522E0,5.075775146E0,7.419245720E0
3.954902613E0,-3.309572935E0,5.266004562E0,7.590631485E0
3.971568550E0,-3.319144011E0,5.253142834E0,7.677371502E0
3.988234488E0,-3.401397467E0,5.199005604E0,7.979166031E0
4.004900425E0,-3.457628727E0,5.216652393E0,8.479864120E0
4.021566363E0,-3.228216887E0,5.165804863E0,8.414659500E0
4.038232300E0,-3.101995468E0,5.276473045E0,8.146065712E0
4.054898238E0,-3.232404232E0,5.452644825E0,8.077870369E0
4.071564175E0,-3.268894911E0,5.448158264E0,8.087141991E0
4.088230113E0,-3.270390272E0,5.410470963E0,8.079066277E0
4.104896050E0,-3.372085333E0,5.456831932E0,8.264211655E0
4.121561988E0,-3.360420227E0,5.377869129E0,8.356036186E0
4.138227925E0,-3.244069338E0,5.371587753E0,8.116753578E0
4.154893863E0,-3.254537821E0,5.470291615E0,7.814061642E0
4.171559800E0,-3.296412230E0,5.493621826E0,7.592127323E0
4.188225738E0,-3.293122053E0,5.489434242E0,7.452147007E0
4.204891675E0,-3.258725405E0,5.382056236E0,7.510771275E0
4.221557613E0,-3.211168051E0,5.326423168E0,7.714160919E0
4.238223550E0,-3.005983353E0,5.231308460E0,7.643871784E0
4.254889488E0,-2.871088028E0,5.183751106E0,7.588837147E0
4.271555425E0,-2.835195780E0,5.097908497E0,7.795516968E0
4.288221363E0,-2.969791889E0,5.082056046E0,8.213363647E0
4.304887300E0,-3.021835804E0,5.066203594E0,8.459525108E0
4.321553238E0,-3.140579700E0,5.097011566E0,8.434998512E0
4.338219175E0,-3.259323597E0,5.174777985E0,8.284550667E0
4.354885113E0,-3.315854073E0,5.161617756E0,8.327322006E0
4.371551050E0,-3.267100334E0,5.036891460E0,8.281260490E0
4.388216988E0,-3.185146093E0,4.984847546E0,7.938787460E0
4.404882925E0,-3.117548704E0,5.006682396E0,7.599006653E0
4.421548863E0,-3.084647417E0,5.067399979E0,7.403692245E0
4.438214800E0,-3.165106058E0,5.061418056E0,7.491030216E0
4.454880738E0,-3.087638617E0,5.006682396E0,7.515257835E0
4.471546675E0,-3.098107100E0,5.013262749E0,7.638188839E0
4.488212613E0,-3.367000580E0,5.068297386E0,7.989036560E0
4.504878550E0,-3.556930780E0,5.130510807E0,7.977670670E0
4.521544488E0,-3.635295868E0,5.335994720E0,7.662416458E0
4.538210425E0,-3.605086327E0,5.423033237E0,7.268497944E0
4.554876363E0,-3.452843189E0,5.534598827E0,6.997809887E0
4.571542300E0,-3.370589733E0,5.504987717E0,6.968198776E0
4.588208238E0,-3.399303675E0,5.474180222E0,7.203293324E0
4.604874175E0,-3.282653570E0,5.350052357E0,7.594520092E0
4.621540113E0,-3.120838881E0,5.148756027E0,7.870292664E0
4.638206050E0,-3.073281527E0,5.144568920E0,7.955836296E0
4.654871988E0,-3.127419233E0,5.186143875E0,7.547261715E0
4.671537925E0,-3.411566973E0,5.428716183E0,7.208079338E0
4.688203863E0,-3.635295868E0,5.557629585E0,7.173084259E0
4.704869800E0,-3.716352701E0,5.511568069E0,7.191927433E0
4.721535738E0,-3.725026608E0,5.414658546E0,7.540980339E0
4.738201675E0,-3.815953970E0,5.335097313E0,7.969893932E0
4.754867613E0,-3.931108475E0,5.364708424E0,8.376973152E0
4.771533550E0,-3.866203070E0,5.293521881E0,8.297112465E0
4.788199488E0,-3.689134359E0,5.291129112E0,7.851748466E0
4.804865425E0,-3.461816072E0,5.243571758E0,7.478168964E0
4.821531363E0,-3.474079370E0,5.169394016E0,7.417750359E0
4.838197300E0,-3.673580885E0,5.244169712E0,7.339086056E0
4.854863238E0,-4.040580273E0,5.421238899E0,7.529913902E0
4.871529175E0,-4.232604027E0,5.408377171E0,7.724031448E0
4.888195113E0,-4.232604027E0,5.432903767E0,7.857730389E0
4.904861050E0,-3.902095556E0,5.234897614E0,7.626523972E0
4.921526988E0,-3.710071564E0,5.156831741E0,7.323532581E0
4.938192925E0,-3.597309828E0,5.139483929E0,7.060023308E0
4.954858863E0,-3.647858143E0,5.222335339E0,7.069295406E0
4.971524800E0,-3.596412420E0,5.249553680E0,7.316055298E0
4.988190738E0,-3.594617844E0,5.210969448E0,7.799405575E0
5.004856675E0,-3.496811152E0,5.134399414E0,8.160721779E0
5.021522613E0,-3.345764160E0,5.161019325E0,8.127820015E0
5.038188550E0,-3.018545866E0,5.151747227E0,7.666304588E0
5.054854488E0,-2.311765671E0,5.184349537E0,6.771090031E0
5.071520425E0,-1.676471353E0,5.405685425E0,6.089434624E0
5.088186363E0,-1.608874083E0,5.943771362E0,5.603392601E0
5.104852300E0,-1.963610053E0,6.096612930E0,5.337490082E0
5.121518238E0,-2.381755829E0,6.221039772E0,5.539982796E0
5.138184175E0,-2.152642965E0,6.240481377E0,6.023332596E0
5.154850113E0,-7.905287743E-1,6.309873104E0,5.901896954E0
5.171516050E0,7.339983582E-1,6.474080563E0,4.407280445E0
5.188181988E0,1.454237938E0,6.978068829E0,3.175275564E0
5.204847925E0,1.132403374E0,7.595118046E0,3.521935940E0
5.221513863E0,-1.510469317E-1,8.014161110E0,6.001199245E0
5.238179800E0,-2.100898266E0,9.056833267E0,8.539685249E0
5.254845738E0,-3.199203968E0,1.027657509E1,8.763114929E0
5.271511675E0,-3.018545866E0,1.087807083E1,7.112665176E0
5.288177613E0,-3.812663794E0,1.077876854E1,7.470691204E0
5.304843550E0,-4.550550461E0,1.011296558E1,9.283554077E0
5.321509488E0,-4.201497555E0,8.332705498E0,9.952945709E0
5.338175425E0,-2.710170746E0,6.480062962E0,9.411270142E0
5.354841363E0,-1.132702470E0,4.279862404E0,7.577171803E0
5.371507300E0,5.455635786E-1,2.396411896E0,5.096114159E0
5.388173238E0,1.471885085E0,7.519445419E-1,2.880061150E0
5.404839175E0,5.635097623E-1,-3.299104273E-1,1.322333574E0
5.421505113E0,-1.983051747E-1,-1.517946839E0,4.447658956E-1
5.438171050E0,-6.266204119E-1,-2.290529490E0,-5.742774159E-2
5.454836988E0,-2.724826813E0,-3.216850996E0,9.272187948E-3
5.471502925E0,-4.362713814E0,-4.214957237E0,-1.492523104E-1
5.488168863E0,-5.991627693E0,-5.419743061E0,-7.109674215E-1
5.504834800E0,-7.224529743E0,-6.072086334E0,-1.564606905E0
5.521500738E0,-9.459127426E0,-5.822036743E0,-1.435693622E0
5.538166675E0,-1.564577007E1,-3.549154282E0,7.277171612E-1
5.554832613E0,-2.294029045E1,-5.506483316E-1,3.320340633E0
5.571498550E0,-2.642543602E1,1.737488389E0,4.842175961E0
5.588164488E0,-2.815574646E1,5.364708424E0,7.576274872E0
5.604830425E0,-3.166511917E1,9.992427826E0,9.096614838E0
5.621496363E0,-3.469921875E1,1.339920902E1,1.111735344E1
5.638162300E0,-3.222892761E1,1.420080376E1,1.270289707E1
5.654828238E0,-2.708196640E1,1.363131237E1,1.340937805E1
5.671494175E0,-2.246531487E1,1.277617741E1,1.235025501E1
5.688160113E0,-1.747777557E1,1.237178993E1,1.045095158E1
5.704826050E0,-1.353918839E1,1.208524990E1,1.021137047E1
5.721491988E0,-1.134437180E1,1.218844032E1,1.131386375E1
5.738157925E0,-9.008678436E0,1.203230858E1,1.112393379E1
5.754823863E0,-5.715256691E0,1.144247818E1,8.478069305E0
5.771489800E0,-2.371885538E0,1.127737331E1,5.897111416E0
5.788155738E0,5.709872842E-1,1.106261730E1,4.471886635E0
5.804821675E0,2.242373943E0,1.093400288E1,4.423431873E0
5.821487613E0,2.617149830E0,1.009382343E1,4.066602230E0
5.838153550E0,2.379063845E0,8.728717804E0,3.017349243E0
5.854819488E0,2.605484724E0,7.037291527E0,2.018046856E0
5.871485425E0,2.923730135E0,5.473282814E0,1.526919961E0
5.888151363E0,2.085644007E0,4.595715046E0,2.125424623E0
5.904817300E0,-7.776673418E-3,5.123930454E0,3.319742203E0
5.921483238E0,-1.896311998E0,5.400002480E0,3.661616802E0
5.938149175E0,-3.635894060E0,5.547460079E0,3.184846878E0
5.954815113E0,-6.633801460E0,7.835896015E0,4.933103085E0
5.971481050E0,-1.128245831E1,1.264487171E1,8.508578300E0
5.988146988E0,-1.554257965E1,1.637617874E1,1.011117077E1
6.004812925E0,-1.668006706E1,1.788395691E1,9.210572243E0
6.021478863E0,-1.917428589E1,1.923350906E1,1.025533867E1
6.038144800E0,-2.371018028E1,1.900290108E1,1.312194061E1
6.054810738E0,-2.604228592E1,1.580878067E1,1.457916927E1
6.071476675E0,-2.545724106E1,1.120738316E1,1.239123249E1
6.088142613E0,-2.111994934E1,5.736493111E0,8.206185341E0
6.104808550E0,-1.317248821E1,6.373881102E-1,4.175475597E0
6.121474488E0,-5.354837894E0,-2.928814888E0,1.435693622E0
6.138140425E0,-1.163509965E0,-5.410470963E0,4.890331328E-1
6.154806363E0,-9.212367237E-2,-7.013363361E0,1.402493119E0
6.171472300E0,-1.199402332E0,-8.018946648E0,2.053340912E0
6.188138238E0,-2.680559635E0,-8.319246292E0,2.213660002E0
6.204804175E0,-2.320738792E0,-8.532505989E0,1.213759303E0
6.221470113E0,-2.072782665E-1,-8.322536469E0,-1.046859939E-2
6.238136050E0,1.434198022E0,-8.557631493E0,-1.181157112E0
6.254801988E0,1.587338686E0,-8.565108299E0,-2.591726065E0
6.271467925E0,-2.132603228E-1,-8.126624107E0,-3.543770313E0
6.288133863E0,-2.702095032E0,-6.705885410E0,-3.228815079E0
6.304799800E0,-6.062515259E0,-4.187140465E0,-2.298904419E0
6.321465738E0,-1.102433205E1,-1.348953724E0,-9.433703423E-1
6.338131675E0,-1.449153233E1,1.527817249E0,6.610172391E-1
6.354797613E0,-1.384427357E1,3.413959742E0,2.118545294E0
6.371463550E0,-1.299003601E1,4.451547623E0,3.552444220E0
6.388129488E0,-1.696481323E1,8.756235123E0,6.991827965E0
6.404795425E0,-2.727339172E1,1.532363605E1,1.255274773E1
6.421461363E0,-3.409114075E1,1.936660957E1,1.554676723E1
6.438127300E0,-3.165345383E1,1.733480453E1,1.297448254E1
6.454793238E0,-2.481745911E1,1.276361465E1,8.641380310E0
6.471459175E0,-1.549681664E1,9.847362518E0,7.241279602E0
6.488125113E0,-9.487542152E0,7.844869137E0,5.970391750E0
6.504791050E0,-4.687240601E0,5.952445507E0,5.117350101E0
6.521456988E0,-1.743769526E0,5.202295303E0,5.292026520E0
6.538122925E0,-3.349951655E-2,4.995017052E0,5.205884933E0
6.554788863E0,6.577271223E-1,5.246861935E0,4.466502666E0
6.571454800E0,-1.145563871E-1,6.012266159E0,3.370589733E0
6.588120738E0,-5.578267574E-1,6.997510910E0,2.554936409E0
6.604786675E0,-1.044167995E0,7.979465485E0,1.152742267E0
6.621452613E0,-7.235297561E-1,6.592226505E0,-9.152546525E-2
6.638118550E0,8.135596663E-2,5.821737289E0,1.563410521E0
6.654784488E0,-5.838487148E-1,5.505585670E0,3.644268990E0
6.671450425E0,-5.718846321E-1,4.010071754E0,3.792623997E0
6.688116363E0,1.764706671E-1,4.124927044E0,3.353241920E0
6.704782300E0,5.817549825E-1,4.355535507E0,4.142574310E0
6.721448238E0,-2.041975021E0,6.753442764E0,7.394420147E0
6.738114175E0,-7.354938507E0,1.020598698E1,1.114576817E1
6.754780113E0,-8.680562019E0,1.342762375E1,1.219591808E1
6.771446050E0,-6.882356167E0,1.522493267E1,1.013689423E1
6.788111988E0,-5.315356255E0,1.595713615E1,1.063370419E1
6.804777925E0,-8.010272980E0,1.536969757E1,1.518006706E1
6.821443863E0,-1.271665573E1,1.532782364E1,1.897149467E1
6.838109800E0,-1.673390579E1,1.446132278E1,1.840319824E1
6.854775738E0,-1.648684692E1,1.156211948E1,1.536461353E1
6.871441675E0,-1.239392376E1,7.458428383E0,1.133839035E1
6.888107613E0,-7.195816040E0,3.305086374E0,7.709375381E0
6.904773550E0,-3.857230186E0,-3.427718580E-1,4.879563808E0
6.921439488E0,-1.738684773E0,-3.481556892E0,2.931805849E0
6.938105425E0,-4.235295951E-1,-5.439783096E0,1.707278967E0
6.954771363E0,-9.846464992E-1,-6.735197544E0,6.355935335E-1
6.971437300E0,-3.078665495E0,-6.480062962E0,-6.071787328E-2
6.988103238E0,-4.417449474E0,-5.517549992E0,-1.109970570E0
7.004769175E0,-3.946960926E0,-5.327320576E0,-2.506481647E0
7.021435113E0,-2.842673302E0,-6.134000778E0,-4.066302776E0
7.038101050E0,-2.278864384E0,-6.660421848E0,-4.631308079E0
7.054766988E0,-2.529811859E0,-6.150750637E0,-4.432404995E0
7.071432925E0,-3.198306561E0,-5.234000206E0,-4.017848492E0
7.088098863E0,-5.225326538E0,-4.189533234E0,-3.021835804E0
7.104764800E0,-9.580562592E0,-1.063310504E0,-8.632107973E-1
7.121430738E0,-1.440509129E1,3.184846878E0,3.220141172E0
7.138096675E0,-1.549233055E1,6.930511475E0,7.811668396E0
7.154762613E0,-1.472692585E1,1.054307556E1,9.223434448E0
7.171428550E0,-1.606929970E1,1.520758438E1,9.026325226E0
7.188094488E0,-1.986162376E1,1.903610039E1,1.287099266E1
7.204760425E0,-2.275544357E1,2.028934097E1,1.580040646E1
7.221426363E0,-2.178455734E1,1.874118423E1,1.366182041E1
7.238092300E0,-1.798266029E1,1.452503204E1,1.226082325E1
7.254758238E0,-1.242383385E1,9.888339996E0,1.096241760E1
7.271424175E0,-7.650751114E0,7.000202656E0,8.819944382E0
7.288090113E0,-4.727021217E0,5.919544220E0,7.011867523E0
7.304756050E0,-2.603989124E0,5.551049232E0,5.694020748E0
7.321421988E0,-1.144068360E0,4.946263313E0,5.243571758E0
7.338087925E0,-3.849453330E-1,5.206183910E0,5.241776943E0
7.354753863E0,-7.504490018E-1,6.076572895E0,4.770689964E0
7.371419800E0,-3.984049559E-1,6.051747799E0,4.312763691E0
7.388085738E0,-8.374879137E-3,5.730212212E0,3.441776276E0
7.404751675E0,5.665007830E-1,4.259523392E0,2.598306179E0
7.421417613E0,2.005185366E0,2.679662228E0,2.281855583E0
7.438083550E0,1.909173369E0,2.106282234E0,2.744866610E0
7.454749488E0,7.728816867E-1,2.860918522E0,3.055634499E0
7.471415425E0,-1.016351461E0,3.871886253E0,2.470888376E0
7.488081363E0,-2.403590441E0,4.796412945E0,2.866601467E0
7.504747300E0,-4.084548473E0,8.019246101E0,6.911069870E0
7.521413238E0,-7.349255562E0,1.320180035E1,1.110209846E1
7.538079175E0,-9.570393562E0,1.802812386E1,1.243161106E1
7.554745113E0,-1.213639641E1,1.945364761E1,1.064088249E1
7.571411050E0,-2.025733757E1,2.279701996E1,1.536132336E1
7.588076988E0,-2.505913353E1,2.223919296E1,1.827817345E1
7.604742925E0,-2.406940269E1,1.767338753E1,1.774965858E1
7.621408863E0,-1.901605988E1,1.100279713E1,1.504696655E1
7.638074800E0,-1.239691544E1,5.042275429E0,1.102552891E1
7.654740738E0,-6.922136784E0,7.109674215E-1,6.465705872E0
7.671406675E0,-4.548157692E0,-2.577668190E0,2.261516571E0
7.688072613E0,-1.013061285E0,-5.333601475E0,-5.132604837E-1
7.704738550E0,8.081758618E-1,-6.577570438E0,-9.744769931E-1
7.721404488E0,8.150551915E-1,-7.492226601E0,-7.193422914E-1
7.738070425E0,8.673981763E-3,-7.533204079E0,-1.016052365E0
7.754736363E0,2.871387079E-2,-8.303393364E0,-2.405085802E0
7.771402300E0,3.053839803E-1,-7.598109245E0,-3.577269793E0
7.788068238E0,-6.819544435E-1,-7.417151928E0,-3.675076485E0
7.804734175E0,-4.145565331E-1,-6.977171898E0,-3.455834150E0
7.821400113E0,-1.589731574E0,-5.988935947E0,-3.060121059E0
7.838066050E0,-4.146462440E0,-4.689932346E0,-1.998306036E0
7.854731988E0,-7.645666599E0,-1.613659739E0,-1.781755567E0
7.871397925E0,-1.230718422E1,1.497906923E0,-8.476574421E-1
7.888063863E0,-1.455344677E1,2.980559587E0,7.971090674E-1
7.904729800E0,-1.319462204E1,3.434597731E0,3.676272869E0
7.921395738E0,-1.493689632E1,9.952945709E0,8.120941162E0
7.938061675E0,-2.215693855E1,1.553420448E1,1.141645622E1
7.954727613E0,-2.838964462E1,1.797787476E1,1.456989670E1
7.971393550E0,-2.858974457E1,1.845823479E1,1.711197281E1
7.988059488E0,-2.346222496E1,1.543250942E1,1.701326752E1
8.004725425E0,-1.657926941E1,1.193599796E1,1.437577915E1
8.021391363E0,-1.057238770E1,8.437092781E0,1.131894875E1
8.038057300E0,-4.825426102E0,6.257829189E0,7.766204834E0
8.054723238E0,-1.279561877E0,5.037489891E0,4.719244480E0
8.071389175E0,1.196411327E-1,4.198506355E0,2.864507914E0
8.088055113E0,-3.523431420E-1,4.502095699E0,1.916650891E0
8.104721050E0,-1.130608693E-1,4.828416824E0,1.170389414E0
8.121386988E0,1.206281662E0,4.749454021E0,1.252642632E0
8.138052925E0,1.991127491E0,3.977469444E0,2.148455620E0
8.154718863E0,2.668595552E0,4.002295017E0,3.484847069E0
8.171384800E0,1.872383714E0,5.083551884E0,4.998606682E0
8.188050738E0,5.443671346E-2,5.734698772E0,6.400202274E0
8.204716675E0,-1.016949583E-2,5.050949574E0,6.224329948E0
8.221382613E0,1.116850019E0,5.919544220E0,4.305285931E0
8.238048550E0,4.262215197E-1,7.678268909E0,5.083252430E0
8.254714488E0,-3.884149313E0,9.569794655E0,8.088338852E0
8.271380425E0,-1.056281662E1,1.390888023E1,8.690432549E0
8.288046363E0,-1.592094421E1,2.034587097E1,1.022991467E1
8.304712300E0,-1.954068756E1,2.154497528E1,1.294696522E1
8.321378238E0,-2.119562340E1,2.004886246E1,1.538046551E1
8.338044175E0,-2.325584412E1,1.625863075E1,1.466112328E1
8.354710113E0,-2.195055771E1,1.304656601E1,1.019641590E1
8.371376050E0,-1.912882233E1,1.035673428E1,4.835595608E0
8.388041988E0,-1.590479279E1,6.430411816E0,2.795115948E0
8.404707925E0,-1.200748348E1,2.885145903E0,3.118446112E0
8.421373863E0,-8.168199539E0,-1.433001637E0,2.697010279E0
8.438039800E0,-3.991527319E0,-5.765805244E0,1.153340459E0
8.454705738E0,-3.116651475E-1,-8.104190826E0,-1.316052489E-2
8.471371675E0,2.746062994E0,-9.434001923E0,-3.352942765E-1
8.488037613E0,3.876073599E0,-9.862616539E0,-1.288834095E0
8.504703550E0,2.553440809E0,-1.026102161E1,-3.128017426E0
8.521369488E0,2.364407778E0,-1.006181908E1,-4.743471622E0
8.538035425E0,2.841775894E0,-9.293423653E0,-5.594120026E0
8.554701363E0,2.118545294E0,-9.007183075E0,-5.169394016E0
8.571367300E0,-5.799604058E-1,-8.862715721E0,-3.499203920E0
8.588033238E0,-4.223930359E0,-6.886244297E0,-1.527219057E0
8.604699175E0,-8.840581894E0,-3.583550930E0,-3.062812984E-1
8.621365113E0,-1.519771385E1,1.282852054E0,-4.082753658E-1
8.638031050E0,-2.194487572E1,7.434499741E0,-2.322234392E0
8.654696988E0,-2.904767036E1,1.658584976E1,-4.639084935E-1
8.671362925E0,-3.843650818E1,2.099612045E1,5.454140186E0
8.688028863E0,-4.113681030E1,2.081965065E1,1.288355541E1
8.704694800E0,-3.415754318E1,1.876930046E1,1.370160198E1
8.721360738E0,-2.312663078E1,1.515853119E1,1.011476040E1
8.738026675E0,-1.379641724E1,1.095314598E1,6.731009960E0
8.754692613E0,-6.430411816E0,7.920242786E0,3.336193085E0
8.771358550E0,-8.682954907E-1,5.941977024E0,1.538285851E0
8.788024488E0,1.742573142E0,4.549354076E0,1.661815286E0
8.804690425E0,2.927020311E0,4.079762459E0,2.333301067E0
8.821356363E0,3.838984728E0,4.463212490E0,2.461018085E0
8.838022300E0,3.389134169E0,5.598307610E0,2.833999395E0
8.854688238E0,1.980060697E0,6.365805626E0,3.779762506E0
8.871354175E0,1.866700768E0,6.030511379E0,2.995514870E0
8.888020113E0,3.188735247E0,4.272085667E0,1.275374413E0
8.904686050E0,3.247658491E0,2.805883646E0,4.552344978E-1
8.921351988E0,6.418746710E-1,3.758526087E0,9.035896659E-1
8.938017925E0,-4.361517429E0,6.815357208E0,1.579861164E0
8.954683863E0,-1.005015373E1,9.741181374E0,1.686939955E0
8.971349800E0,-1.361904907E1,1.102253723E1,3.440878868E0
8.988015738E0,-1.473560047E1,1.164796162E1,6.841678143E0
9.004681675E0,-1.701177216E1,1.117388344E1,8.346165657E0
9.021347613E0,-2.111935234E1,1.174666500E1,8.213961601E0
9.038013550E0,-2.237827492E1,1.095254707E1,6.483951092E0
9.054679488E0,-1.974347878E1,8.138887405E0,4.867001057E0
9.071345425E0,-1.446491241E1,5.162514687E0,6.084050655E0
9.088011363E0,-9.585947037E0,2.024626970E0,7.887341499E0
9.104677300E0,-6.368198395E0,-5.820540786E-1,7.011568546E0
9.121343238E0,-4.102494240E0,-2.530410051E0,4.122534275E0
9.138009175E0,-2.403889418E0,-5.175974369E0,1.176072359E0
9.154675113E0,-2.350050926E0,-6.300900459E0,-8.371888399E-1
9.171341050E0,-2.347059965E0,-5.971588135E0,-2.635095835E0
9.188006988E0,-2.323729992E0,-6.457331181E0,-4.167399883E0
9.204672925E0,-2.802593470E0,-7.340880871E0,-5.092525005E0
9.221338863E0,-3.282055378E0,-7.633702278E0,-5.294718266E0
9.238004800E0,-2.229811668E0,-7.293323517E0,-5.013561726E0
9.254670738E0,-1.886142492E0,-7.329215527E0,-3.877868176E0
9.271336675E0,-5.099404335E0,-5.739783287E0,-2.768495798E0
9.288002613E0,-1.078355408E1,-3.812962770E0,-4.903491974E0
9.304668550E0,-1.793809319E1,1.536790371E0,-3.905684710E0
9.321334488E0,-2.777648354E1,7.716553688E0,5.379962444E0
9.338000425E0,-3.375704575E1,8.255238533E0,1.560748482E1
9.354666363E0,-2.966980362E1,6.418746948E0,1.500120354E1
9.371332300E0,-1.996990013E1,7.000501633E0,8.892625809E0
9.387998238E0,-1.180499077E1,6.279664040E0,6.178866386E0
9.404664175E0,-6.909574509E0,4.741078854E0,5.577370644E0
9.421330113E0,-3.911068678E0,3.243770123E0,5.502594948E0
9.437996050E0,-1.522134304E0,1.706680775E0,4.882853508E0
9.454661988E0,-1.409073472E0,1.873879194E0,4.726422787E0
9.471327925E0,-1.542772412E0,2.210369825E0,2.995215654E0
9.487993863E0,5.581258535E-1,2.868396044E0,5.979065299E-1
9.504659800E0,1.736291885E0,4.607678890E0,7.238288224E-2
9.521325738E0,1.158126116E0,6.588637352E0,6.562315822E-1
9.537991675E0,9.260223508E-1,5.723930836E0,-9.840483218E-2
9.554657613E0,1.061515927E0,5.376971722E0,2.480160713E0
9.571323550E0,-2.423929453E0,8.513363838E0,6.891030312E0
9.587989488E0,-8.537292480E0,1.193031502E1,1.143709373E1
9.604655425E0,-1.063011456E1,1.186959648E1,8.831010818E0
9.621321363E0,-1.475025654E1,1.008066273E1,6.219544411E0
9.637987300E0,-2.980230713E1,1.270947742E1,1.208674526E1
9.654653238E0,-4.309952164E1,1.255753326E1,1.699263000E1
9.671319175E0,-3.889323807E1,4.239483356E0,1.460429382E1
9.687985113E0,-2.434996223E1,-2.834597588E0,9.749555588E0
9.704651050E0,-1.208854008E1,-5.953641891E0,4.569693089E0
9.721316988E0,-6.000002861E0,-5.050650597E0,9.714859724E-1
9.737982925E0,-5.319543839E0,-4.423431873E0,-4.456632212E-2
9.754648863E0,-8.068897247E0,-3.561118364E0,-1.336391449E0
9.771314800E0,-9.614959717E0,-2.338685036E0,-4.593621254E0
9.787980738E0,-7.387241840E0,-3.672384501E0,-8.098507881E0
9.804646675E0,-4.511667252E0,-5.710172176E0,-7.972885132E0
9.821312613E0,-6.076872349E0,-5.065007210E0,-4.022335052E0
9.837978550E0,-1.141256714E1,-4.255335808E0,4.268197417E-1
9.854644488E0,-1.695524216E1,-2.375175476E0,1.598405480E0
9.871310425E0,-1.518874073E1,-1.714756489E0,9.355936646E-1
9.887976363E0,-6.821937561E0,-2.059323072E0,2.943171859E-1
9.904642300E0,-1.509871125E0,-2.039283037E0,-2.449652255E-1
9.921308238E0,-1.499103427E0,-2.927319288E0,-2.150250196E0
9.937974175E0,-2.684148788E0,-4.229014874E0,-3.139682293E0
9.954640113E0,-4.557728767E0,-5.156532764E0,-2.382354021E0
9.971306050E0,-6.109773636E0,-2.236391783E0,2.325225353E0
9.987971988E0,-9.641579628E0,2.410469770E0,4.951348305E0
1.000463792E1,-1.105095196E1,2.866302490E0,6.577271223E-1
1.002130386E1,-8.067999840E0,1.933400750E0,-4.693521500E0
1.003796980E1,-1.857727647E0,3.887738705E0,-2.598904610E0
1.005463574E1,1.883749604E0,7.982456207E0,5.769992828E0
1.007130168E1,-1.960319996E0,1.189741325E1,3.317648649E0
1.008796761E1,-1.412034512E1,1.376800251E1,1.029482079E1
1.010463355E1,-2.134337997E1,1.512054539E1,1.972613144E1
1.012129949E1,-2.074188423E1,1.844477463E1,2.235464668E1
1.013796542E1,-1.868495369E1,2.138914299E1,2.371526527E1
1.015463136E1,-1.635584068E1,2.039492416E1,2.040030861E1
1.017129730E1,-1.223659611E1,1.844178391E1,1.176730347E1
1.018796324E1,-1.003699398E1,1.880250168E1,6.166902065E0
1.020462918E1,-1.477837181E1,2.214677048E1,9.433403969E0
1.022129511E1,-2.120668983E1,2.181895256E1,1.541336727E1
1.023796105E1,-2.063839531E1,1.503978729E1,1.337079430E1
1.025462699E1,-1.407577896E1,6.702894211E0,7.944769382E0
1.027129293E1,-8.955737114E0,2.290529490E0,5.155635357E0
1.028795886E1,-7.578368187E0,-2.066800594E-1,2.703291416E0
1.030462480E1,-5.624030590E0,-2.098804474E0,1.195513964E0
1.032129074E1,-1.682752490E0,-4.266701698E0,-1.645065658E-2
1.033795668E1,1.156331539E0,-8.471489906E0,-3.686442375E0
1.035462261E1,-3.067897797E0,-9.133105278E0,-8.266304970E0
1.037128855E1,-8.945268631E0,-6.180660725E0,-9.012566566E0
1.038795449E1,-1.112094212E1,-5.793322563E0,-3.025125980E0
1.040462043E1,-8.980263710E0,-5.821139336E0,7.588238716E0
1.042128636E1,-5.816951752E0,-8.433802605E0,1.081884861E1
1.043795230E1,-4.288835526E0,-1.088943672E1,5.864509106E0
1.045461824E1,-8.200801849E0,-1.007378292E1,4.794618487E-1
1.047128418E1,-1.745354652E1,-7.679465294E0,1.507478207E-1
1.048795011E1,-2.410469627E1,-5.582156181E0,8.238189697E0
1.050461605E1,-2.329622269E1,-6.231508255E0,1.628764534E1
1.052128199E1,-1.771974945E1,-7.700701237E0,1.131027412E1
1.053794793E1,-1.533051586E1,-7.401598454E0,3.215355396E0
1.055461386E1,-1.828475380E1,-6.179165363E0,7.127620578E-1
1.057127980E1,-2.216920280E1,-3.289233923E0,4.310370922E0
1.058794574E1,-2.447827721E1,-5.195416212E-1,9.612566948E0
1.060461168E1,-2.376700974E1,1.196710467E0,9.935298920E0
1.062127761E1,-2.141097641E1,3.869493246E0,9.192925453E0
1.063794355E1,-2.080619049E1,9.074181557E0,1.274207973E1
1.065460949E1,-2.163769722E1,1.385803223E1,1.741765594E1
1.067127543E1,-2.245544434E1,1.566072464E1,1.738774490E1
1.068794136E1,-2.046311951E1,1.550818253E1,1.443380547E1
1.070460730E1,-1.317547989E1,1.538285828E1,1.097228813E1
1.072127324E1,-3.390031576E0,1.496830177E1,1.098784161E1
1.073793918E1,5.092525005E0,1.391306686E1,1.349043465E1
1.075460511E1,7.625028610E0,1.354188061E1,1.360529041E1
1.077127105E1,6.440581322E0,1.481695557E1,1.191087246E1
1.078793699E1,4.818845749E0,1.365643692E1,8.780761719E0
1.080460293E1,3.534198999E0,1.189292717E1,4.945665359E0
1.082126886E1,1.155135155E0,1.049013424E1,2.106880426E0
1.083793480E1,-2.736192703E0,1.100818062E1,1.555035591E0
1.085460074E1,-4.638187408E0,9.827621460E0,1.036989570E0
1.087126668E1,-5.980860233E0,8.797511101E0,3.640679598E0
1.088793261E1,-8.358428955E0,9.221938133E0,1.072552872E1
1.090459855E1,-1.200987625E1,9.182456970E0,1.130429268E1
1.092126449E1,-1.767727661E1,1.165783215E1,7.010372162E0
1.093793043E1,-2.212074852E1,1.345095348E1,4.748257637E0
1.095459636E1,-2.240070915E1,1.409731483E1,8.184948921E0
1.097126230E1,-2.222124672E1,1.391426373E1,1.083350468E1
1.098792824E1,-2.572852707E1,1.062951660E1,8.310273170E0
1.100459418E1,-2.653251457E1,6.264708996E0,4.567300320E0
1.102126011E1,-2.292922211E1,2.901895761E0,2.050349951E0
1.103792605E1,-1.698545074E1,-5.659025311E-1,1.363310695E0
1.105459199E1,-1.050209904E1,-3.078964472E0,2.521436930E0
1.107125793E1,-4.565505505E0,-5.700600624E0,2.549253464E0
1.108792386E1,-1.771586061E0,-7.621140003E0,1.832303882E0
1.110458980E1,-1.104287624E0,-9.378967285E0,1.952842355E0
1.112125574E1,-9.340981245E-1,-1.170479107E1,1.429113269E0
1.113792168E1,-8.207381964E-1,-1.195184994E1,-6.041877344E-2
1.115458761E1,-1.394417405E0,-1.015454102E1,-2.217847586E0
1.117125355E1,-2.408077002E0,-8.898010254E0,-4.846662045E0
1.118791949E1,-1.809273005E0,-8.266902924E0,-6.503991127E0
1.120458543E1,-1.824826360E0,-8.025826454E0,-6.816254616E0
1.122125136E1,-3.398107290E0,-7.258029461E0,-5.476273537E0
1.123791730E1,-5.837589741E0,-5.548656464E0,-3.550649643E0
1.125458324E1,-9.088538170E0,-3.615555048E0,-1.828116536E0
1.127124918E1,-1.050359440E1,-3.556332588E0,-1.556531072E0
1.128791511E1,-9.940084457E0,-3.781856298E0,-1.769193292E0
1.130458105E1,-1.178166008E1,-2.273480654E0,-1.139282703E0
1.132124699E1,-1.785195160E1,1.695613980E0,2.298605204E0
1.133791293E1,-2.860739136E1,1.146760273E1,1.114666557E1
1.135457886E1,-3.874368668E1,1.809841347E1,1.783370781E1
1.137124480E1,-4.107100677E1,2.131974983E1,1.849592018E1
1.138791074E1,-3.544996643E1,2.121895218E1,1.569990730E1
1.140457668E1,-2.480639267E1,1.624277878E1,1.175623703E1
1.142124261E1,-1.404108334E1,1.042911720E1,7.192824841E0
1.143790855E1,-5.793023586E0,7.072884560E0,3.416352510E0
1.145457449E1,-6.649056077E-1,5.719743252E0,1.552343726E0
1.147124043E1,1.477867126E0,5.323731422E0,2.069492579E0
1.148790636E1,2.469691992E0,5.933601856E0,3.467499018E0
1.150457230E1,3.346960783E0,5.891428471E0,4.197908401E0
1.152123824E1,3.610171080E0,5.484648705E0,4.389334202E0
1.153790418E1,3.083152056E0,5.725127220E0,3.691527128E0
1.155457011E1,3.064607620E0,5.672784328E0,2.764607430E0
1.157123605E1,3.003291607E0,5.110770226E0,2.265105724E0
1.158790199E1,3.223730326E0,4.977669239E0,1.608874083E0
1.160456793E1,2.300997972E0,5.042873859E0,2.074876308E0
1.162123386E1,3.616153300E-1,6.318846226E0,3.188735247E0
1.163789980E1,-2.329412937E0,8.025228500E0,2.859722137E0
1.165456574E1,-4.844867706E0,9.272486687E0,2.630609512E0
1.167123168E1,-5.438287735E0,1.091216850E1,3.925425529E0
1.168789761E1,-6.729514599E0,1.651675797E1,8.623434067E0
1.170456355E1,-1.379731464E1,2.224756813E1,1.430100346E1
1.172122949E1,-2.369612312E1,2.388575363E1,1.597298813E1
1.173789543E1,-2.832982445E1,2.234806633E1,1.368485165E1
1.175456136E1,-2.898067093E1,1.771675873E1,1.348714447E1
1.177122730E1,-2.497957230E1,8.963513374E0,1.507657719E1
1.178789324E1,-1.762762451E1,2.158026934E0,1.238405323E1
1.180455918E1,-1.105155087E1,-2.287239313E0,6.884150982E0
1.182122511E1,-6.459424496E0,-5.657230854E0,1.771586061E0
1.183789105E1,-3.281457186E0,-7.511070251E0,-1.193420291E0
1.185455699E1,3.200400248E-2,-8.812167168E0,-2.598904610E0
1.187122293E1,2.590529680E0,-1.018086243E1,-3.129513025E0
1.188788886E1,2.396710873E0,-1.042492962E1,-3.222533941E0
1.190455480E1,1.377368569E0,-9.809077263E0,-3.398107290E0
1.192122074E1,9.753743410E-1,-8.973383904E0,-3.743571043E0
1.193788668E1,1.188933730E0,-8.516354561E0,-4.855635166E0
1.195455261E1,6.939185858E-1,-8.065607071E0,-4.820640087E0
1.197121855E1,-4.046861231E-1,-6.901199818E0,-2.690130949E0
1.198788449E1,-3.366402388E0,-5.714658737E0,-1.506880045E0
1.200455043E1,-8.530412674E0,-4.556233406E0,-1.648654819E0
1.202121636E1,-1.172752285E1,-3.376571894E0,-2.487937450E0
1.203788230E1,-1.414247894E1,-1.662114382E0,-3.869792461E0
1.205454824E1,-1.617727661E1,-1.596910000E0,-5.846562862E0
1.207121418E1,-1.990978050E1,3.296113253E0,-3.738187075E0
1.208788011E1,-3.075195885E1,1.056760216E1,4.702494621E0
1.210454605E1,-4.253092575E1,1.614527130E1,1.602802277E1
1.212121199E1,-4.421337891E1,1.818066597E1,2.099731827E1
1.213787793E1,-3.646572113E1,1.683739471E1,1.870948029E1
1.215454386E1,-2.617359161E1,1.443948841E1,1.343719482E1
1.217120980E1,-1.749332809E1,1.129801083E1,8.044968605E0
1.218787574E1,-1.039232826E1,8.462516785E0,3.281756163E0
1.220454168E1,-4.859523773E0,6.143272877E0,9.445667267E-1
1.222120761E1,-2.433799744E0,5.133800983E0,9.664012194E-1
1.223787355E1,1.543370634E-1,3.966701746E0,1.718345761E0
1.225453949E1,2.457129717E0,3.419941664E0,2.776870728E0
1.227120543E1,3.998705626E0,3.190529823E0,3.153141975E0
1.228787136E1,4.999204636E0,2.781955481E0,2.757428885E0
1.230453730E1,5.827121258E0,2.116750717E0,2.052443504E0
1.232120324E1,6.442076683E0,1.485643744E0,1.421037555E0
1.233786918E1,6.681059837E0,1.415653706E0,1.479661703E0
1.235453511E1,6.480660915E0,1.643869162E0,1.722533226E0
1.237120105E1,5.830710411E0,2.021037817E0,1.696810365E0
1.238786699E1,4.423132420E0,2.843570709E0,1.788933992E0
1.240453293E1,1.447956800E0,4.947759151E0,2.866003275E0
1.242119886E1,-2.849552631E0,8.452047348E0,5.163711071E0
1.243786480E1,-6.141478539E0,1.222762299E1,7.133901596E0
1.245453074E1,-7.934898853E0,1.495514107E1,8.261219978E0
1.247119668E1,-1.320239925E1,1.868285942E1,1.153011513E1
1.248786261E1,-2.226252365E1,2.221735764E1,1.737578011E1
1.250452855E1,-2.929771996E1,2.214019012E1,2.060997963E1
1.252119449E1,-3.067448997E1,1.866371727E1,2.013709831E1
1.253786043E1,-2.789612389E1,1.312941742E1,1.744337845E1
1.255452636E1,-2.293460655E1,7.170691490E0,1.352124214E1
1.257119230E1,-1.715594101E1,2.268096685E0,9.206983566E0
1.258785824E1,-1.182233810E1,-1.077667475E0,5.694917679E0
1.260452418E1,-7.471588612E0,-3.821636915E0,3.041576624E0
1.262119011E1,-3.814757586E0,-6.493223190E0,1.059123158E0
1.263785605E1,-1.069591761E0,-8.537590981E0,-2.449652255E-1
1.265452199E1,9.272187948E-2,-9.826126099E0,-1.222433209E0
1.267118792E1,-7.178467698E-3,-1.032652569E1,-2.638087034E0
1.268785386E1,-5.964110494E-1,-1.031815052E1,-4.071387768E0
1.270451980E1,-9.804590940E-1,-1.008365345E1,-4.389633179E0
1.272118574E1,-1.092024446E0,-9.459425926E0,-3.628715515E0
1.273785168E1,-1.565803289E0,-8.769395828E0,-2.768795013E0
1.275451761E1,-2.897708178E0,-7.880163193E0,-2.666202545E0
1.277118355E1,-4.648356915E0,-7.032804966E0,-3.300001621E0
1.278784949E1,-6.950850487E0,-5.694618702E0,-4.191926003E0
1.280451542E1,-1.044586754E1,-3.147758245E0,-3.237788200E0
1.282118136E1,-1.433240986E1,1.854437590E-1,-1.252941728E0
1.283784730E1,-1.655534172E1,3.229413271E0,-7.974081635E-1
1.285451324E1,-1.775893211E1,6.814758778E0,5.560321808E-1
1.287117918E1,-2.095095634E1,1.039322472E1,6.314659119E0
1.288784511E1,-2.569951248E1,1.238764286E1,1.307976723E1
1.290451105E1,-2.768226624E1,1.257547951E1,1.586740494E1
1.292117699E1,-2.501366997E1,1.187348461E1,1.480379581E1
1.293784292E1,-1.954636955E1,1.036720276E1,1.241695499E1
1.295450886E1,-1.275972652E1,8.524430275E0,1.022213840E1
1.297117480E1,-5.345565796E0,7.169794083E0,8.578866959E0
1.298784074E1,1.293619752E0,6.038587093E0,7.319644451E0
1.300450668E1,5.598606586E0,4.205984116E0,6.276373863E0
1.302117261E1,7.116254330E0,1.986940145E0,6.029015541E0
1.303783855E1,4.623830795E0,1.410568953E0,6.350252151E0
1.305450449E1,-1.474576890E-1,2.584248543E0,6.616154671E0
1.307117042E1,-3.422932863E0,2.667398930E0,6.368796349E0
1.308783636E1,-4.831408024E0,5.593222976E-1,5.440680504E0
1.310450230E1,-6.525825500E0,-2.470888376E0,3.623032570E0
1.312116824E1,-9.559027672E0,-5.496313572E0,-7.450651526E-1
1.313783418E1,-1.316770267E1,-7.325925827E0,-6.132206440E0
1.315450011E1,-1.596910000E1,-7.553543091E0,-5.745765209E0
1.317116605E1,-1.733241081E1,-8.076375008E0,-7.504490018E-1
1.318783199E1,-1.584616852E1,-8.436793327E0,2.237887383E0
1.320449792E1,-1.230030441E1,-7.536494255E0,1.594816327E0
1.322116386E1,-9.812666893E0,-5.034498692E0,2.924627542E0
1.323782980E1,-8.781659126E0,-1.458724499E0,5.756234169E0
1.325449574E1,-9.565906525E0,2.328814745E0,7.090531826E0
1.327116168E1,-1.214925766E1,4.946562767E0,7.027420998E0
1.328782761E1,-1.253898907E1,5.650351524E0,4.593023300E0
1.330449355E1,-7.086344242E0,5.831607819E0,3.235694408E0
1.332115949E1,-3.735794425E-1,5.676971912E0,4.463511467E0
1.333782542E1,1.919043779E0,6.059823513E0,5.860321522E0
1.335449136E1,4.905286431E-2,7.639684677E0,8.307282448E0
1.337115730E1,-3.492324591E0,9.254241943E0,1.117268753E1
1.338782324E1,-5.769992828E0,1.006839943E1,1.128096199E1
1.340448918E1,-5.974578857E0,8.130512238E0,8.852845192E0
1.342115511E1,-5.421836853E0,5.257629395E0,5.753541946E0
1.343782105E1,-7.483552933E0,2.889632463E0,3.943371773E0
1.345448699E1,-1.307019520E1,9.415757060E-1,3.968496323E0
1.347115292E1,-1.979911232E1,5.763711333E-1,4.279862404E0
1.348781886E1,-2.302403831E1,-9.661021084E-2,4.054637909E0
1.350448480E1,-2.208964157E1,-1.907378793E0,3.389433384E0
1.352115074E1,-2.041586113E1,-3.145066261E0,3.744767427E0
1.353781668E1,-2.013350868E1,-2.716451883E0,5.642275810E0
1.355448261E1,-2.054746628E1,-2.577368975E0,6.724729061E0
1.357114855E1,-1.949223328E1,-3.552743435E0,4.966004372E0
1.358781449E1,-1.644497299E1,-4.296313286E0,1.192822099E0
1.360448042E1,-1.306092358E1,-3.998406649E0,-1.245763302E0
1.362114636E1,-1.078893852E1,-2.539682150E0,-6.269195080E-1
1.363781230E1,-9.913464546E0,-3.747758567E-1,2.817548752E0
1.365447824E1,-9.992726326E0,2.268994093E0,5.562116146E0
1.367114418E1,-8.878269196E0,4.333102703E0,3.751347780E0
1.368781011E1,-6.287440777E0,5.720042706E0,7.178468108E-1
1.370447605E1,-6.638886452E0,5.714957714E0,4.744070053E0
1.372114199E1,-1.030169964E1,4.291527271E0,1.545105362E1
1.373780792E1,-1.340249920E1,4.519144535E0,2.485933304E1
1.375447386E1,-1.420828152E1,5.519942760E0,2.603121758E1
1.377113980E1,-1.208554935E1,5.553741455E0,1.982214355E1
1.378780574E1,-7.864310741E0,6.777669907E0,1.244536972E1
1.380447168E1,-5.082355499E0,8.598608017E0,9.751948357E0
1.382113761E1,-5.431707382E0,9.208478928E0,1.079402256E1
1.383780355E1,-5.750251770E0,9.010472298E0,1.157886887E1
1.385446949E1,-4.403092861E0,7.484450340E0,9.520144463E0
1.387113542E1,-1.535294771E0,5.028217793E0,6.565008163E0
1.388780136E1,-5.745765567E-1,5.236393452E0,6.411568165E0
1.390446730E1,-5.955436230E0,7.771887779E0,1.274895859E1
1.392113324E1,-1.221386433E1,7.546364307E0,1.810529327E1
1.393779918E1,-1.374377537E1,6.608078957E0,1.620210075E1
1.395446511E1,-1.141316605E1,6.251249313E0,1.138534927E1
1.397113105E1,-8.509475708E0,5.560620785E0,7.218547821E0
1.398779699E1,-6.667600155E0,5.189434052E0,4.610969067E0
1.400446292E1,-6.946663380E0,4.640879631E0,3.803391695E0
1.402112886E1,-6.738786697E0,2.828017235E0,3.298506021E0
1.403779480E1,-4.486542225E0,9.900303483E-1,1.648654819E0
1.405446074E1,-2.728715181E0,-1.010967568E-1,1.676770449E0
1.407112668E1,-2.058724880E0,-4.004986882E-1,3.634398460E0
1.408779261E1,-1.706381679E0,-2.615654230E0,3.249752283E0
1.410445855E1,-1.031306505E0,-7.304090977E0,-2.650051117E-1
1.412112449E1,2.877369225E-1,-1.129412270E1,-3.599403381E0
1.413779042E1,-2.258226424E-1,-1.202752304E1,-3.016452074E0
1.415445636E1,-5.648856163E0,-9.967601776E0,1.059721351E0
1.417112230E1,-1.236431313E1,-8.002197266E0,4.519742966E0
1.418778824E1,-1.471047497E1,-7.449455261E0,3.410669565E0
1.420445418E1,-1.340369511E1,-8.680263519E0,-1.044467092E0
1.422112011E1,-1.226650620E1,-1.034148026E1,-2.540878534E0
1.423778605E1,-1.539960861E1,-1.009501934E1,6.149554253E-1
1.425445199E1,-2.151386833E1,-7.970791340E0,6.506084919E0
1.427111792E1,-2.535674095E1,-5.357230663E0,8.453842163E0
1.428778386E1,-2.555355072E1,-3.322135210E0,6.787241459E0
1.430444980E1,-2.745046043E1,-6.296114326E-1,7.588537693E0
1.432111574E1,-3.179881859E1,4.454837322E0,1.028853893E1
1.433778168E1,-3.296651459E1,7.475776196E0,1.183729362E1
1.435444761E1,-2.875873756E1,6.602993965E0,1.181067371E1
1.437111355E1,-2.128744698E1,5.385346413E0,1.180439186E1
1.438777949E1,-1.464975739E1,5.709274769E0,1.274686527E1
1.440444542E1,-1.068604660E1,7.824530125E0,1.331516075E1
1.442111136E1,-8.351549149E0,1.098544884E1,1.252313614E1
1.443777730E1,-5.551348686E0,1.328854084E1,1.070189953E1
1.445444324E1,-3.257229805E0,1.428933907E1,9.543174744E0
1.447110918E1,-2.543869495E0,1.463659668E1,1.044885826E1
1.448777511E1,-2.883650303E0,1.437637711E1,1.165244770E1
1.450444105E1,-3.857529163E0,1.410329628E1,1.125823021E1
1.452110699E1,-4.971088886E0,1.362233925E1,9.182456970E0
1.453777292E1,-5.860022545E0,1.272114277E1,6.642176628E0
1.455443886E1,-6.608078957E0,1.115952682E1,4.591826439E0
1.457110480E1,-7.623233795E0,9.775577545E0,3.390330553E0
1.458777074E1,-9.982557297E0,9.551849365E0,3.072982550E0
1.460443668E1,-1.336600780E1,9.309576035E0,3.473181963E0
1.462110261E1,-1.607647896E1,8.826524734E0,4.934000492E0
1.463776855E1,-1.870200348E1,8.182855606E0,7.330412388E0
1.465443449E1,-2.341705894E1,7.160222530E0,9.734601021E0
1.467110042E1,-2.889961433E1,6.282355785E0,1.014138031E1
1.468776636E1,-3.159722328E1,5.653342724E0,8.193324089E0
1.470443230E1,-3.027548790E1,4.268496513E0,6.439085960E0
1.472109824E1,-2.594836617E1,1.807179332E0,5.639883041E0
1.473776418E1,-2.014936066E1,-1.011864901E0,4.847260475E0
1.475443011E1,-1.412513161E1,-3.127419233E0,4.182653904E0
1.477109605E1,-9.075676918E0,-4.297210217E0,4.105186462E0
1.478776199E1,-5.753541946E0,-5.147858620E0,4.227220535E0
1.480442792E1,-3.412165165E0,-6.583253384E0,3.058924675E0
1.482109386E1,-1.866700768E0,-8.045866013E0,9.583254457E-1
1.483775980E1,-1.311864972E0,-8.841778755E0,-3.275175989E-1
1.485442574E1,-1.352542996E0,-9.142376900E0,-9.939187169E-1
1.487109168E1,-1.498206019E0,-9.338289261E0,-1.998605132E0
1.488775761E1,-1.400100350E0,-9.149256706E0,-3.335594654E0
1.490442355E1,-1.222134113E0,-9.263513565E0,-4.596911430E0
1.492108949E1,-1.054636598E0,-9.773484230E0,-5.635097504E0
1.493775542E1,-1.054935694E0,-9.960722923E0,-6.001797199E0
1.495442136E1,-1.613061547E0,-9.738788605E0,-4.967798710E0
1.497108730E1,-2.600699186E0,-9.352945328E0,-3.664607763E0
1.498775324E1,-4.109373569E0,-8.312366486E0,-2.943770170E0
1.500441918E1,-6.359225273E0,-6.521039963E0,-2.642573595E0
1.502108511E1,-9.491130829E0,-4.150949001E0,-3.152842999E0
1.503775105E1,-1.412812233E1,-1.666002721E-1,-3.413959742E0
1.505441699E1,-2.109721756E1,6.033502102E0,6.912266612E-1
1.507108292E1,-2.977329445E1,1.201854992E1,9.461220741E0
1.508774886E1,-3.534976578E1,1.569392586E1,1.657209206E1
1.510441480E1,-3.403221893E1,1.643540192E1,1.735095596E1
1.512108074E1,-2.730240631E1,1.478435421E1,1.540559006E1
1.513774668E1,-1.886441612E1,1.209541893E1,1.359332657E1
1.515441261E1,-1.122084236E1,9.719346046E0,1.105184937E1
1.517107855E1,-5.449055195E0,7.601997375E0,7.791329861E0
1.518774449E1,-1.235294700E0,5.869594097E0,5.258227825E0
1.520441042E1,1.906780601E0,5.127519608E0,3.740879059E0
1.522107636E1,3.673880100E0,4.840979099E0,2.478964329E0
1.523774230E1,3.895515203E0,4.862514496E0,1.118943691E0
1.525440824E1,3.401995659E0,4.894219398E0,-1.196411322E-3
1.527107418E1,3.036491871E0,4.376771927E0,-5.961119533E-1
1.528774011E1,3.186342478E0,3.308077335E0,-4.800600410E-1
1.530440605E1,3.161516905E0,2.809173822E0,1.076770201E-1
1.532107199E1,2.119143486E0,3.510270834E0,7.884350419E-1
1.533773792E1,2.365903407E-1,4.774578571E0,1.259222865E0
1.535440386E1,-2.289333105E0,6.296114445E0,1.271785259E0
1.537106980E1,-4.698606491E0,7.955836296E0,1.557727575E0
1.538773574E1,-6.344868183E0,1.009472084E1,3.405884027E0
1.540440168E1,-8.710771561E0,1.358734417E1,6.878767014E0
1.542106761E1,-1.320987606E1,1.801556206E1,1.055444145E1
1.543773355E1,-1.998036766E1,2.223979187E1,1.377787304E1
1.545439949E1,-2.712892532E1,2.415464783E1,1.686969948E1
1.547106542E1,-3.031526756E1,2.244557381E1,1.756062698E1
1.548773136E1,-2.909492874E1,1.770658875E1,1.498385525E1
1.550439730E1,-2.433590317E1,1.131745243E1,1.100399303E1
1.552106324E1,-1.688256073E1,5.141876698E0,7.140481949E0
1.553772918E1,-9.312865257E0,5.045864582E-1,4.603491783E0
1.555439511E1,-4.315754890E0,-2.915056229E0,3.896113396E0
1.557106105E1,-1.223928809E0,-6.100800514E0,4.135694981E0
1.558772699E1,1.405783277E-2,-9.307182312E0,3.981357813E0
1.560439292E1,-6.041877270E-1,-1.155045414E1,3.077469110E0
1.562105886E1,-1.745265007E0,-1.293081379E1,1.298704505E0
1.563772480E1,-1.964507341E0,-1.337408352E1,-1.144965649E0
1.565439074E1,-8.596215248E-1,-1.233440208E1,-3.181556702E0
1.567105668E1,4.387838542E-1,-1.112662506E1,-4.094418526E0
1.568772261E1,6.672984362E-1,-1.079252720E1,-4.003790379E0
1.570438855E1,-4.202394783E-1,-1.085683441E1,-3.121736288E0
1.572105449E1,-1.860419631E0,-1.007497978E1,-1.733600020E0
1.573772043E1,-3.706781387E0,-8.360522270E0,-6.529414654E-1
1.575438636E1,-6.472884178E0,-6.530013084E0,-4.674977362E-1
1.577105230E1,-9.870393753E0,-3.990629911E0,-1.146162033E0
1.578771824E1,-1.327777290E1,-4.166502357E-1,-2.955734253E0
1.580438418E1,-1.612702560E1,2.991028309E0,-3.897907972E0
1.582105011E1,-2.068176460E1,6.361618042E0,-1.035493970E0
1.583771605E1,-2.898396111E1,1.035284615E1,6.074479580E0
1.585438199E1,-3.700948715E1,1.342134190E1,1.341655636E1
1.587104793E1,-3.918396759E1,1.419691563E1,1.530628872E1
1.588771386E1,-3.464597702E1,1.299541950E1,1.340788269E1
1.590437980E1,-2.679034233E1,1.057777119E1,1.144666576E1
1.592104574E1,-1.869302940E1,8.140980721E0,9.653543472E0
1.593771168E1,-1.175474167E1,6.190531254E0,7.654639721E0
1.595437761E1,-6.137889385E0,4.995914459E0,5.702993870E0
1.597104355E1,-1.426421404E0,4.276273251E0,3.796512127E0
1.598770949E1,2.409273386E0,3.823431492E0,1.933699846E0
1.600437543E1,4.447957993E0,3.534498215E0,1.030708313E0
1.602104136E1,4.929812908E0,3.297907829E0,1.145264745E0
1.603770730E1,4.746761799E0,3.393919706E0,1.388435364E0
1.605437324E1,4.442873478E0,3.412165165E0,1.377368569E0
1.607103918E1,3.353840113E0,3.648157120E0,1.258026481E0
1.608770511E1,1.680658817E0,4.014857292E0,1.444367528E0
1.610437105E1,7.782655358E-1,4.407280445E0,1.680658817E0
1.612103699E1,-3.643072546E-1,5.288137913E0,2.962015390E0
1.613770292E1,-3.284448147E0,7.169494629E0,5.825924873E0
1.615436886E1,-7.329514980E0,1.054367352E1,9.225827217E0
1.617103480E1,-1.083111191E1,1.357538033E1,1.146790123E1
1.618770074E1,-1.552822208E1,1.587637806E1,1.403181076E1
1.620436668E1,-2.143969154E1,1.642941856E1,1.881536293E1
1.622103261E1,-2.590260506E1,1.477867126E1,2.279701996E1
1.623769855E1,-2.681995201E1,1.091067314E1,2.341376877E1
1.625436449E1,-2.347478676E1,5.638686657E0,1.969322968E1
1.627103042E1,-1.699801445E1,7.740781307E-1,1.311894894E1
1.628769636E1,-1.020957565E1,-2.778665304E0,6.212665081E0
1.630436230E1,-5.181956768E0,-5.467898846E0,9.936196208E-1
1.632102824E1,-1.733001828E0,-7.412964344E0,-1.952543259E0
1.633769418E1,-3.110669367E-2,-8.750552177E0,-2.929712296E0
1.635436011E1,-1.232303679E-1,-9.375976562E0,-3.131307602E0
1.637102605E1,-1.029811025E0,-8.591130257E0,-3.906582117E0
1.638769199E1,-1.275673628E0,-7.358228683E0,-5.150550842E0
1.640435792E1,-6.975077987E-1,-7.845168114E0,-6.182754517E0
1.642102386E1,-9.376873970E-1,-9.081359863E0,-5.767300606E0
1.643768980E1,-2.606681108E0,-9.326025963E0,-4.128217220E0
1.645435574E1,-4.719842434E0,-8.794520378E0,-4.383950233E0
1.647102168E1,-6.797410965E0,-7.911569118E0,-6.791728020E0
1.648768761E1,-9.555138588E0,-7.180561543E0,-9.184251785E0
1.650435355E1,-1.236192036E1,-6.890132904E0,-9.673284531E0
1.652101949E1,-1.517498207E1,-5.640480995E0,-7.863712311E0
1.653768542E1,-2.076910210E1,-2.341675997E0,-3.903291941E0
1.655435136E1,-2.871985435E1,1.496411443E0,1.501197100E0
1.657101730E1,-3.331826019E1,4.054936886E0,8.374280930E0
1.658768324E1,-3.220380402E1,5.711667538E0,1.444756413E1
1.660434918E1,-2.756920433E1,6.581458569E0,1.641895103E1
1.662101511E1,-2.079482460E1,7.518248558E0,1.512802315E1
1.663768105E1,-1.210558891E1,8.927022934E0,1.321256828E1
1.665434699E1,-1.485344648E0,1.128843975E1,1.245673561E1
1.667101292E1,8.483752251E0,1.339950752E1,1.252134132E1
1.668767886E1,1.375394440E1,1.253121185E1,1.302652645E1
1.670434480E1,1.495035553E1,1.034207821E1,1.450140285E1
1.672101074E1,1.202722359E1,8.808279037E0,1.637677765E1
1.673767668E1,2.388934374E0,8.328219414E0,1.611685753E1
1.675434261E1,-1.046112156E1,7.611568928E0,1.194197941E1
1.677100855E1,-1.916830444E1,4.695615292E0,3.962514400E0
1.678767449E1,-2.019572258E1,-2.267199457E-1,-1.639681697E0
1.680434042E1,-1.807358742E1,-5.120640278E0,-1.241276711E-1
1.682100636E1,-1.919671822E1,-6.831209660E0,4.184149265E0
1.683767230E1,-2.358874512E1,-6.285048008E0,4.614558697E0
1.685433824E1,-2.464607239E1,-6.603891373E0,2.997010350E-1
1.687100418E1,-1.908036804E1,-7.327720165E0,-4.210769653E0
1.688767011E1,-1.281805134E1,-6.535397053E0,-4.128217220E0
1.690433605E1,-1.162403297E1,-2.952743053E0,1.383649707E0
1.692100199E1,-1.306241894E1,1.807179332E0,6.703193665E0
1.693766792E1,-1.246211910E1,5.161916733E0,6.939185619E0
1.695433386E1,-8.255836487E0,6.218945980E0,4.136292934E0
1.697099980E1,-3.036192894E0,5.563312531E0,1.383051515E0
1.698766574E1,-2.333002165E-2,4.944468975E0,1.500598907E0
1.700433168E1,2.383849621E-1,5.182255745E0,2.339283228E0
1.702099761E1,-2.956332445E0,6.516553402E0,1.688734531E0
1.703766355E1,-6.599404812E0,7.656135082E0,1.429711580E0
1.705432949E1,-7.047461033E0,6.547659874E0,3.645166159E0
1.707099542E1,-5.829514027E0,4.287340164E0,8.598907471E0
1.708766136E1,-6.264110565E0,1.867298961E0,1.266221905E1
1.710432730E1,-8.234899521E0,1.851446480E-1,1.213280678E1
1.712099324E1,-9.455837250E0,3.418745399E-1,8.155936241E0
1.713765918E1,-9.294919968E0,1.323530078E0,3.736691713E0
1.715432511E1,-1.182383442E1,9.732806087E-1,1.917249203E0
1.717099105E1,-1.845105553E1,-5.793621540E-1,4.743771076E0
1.718765699E1,-2.394796753E1,-2.219342947E0,9.055337906E0
1.720432292E1,-2.287987137E1,-2.710170746E0,1.035254669E1
1.722098886E1,-1.639203072E1,-1.215852976E0,7.200302601E0
1.723765480E1,-9.719047546E0,1.797608018E0,2.255235314E-1
1.725432074E1,-6.501897335E0,4.426123619E0,-4.080659866E0
1.727098668E1,-6.707680225E0,5.302793980E0,-3.419044495E0
1.728765261E1,-9.126823425E0,6.068497181E0,3.532404304E-1
1.730431855E1,-1.333878994E1,7.837690353E0,6.841977119E0
1.732098449E1,-1.751875114E1,1.002203846E1,1.368215942E1
1.733765042E1,-1.820070648E1,1.113888836E1,1.591227055E1
1.735431636E1,-1.443560028E1,1.112662506E1,1.301007557E1
1.737098230E1,-9.251549721E0,1.013838959E1,9.599406242E0
1.738764824E1,-6.336792469E0,8.617451668E0,8.701200485E0
1.740431418E1,-6.500999928E0,7.486543655E0,9.554840088E0
1.742098011E1,-7.779066563E0,7.447361469E0,1.005165005E1
1.743764605E1,-8.007282257E0,8.951549530E0,8.966205597E0
1.745431199E1,-7.427620411E0,9.640981674E0,6.381359100E0
1.747097792E1,-6.281458378E0,9.097212791E0,4.175475597E0
1.748764386E1,-5.859125137E0,8.245068550E0,3.708875179E0
1.750430980E1,-7.236793041E0,7.552047253E0,4.983352184E0
1.752097574E1,-7.783253670E0,6.117550373E0,6.046961784E0
1.753764168E1,-5.903691769E0,4.751248360E0,5.937490463E0
1.755430761E1,-3.377170086E0,4.096811295E0,4.475176334E0
1.757097355E1,-3.578466177E0,4.451248169E0,8.365905881E-1
1.758763949E1,-7.398308277E0,4.652245522E0,-5.949155092E-1
1.760430542E1,-1.283958721E1,3.090330362E0,2.589333296E0
1.762097136E1,-1.502363586E1,1.585244946E-2,8.988637924E0
1.763763730E1,-1.215703487E1,-2.003091574E0,1.403749371E1
1.765430324E1,-8.497212410E0,-2.557628393E0,1.428784275E1
1.767096918E1,-6.933203697E0,-3.693919897E0,1.045573807E1
1.768763511E1,-6.243771553E0,-6.017649651E0,4.864907742E0
1.770430105E1,-5.076672554E0,-7.845766544E0,-9.646066427E-1
1.772096699E1,-4.458426952E0,-8.820542336E0,-3.216551781E0
1.773763292E1,-5.648856163E0,-9.354142189E0,-2.231008053E0
1.775429886E1,-9.081061363E0,-7.817949772E0,-1.824527234E-1
1.777096480E1,-1.472543049E1,-3.789034605E0,1.527219057E0
1.778763074E1,-1.873191261E1,-3.137588799E-1,2.750848770E0
1.780429668E1,-1.829462433E1,1.095015407E0,4.259822369E0
1.782096261E1,-1.693071556E1,3.396910906E0,6.645466805E0
1.783762855E1,-1.830748558E1,7.680362701E0,8.532207489E0
1.785429449E1,-2.067129517E1,9.934102058E0,9.189635277E0
1.787096042E1,-2.072184372E1,9.680462837E0,1.143619633E1
1.788762636E1,-1.677278900E1,8.696713448E0,1.391695595E1
1.790429230E1,-1.112393379E1,8.091329575E0,1.434676647E1
1.792095824E1,-6.636792660E0,8.738588333E0,1.332622719E1
1.793762418E1,-3.448057413E0,1.051825047E1,1.079133129E1
1.795429011E1,-1.088136077E0,1.177418327E1,7.509275436E0
1.797095605E1,2.700898647E-1,1.184925747E1,6.872485638E0
1.798762199E1,1.468295813E0,1.175085258E1,7.739584923E0
1.800428792E1,2.776870728E0,1.148225880E1,8.465507507E0
1.802095386E1,3.177369356E0,1.153101254E1,7.620242596E0
1.803761980E1,2.000100613E0,1.152233791E1,5.330909729E0
1.805428574E1,-6.831508875E-1,1.134377384E1,4.715655327E0
1.807095168E1,-4.617549419E0,1.185105228E1,7.385746002E0
1.808761761E1,-9.509675026E0,1.276899910E1,9.926923752E0
1.810428355E1,-1.245075321E1,1.212772274E1,7.913662910E0
1.812094949E1,-1.149033451E1,9.761220932E0,3.076571703E0
1.813761542E1,-9.393324852E0,8.218448639E0,7.537391186E-1
1.815428136E1,-8.559425354E0,7.602894783E0,2.812164783E0
1.817094730E1,-9.760921478E0,6.354140759E0,6.352046967E0
1.818761324E1,-1.212443256E1,4.273581028E0,8.947361946E0
1.820427918E1,-1.340578842E1,2.151745796E0,7.346264839E0
1.822094511E1,-1.272323608E1,3.134597540E-1,2.455634356E0
1.823761105E1,-1.012792110E1,-2.376671076E0,-1.092622638E0
1.825427699E1,-6.569195271E0,-4.773382187E0,-1.165005565E0
1.827094292E1,-4.108775616E0,-6.200102806E0,8.617152572E-1
1.828760886E1,-3.623331785E0,-6.726822853E0,3.337688446E0
1.830427480E1,-4.872684002E0,-6.920341969E0,4.477270126E0
1.832094074E1,-7.440482140E0,-5.835196972E0,3.202493906E0
1.833760668E1,-8.670990944E0,-4.228416920E0,7.552346587E-1
1.835427261E1,-7.257730007E0,-3.273082256E0,-6.547361016E-1
1.837093855E1,-5.583651543E0,-3.572783232E0,-9.164510965E-1
1.838760449E1,-6.017649651E0,-4.154538155E0,-7.073782086E-1
1.840427042E1,-8.148458481E0,-3.933202267E0,-4.465605319E-1
1.842093636E1,-1.142064381E1,-2.417947292E0,-1.244566917E0
1.843760230E1,-1.575613880E1,-1.004985496E-1,-3.471985579E0
1.845426824E1,-2.004318047E1,2.639582396E0,-4.106382847E0
1.847093418E1,-2.462154770E1,6.396912098E0,1.244267747E-1
1.848760011E1,-2.928276443E1,9.772287369E0,5.347061157E0
1.850426605E1,-3.126342392E1,1.032443142E1,9.144769669E0
1.852093199E1,-2.859213638E1,1.001156998E1,1.172243786E1
1.853759792E1,-2.216441727E1,9.248857498E0,1.323200989E1
1.855426386E1,-1.577558041E1,8.159524918E0,1.300499153E1
1.857092980E1,-1.100997543E1,7.274180889E0,9.889835358E0
1.858759574E1,-7.356733322E0,6.273981094E0,5.275276661E0
1.860426168E1,-4.202394962E0,5.087440014E0,1.896910191E0
1.862092761E1,-1.819741607E0,4.612763882E0,3.672982752E-1
1.863759355E1,-1.854437590E-1,4.499702930E0,4.474578202E-1
1.865425949E1,9.191430211E-1,4.927719116E0,9.134600163E-1
1.867092542E1,2.043171406E0,6.469295025E0,1.405783296E0
1.868759136E1,2.879163742E0,7.936394691E0,2.296212435E0
1.870425730E1,3.160619497E0,8.637192726E0,3.238087177E0
1.872092324E1,2.618645191E0,8.971888542E0,3.903591156E0
1.873758918E1,2.238186598E0,8.620143890E0,4.111168385E0
1.875425511E1,2.311466694E0,8.368897438E0,3.720241070E0
1.877092105E1,2.094617128E0,8.901598930E0,3.855435371E0
1.878758699E1,3.828516230E-2,1.015244770E1,5.774179935E0
1.880425292E1,-3.620938778E0,1.136620712E1,7.948657513E0
1.882091886E1,-8.219944000E0,1.283898926E1,8.317451477E0
1.883758480E1,-1.297508049E1,1.520997715E1,8.750253677E0
1.885425074E1,-1.692802429E1,1.800419617E1,1.265384388E1
1.887091668E1,-2.198794556E1,1.988674927E1,1.636690712E1
1.888758261E1,-2.744088936E1,1.949223328E1,1.578216076E1
1.890424855E1,-3.021835899E1,1.765723610E1,1.216361523E1
1.892091449E1,-2.935634422E1,1.372014618E1,9.547661781E0
1.893758042E1,-2.399253273E1,7.858926773E0,7.832007408E0
1.895424636E1,-1.601426506E1,2.133799553E0,6.265605927E0
1.897091230E1,-8.444271088E0,-2.448156595E0,5.509474277E0
1.898757824E1,-3.224926710E0,-5.619843006E0,5.256732464E0
1.900424418E1,-2.781656384E-2,-8.209176064E0,4.116552353E0
1.902091011E1,1.430309772E0,-1.022393322E1,1.824228168E0
1.903757605E1,8.150551915E-1,-1.104138088E1,-1.947159469E-1
1.905424199E1,-4.908277392E-1,-1.098514938E1,-1.466501236E0
1.907090792E1,-8.880363107E-1,-1.009172916E1,-2.507678032E0
1.908757386E1,-4.965107143E-2,-9.048159599E0,-3.213859797E0
1.910423980E1,8.063812256E-1,-8.734400749E0,-3.322135210E0
1.912090574E1,7.624131441E-1,-9.144171715E0,-3.270091295E0
1.913757168E1,3.424727321E-1,-9.533005714E0,-2.985943556E0
1.915423761E1,-9.361918569E-1,-8.884849548E0,-2.410170555E0
1.917090355E1,-4.294817448E0,-7.105187893E0,-2.062314034E0
1.918756949E1,-9.242277145E0,-4.765306473E0,-2.010868311E0
1.920423542E1,-1.396421337E1,-2.059622049E0,-9.711868763E-1
1.922090136E1,-1.813490295E1,9.547362328E-1,1.990828395E0
1.923756730E1,-2.348017120E1,5.173282623E0,6.992126942E0
1.925423324E1,-3.012294579E1,1.014676476E1,1.264666557E1
1.927089918E1,-3.376900864E1,1.401386452E1,1.592453384E1
1.928756511E1,-3.393740463E1,1.546929932E1,1.618654823E1
1.930423105E1,-3.119462967E1,1.450409412E1,1.689512253E1
1.932089699E1,-2.538306236E1,1.273908901E1,1.697587967E1
1.933756292E1,-1.833919144E1,1.035673428E1,1.439013672E1
1.935422886E1,-1.200808144E1,8.124829292E0,9.960124016E0
1.937089480E1,-7.077371120E0,6.543771744E0,5.938985825E0
1.938756074E1,-3.617648840E0,5.895316601E0,3.360121250E0
1.940422668E1,-1.305284739E0,5.701498032E0,2.038086653E0
1.942089261E1,4.118646085E-1,5.512465000E0,1.488335729E0
1.943755855E1,1.742573142E0,5.141278744E0,1.508973837E0
1.945422449E1,2.661715984E0,4.748855591E0,1.739881158E0
1.947089042E1,3.427419424E0,4.299304008E0,2.054537296E0
1.948755636E1,4.153940201E0,3.751646757E0,2.338385820E0
1.950422230E1,4.611866474E0,3.576970816E0,1.942373753E0
1.952088824E1,4.208376884E0,4.183551311E0,1.832004786E0
1.953755418E1,3.356232882E0,5.209175110E0,2.742174864E0
1.955422011E1,2.831008196E0,6.117550373E0,3.689433336E0
1.957088605E1,2.530110836E0,7.031608582E0,4.939383984E0
1.958755199E1,1.577468276E0,7.915158272E0,6.008377552E0
1.960421792E1,-1.268195957E-1,1.033370399E1,6.042176247E0
1.962088386E1,-3.053839922E0,1.487797260E1,8.255238533E0
1.963754980E1,-9.611968994E0,2.044726753E1,1.712244034E1
1.965421574E1,-1.975334930E1,2.358635139E1,2.364258385E1
1.967088168E1,-2.732513809E1,2.365843582E1,2.340599251E1
1.968754761E1,-2.872972488E1,2.082892227E1,1.924906158E1
1.970421355E1,-2.613859558E1,1.560090446E1,1.491207027E1
1.972087949E1,-2.074607086E1,9.420842171E0,1.140658569E1
1.973754542E1,-1.428724480E1,3.823132277E0,8.584251404E0
1.975421136E1,-9.133105278E0,-1.537388563E-1,6.358926296E0
1.977087730E1,-5.965905190E0,-2.839682341E0,4.179663181E0
1.978754324E1,-4.212265015E0,-5.016253471E0,2.275873423E0
1.980420918E1,-3.223132133E0,-6.653542519E0,5.186443329E-1
1.982087511E1,-2.943470955E0,-7.345666409E0,-8.697910309E-1
1.983754105E1,-2.760420084E0,-7.926225185E0,-1.513161182E0
1.985420699E1,-2.229512453E0,-8.675477982E0,-1.996511340E0
1.987087292E1,-1.380359530E0,-9.667302132E0,-2.708376169E0
1.988753886E1,-3.260220960E-2,-1.027029419E1,-3.551846027E0
1.990420480E1,7.755736113E-1,-1.033819008E1,-4.113561153E0
1.992087074E1,4.435695112E-1,-1.045513916E1,-4.312464714E0
1.993753668E1,-1.055234790E0,-1.030409241E1,-4.219742775E0
1.995420261E1,-3.366701365E0,-9.625428200E0,-3.835096598E0
1.997086855E1,-6.236892223E0,-8.033902168E0,-3.535993576E0
1.998753449E1,-9.565608025E0,-5.105386257E0,-3.355036497E0
2.000420042E1,-1.313061428E1,-1.576570988E0,-3.710968733E0
2.002086636E1,-1.712393570E1,2.554637194E0,-1.812563181E0
2.003753230E1,-2.356002998E1,8.051848412E0,4.898108006E0
2.005419824E1,-3.228246689E1,1.407278824E1,1.389960766E1
2.007086418E1,-3.767439270E1,1.839332771E1,2.044816589E1
2.008753011E1,-3.642354584E1,1.969981003E1,2.379063988E1
2.010419605E1,-3.085156059E1,1.830329895E1,2.248714828E1
2.012086199E1,-2.342752838E1,1.540858173E1,1.761596107E1
2.013752792E1,-1.583360672E1,1.223390388E1,1.151635647E1
2.015419386E1,-9.580562592E0,9.362516403E0,6.064908028E0
2.017085980E1,-4.949852943E0,6.846164703E0,2.893520832E0
2.018752574E1,-1.339083314E0,4.899005413E0,1.977667928E0
2.020419168E1,1.465304732E0,3.530609846E0,2.205584288E0
2.022085761E1,3.154637575E0,2.918047190E0,2.144268274E0
2.023752355E1,3.780061483E0,2.573181629E0,2.329412937E0
2.025418949E1,3.770191193E0,2.588435888E0,2.513660192E0
2.027085542E1,3.239881754E0,3.321835995E0,2.073380709E0
2.028752136E1,2.824428082E0,4.074677944E0,1.051346421E0
2.030418730E1,2.906083107E0,4.196113586E0,1.573280841E-1
2.032085324E1,3.196810961E0,4.414757729E0,1.854437590E-1
2.033751918E1,2.682653189E0,5.413761139E0,1.864906192E0
2.035418511E1,8.877372146E-1,6.892226696E0,3.415156126E0
2.037085105E1,-1.021436214E0,8.532505989E0,4.330709934E0
2.038751699E1,-2.145165443E0,1.064207840E1,7.531708241E0
2.040418292E1,-4.959125042E0,1.223809147E1,1.288744354E1
2.042084886E1,-1.329003620E1,1.399412441E1,1.800898170E1
2.043751480E1,-2.311466599E1,1.593141270E1,2.109632111E1
2.045418074E1,-2.831756020E1,1.597328758E1,2.009342957E1
2.047084668E1,-2.809293365E1,1.334836102E1,1.770688820E1
2.048751261E1,-2.356242371E1,9.321838379E0,1.501765442E1
2.050417855E1,-1.704706764E1,5.116153717E0,1.168714428E1
2.052084449E1,-1.144427204E1,1.781157374E0,8.347063065E0
2.053751042E1,-7.812865257E0,-2.880360186E-1,5.491528034E0
2.055417636E1,-5.788836002E0,-1.723131418E0,3.036192894E0
2.057084230E1,-4.859224796E0,-3.015255690E0,8.003991842E-1
2.058750824E1,-4.683053017E0,-3.702594042E0,-9.813563824E-1
2.060417418E1,-4.476373196E0,-3.987040758E0,-2.310868502E0
2.062084011E1,-3.646661758E0,-4.185645103E0,-3.364009619E0
2.063750605E1,-2.053640127E0,-4.463810444E0,-4.497011185E0
2.065417199E1,-5.431707501E-1,-5.062913418E0,-5.828916073E0
2.067083792E1,-2.841476910E-2,-5.726922035E0,-7.006783009E0
2.068750386E1,-1.947159469E-1,-6.080760479E0,-7.616055489E0
2.070416980E1,-9.744769931E-1,-5.582754135E0,-7.186842918E0
2.072083574E1,-2.520539522E0,-4.854738235E0,-6.160621166E0
2.073750168E1,-4.058227062E0,-4.119543076E0,-5.075176716E0
2.075416761E1,-4.911866665E0,-2.743670225E0,-3.793222189E0
2.077083355E1,-6.177071571E0,-8.398807645E-1,-2.593221426E0
2.078749949E1,-1.023529911E1,2.899502754E0,-3.086741269E-1
2.080416542E1,-1.797607994E1,8.288139343E0,4.915455818E0
2.082083136E1,-2.544527626E1,1.245673561E1,1.017996502E1
2.083749730E1,-2.962045288E1,1.431117344E1,1.417478180E1
2.085416324E1,-2.906711197E1,1.463839149E1,1.440688610E1
2.087082918E1,-2.528316307E1,1.376441288E1,1.289522076E1
2.088749511E1,-1.945723724E1,1.163210869E1,1.112901783E1
2.090416105E1,-1.253779221E1,9.393922806E0,8.857332230E0
2.092082699E1,-6.702296257E0,7.486244678E0,6.637091637E0
2.093749292E1,-3.267698526E0,6.385247231E0,5.058127880E0
2.095415886E1,-1.775175333E0,5.926124573E0,3.903591156E0
2.097082480E1,-1.042971611E0,5.796912193E0,2.942274570E0
2.098749074E1,-4.872384965E-1,5.764907837E0,2.345863581E0
2.100415668E1,-1.683948934E-1,5.546862125E0,2.426023006E0
2.102082261E1,3.792623878E-1,5.204987526E0,2.978466034E0
2.103748855E1,1.131505966E0,4.970789909E0,3.373879910E0
2.105415449E1,1.666002750E0,4.677669048E0,3.443271875E0
2.107082042E1,1.774577141E0,4.395017147E0,3.171985626E0
2.108748636E1,1.165902853E0,4.906782150E0,3.686143398E0
2.110415230E1,-5.234299600E-2,5.552844048E0,5.897111416E0
2.112081824E1,-1.405185103E0,5.616852283E0,7.216753006E0
2.113748418E1,-2.432902336E0,6.505785465E0,7.390232563E0
2.115415011E1,-2.140080690E0,8.647959709E0,9.110373497E0
2.117081605E1,-9.326026440E-1,1.006510925E1,1.204846001E1
2.118748199E1,-3.079861879E0,9.346963882E0,1.574925995E1
2.120414792E1,-8.976674080E0,8.276473999E0,2.089861298E1
2.122081386E1,-1.530449390E1,7.105785847E0,2.522393990E1
2.123747980E1,-1.884138489E1,5.658427238E0,2.596541595E1
2.125414574E1,-1.870050812E1,3.447160006E0,2.393301201E1
2.127081168E1,-1.613450432E1,1.885245085E0,2.016760635E1
2.128747761E1,-1.294068432E1,9.819545746E-1,1.607677650E1
2.130414355E1,-9.824930191E0,-1.633101404E-1,1.252732372E1
2.132080949E1,-7.227221489E0,-1.006780148E0,1.004835987E1
2.133747542E1,-5.659025669E0,-1.255035520E0,8.215756416E0
2.135414136E1,-4.923830986E0,-1.406979680E0,6.366403580E0
2.137080730E1,-4.061218262E0,-1.058225870E0,4.433301926E0
2.138747324E1,-3.589233875E0,-2.739782035E-1,3.047259569E0
2.140413918E1,-3.841078520E0,3.604189157E-1,1.725524187E0
2.142080511E1,-3.883850336E0,8.078767657E-1,7.986045629E-2
2.143747105E1,-3.166900873E0,1.008275628E0,-2.754737139E-1
2.145413699E1,-2.321336985E0,3.661018610E-1,1.608275890E0
2.147080292E1,-1.919342875E0,-2.237289101E-1,3.975076675E0
2.148746886E1,-2.044068813E0,1.127617657E-1,4.312165737E0
2.150413480E1,-3.345165968E0,7.932206988E-1,3.588336706E0
2.152080074E1,-3.992723703E0,1.437787294E0,3.541078329E0
2.153746668E1,-2.318645239E0,1.776371717E0,5.652146339E0
2.155413261E1,4.208376706E-1,1.857129455E0,9.317651749E0
2.157079855E1,-4.785645287E-3,2.853740215E0,1.209093285E1
2.158746449E1,-3.985844374E0,5.727818966E0,1.243729401E1
2.160413042E1,-6.625426769E0,8.404490471E0,1.335464191E1
2.162079636E1,-7.166204929E0,8.834898949E0,1.590359688E1
2.163746230E1,-6.670591354E0,7.768597603E0,1.733988762E1
2.165412824E1,-5.368896008E0,6.747759819E0,1.660708618E1
2.167079418E1,-3.502793312E0,6.126523495E0,1.377637768E1
2.168746011E1,-1.647757530E0,5.732604980E0,9.673284531E0
2.170412605E1,1.354935765E-1,4.927420139E0,6.027520180E0
2.172079199E1,7.504490018E-1,4.253242016E0,6.048158169E0
2.173745792E1,3.825525343E-1,3.777369738E0,8.483453751E0
2.175412386E1,-1.208375469E-1,3.240180969E0,9.344570160E0
2.177078980E1,-7.118647546E-2,2.961417198E0,8.102396965E0
2.178745574E1,2.383849621E-1,2.748754978E0,5.853143215E0
2.180412168E1,7.271189690E-1,2.490330219E0,3.987638950E0
2.182078761E1,1.092323542E0,2.191825628E0,3.471387386E0
2.183745355E1,7.842476368E-1,1.935494423E0,4.411467552E0
2.185411949E1,3.233301640E-1,1.763510346E0,5.446363449E0
2.187078542E1,1.076770201E-1,1.788634896E0,5.803791523E0
2.188745136E1,2.721835673E-1,1.931306958E0,5.418247700E0
2.190411730E1,3.463610709E-1,2.592324257E0,5.070690155E0
2.192078324E1,2.030908167E-1,3.208476067E0,5.484349728E0
2.193744918E1,4.187439568E-3,3.352344513E0,7.435696602E0
2.195411511E1,9.293124676E-1,3.751048565E0,9.176176071E0
2.197078105E1,2.635395050E0,4.302893162E0,7.864609718E0
2.198744699E1,2.237289190E0,6.051747799E0,5.929414749E0
2.200411292E1,-1.356132269E0,8.892027855E0,9.512666702E0
2.202077886E1,-5.608178139E0,1.087837029E1,1.709881210E1
2.203744480E1,-5.811268806E0,8.715856552E0,1.950569153E1
2.205411074E1,-3.119941711E0,7.153044224E0,1.518395519E1
2.207077668E1,-2.163709879E0,7.480262756E0,1.172842026E1
2.208744261E1,-2.180758715E0,7.763214111E0,1.025324535E1
2.210410855E1,-1.587936878E0,7.424031258E0,9.551250458E0
2.212077449E1,-2.653042078E-1,5.979065418E0,9.192625999E0
2.213744042E1,4.579264224E-1,4.823332310E0,9.130712509E0
2.215410636E1,2.566302419E-1,4.381856441E0,8.930911064E0
2.217077230E1,-6.457630396E-1,4.960022449E0,8.179565430E0
2.218743824E1,-1.549651742E0,5.410770416E0,7.484150887E0
2.220410418E1,-1.870589137E0,5.051248550E0,6.836294174E0
2.222077011E1,-1.572682738E0,4.282554150E0,5.833103180E0
2.223743605E1,-1.305284739E0,3.821337700E0,5.141577721E0
2.225410199E1,-1.489831209E0,3.639782429E0,5.058426857E0
2.227076792E1,-1.900499344E0,3.737888098E0,5.107180595E0
2.228743386E1,-2.090728760E0,3.757329702E0,4.956732273E0
2.230409980E1,-1.892124534E0,3.573680639E0,4.904987335E0
2.232076574E1,-1.711765528E0,3.371187925E0,5.097908497E0
2.233743168E1,-1.810768485E0,3.567399502E0,5.692524910E0
2.235409761E1,-2.298904419E0,4.056731701E0,6.310172558E0
2.237076355E1,-2.713759899E0,4.558028221E0,6.965806007E0
2.238742949E1,-2.561217546E0,4.815256596E0,7.364809036E0
2.240409542E1,-2.272583246E0,4.811966419E0,8.240880966E0
2.242076136E1,-2.416451693E0,5.017449856E0,9.590433121E0
2.243742730E1,-3.165106058E0,5.757131100E0,1.093759251E1
2.245409324E1,-3.621836185E0,6.387042046E0,1.105035400E1
2.247075918E1,-3.521935940E0,6.669992924E0,1.010159969E1
2.248742511E1,-3.492324591E0,6.743572235E0,9.792028427E0
2.250409105E1,-3.666701555E0,6.001498222E0,1.031785107E1
2.252075699E1,-4.207180500E0,4.944169998E0,1.169671535E1
2.253742292E1,-4.951647282E0,4.385744572E0,1.273968697E1
2.255408886E1,-5.316552639E0,4.415655136E0,1.229910851E1
2.257075480E1,-5.068297386E0,4.646861553E0,1.030050373E1
2.258742074E1,-4.281657219E0,4.947759151E0,7.682456017E0
2.260408668E1,-3.595814228E0,5.491528034E0,6.150750637E0
2.262075261E1,-3.126222849E0,5.767300606E0,6.378965855E0
2.263741855E1,-2.689532757E0,6.028118610E0,7.006184578E0
2.265408449E1,-2.308475733E0,6.083751678E0,7.283154011E0
2.267075042E1,-1.868495345E0,5.848058701E0,7.491628647E0
2.268741636E1,-1.765304923E0,5.578567028E0,8.000701904E0
2.270408230E1,-2.265404940E0,5.609374523E0,8.553742409E0
2.272074824E1,-2.993720293E0,5.719444275E0,9.000003815E0
2.273741418E1,-3.503391504E0,5.707480431E0,8.974580765E0
2.275408011E1,-3.247658491E0,5.474180222E0,8.528019905E0
2.277074605E1,-2.715554714E0,5.146064281E0,8.018049240E0
2.278741199E1,-2.298904419E0,4.899304390E0,7.182954311E0
2.280407792E1,-2.292922258E0,4.902594566E0,6.457331181E0
2.282074386E1,-2.708974361E0,5.129015446E0,6.064010620E0
2.283740980E1,-3.145664454E0,5.357829094E0,6.027221203E0
2.285407574E1,-3.206980467E0,5.378766060E0,6.543472767E0
2.287074168E1,-3.036491871E0,5.171188831E0,6.752545357E0
2.288740761E1,-3.117847919E0,5.148457050E0,6.915855408E0
