"Time (s)","Gyroscope x (rad/s)","Gyroscope y (rad/s)","Gyroscope z (rad/s)"
2.729667500E-2,-1.166217208E0,-4.163807034E-1,-4.963276163E-2
4.396261300E-2,-7.628173828E-1,-4.182896614E-1,2.105192691E-1
6.062855000E-2,-2.708421648E-1,-1.970802546E-1,3.748418987E-1
7.729448800E-2,-2.674060464E-1,-3.252854943E-1,2.122755051E-1
9.396042500E-2,-6.047561169E-1,-6.664534807E-1,1.440113783E-1
1.106263630E-1,-9.411135316E-1,-9.520327449E-1,2.287688553E-1
1.272923000E-1,-1.113606453E0,-1.101770997E0,1.847102344E-1
1.439582380E-1,-7.896190882E-1,-8.593340516E-1,7.880155742E-2
1.606241750E-1,1.085812151E-1,-2.493091822E-1,-5.497782957E-3
1.772901130E-1,8.733839393E-1,5.146535859E-2,-1.786779463E-1
1.939560500E-1,8.281035423E-1,-4.776962698E-1,-3.284925222E-1
2.106219880E-1,5.160280466E-1,-1.507079720E0,-3.627009690E-1
2.272879250E-1,1.039615512E0,-1.686673999E0,-2.792415619E-1
2.439538630E-1,2.810207129E0,-7.072287202E-1,-2.473238707E-1
2.606198000E-1,4.254978657E0,1.695913374E-1,-4.995346665E-1
2.772857380E-1,4.115777969E0,2.175442129E-1,-7.954986691E-1
2.939516750E-1,2.643440962E0,-2.195295244E-1,-6.937896609E-1
3.106176130E-1,2.843575478E-1,-6.982184649E-1,-4.764745235E-1
3.272835500E-1,-1.773874998E0,-1.087644696E0,-2.977202237E-1
3.439494880E-1,-2.747975111E0,-1.036561131E0,-6.238456443E-2
3.606154250E-1,-2.518595457E0,2.863428742E-2,2.729802132E-1
3.772813630E-1,-1.393077135E0,1.766849995E0,3.203985691E-1
3.939473000E-1,-3.989710510E-1,2.909854412E0,1.895207912E-1
4.106132380E-1,-3.332267404E-1,3.225594997E0,-1.319467872E-1
4.272791750E-1,-1.019227862E0,2.980027437E0,-7.296016216E-1
4.439451130E-1,-1.848858595E0,2.666501045E0,-1.581758022E0
4.606110500E-1,-2.137568474E0,2.591135740E0,-2.056094408E0
4.772769880E-1,-1.330768943E0,3.051422358E0,-1.438968301E0
4.939429250E-1,-6.030762792E-1,3.500789642E0,-6.840158105E-1
5.106088630E-1,-1.101923704E0,2.939252138E0,-8.802561760E-1
5.272748000E-1,-2.717661142E0,2.516686440E0,-1.951942086E0
5.439407380E-1,-3.393659353E0,3.163974047E0,-2.705672741E0
5.606066750E-1,-2.079612732E0,4.453051567E0,-2.329609156E0
5.772726130E-1,-5.117519498E-1,5.067428589E0,-1.738139391E0
5.939385500E-1,-9.240093231E-1,3.831267595E0,-1.449353099E0
6.106044880E-1,-3.060890675E0,1.619020700E0,-1.110246778E0
6.272704250E-1,-4.797350407E0,9.674570709E-2,-3.239873946E-1
6.439363630E-1,-4.477638721E0,7.529671788E-1,4.787652567E-2
6.606023000E-1,-2.422460556E0,2.655505657E0,-3.397171795E-1
6.772682380E-1,-7.221949100E-1,3.700618744E0,-9.432515502E-1
6.939341750E-1,-1.983783394E-1,3.052567720E0,-1.139644623E0
7.106001130E-1,-2.404516488E-1,1.468518972E0,-8.702532649E-1
7.272660500E-1,-4.295142889E-1,1.678351015E-1,1.580612548E-2
7.439319880E-1,-5.309942365E-1,-2.774853408E-1,1.091309905E0
7.605979250E-1,-6.181188226E-1,-1.775325835E-1,1.770820618E0
7.772638630E-1,-7.168498039E-1,-4.169152305E-2,1.828700066E0
7.939298000E-1,-9.495893121E-1,-1.715766490E-1,1.719431639E0
8.105957380E-1,-1.017624378E0,-5.414552689E-1,1.719966173E0
8.272616750E-1,-7.370083332E-1,-8.765909672E-1,1.789833784E0
8.439276130E-1,-3.014617562E-1,-1.053970814E0,1.985081434E0
8.605935500E-1,-6.498073786E-2,-1.173547626E0,2.103054762E0
8.772594880E-1,8.361211419E-2,-1.303814530E0,2.046244383E0
8.939254250E-1,6.303361058E-1,-1.420489669E0,1.942397237E0
9.105913630E-1,1.461493969E0,-1.547244072E0,2.024482250E0
9.272573000E-1,1.951407552E0,-1.963319421E0,2.480034590E0
9.439232380E-1,1.708436131E0,-2.237139463E0,2.904127598E0
9.605891750E-1,7.738129497E-1,-1.971107960E0,1.992335439E0
9.772551130E-1,4.214967042E-2,-7.444151044E-1,7.635809947E-3
9.939210500E-1,1.710421443E-1,1.908188909E-1,-9.031635523E-1
1.010586988E0,1.052901864E0,1.362992078E-1,-6.378955245E-1
1.027252925E0,1.916435480E0,-5.566505194E-1,4.227184355E-1
1.043918863E0,2.249891281E0,-9.502001405E-1,1.052290916E0
1.060584800E0,2.337244987E0,-9.334014058E-1,1.034270406E0
1.077250738E0,2.378172874E0,-9.546289444E-1,8.813251853E-1
1.093916675E0,2.299218655E0,-1.057101488E0,6.650026441E-1
1.110582613E0,1.912923098E0,-1.233946800E0,5.528326035E-1
1.127248550E0,1.314275622E0,-1.261817575E0,4.498255551E-1
1.143914488E0,7.861065865E-1,-1.236848474E0,2.974147797E-1
1.160580425E0,6.210967898E-1,-1.254410863E0,5.194641352E-1
1.177246363E0,6.291907430E-1,-1.436143041E0,1.100472927E0
1.193912300E0,4.368446767E-1,-1.949804068E0,1.667966247E0
1.210578238E0,-1.656970754E-2,-2.388099432E0,1.959501505E0
1.227244175E0,-6.499601007E-1,-2.424216986E0,1.812206745E0
1.243910113E0,-1.114370108E0,-1.985997796E0,1.552360177E0
1.260576050E0,-1.126969218E0,-2.153909206E0,1.601076603E0
1.277241988E0,-8.557451963E-1,-2.319377184E0,1.837175846E0
1.293907925E0,-7.810669541E-1,-2.447277069E0,2.083736181E0
1.310573863E0,-5.352702737E-1,-2.581590891E0,2.039601088E0
1.327239800E0,6.858484149E-1,-2.065944672E0,1.351003766E0
1.343905738E0,1.590844631E0,-1.454316378E0,3.465130329E-1
1.360571675E0,6.772199869E-1,-7.017309219E-2,3.535379842E-2
1.377237613E0,-9.236275554E-1,1.121242285E0,8.941533417E-2
1.393903550E0,-1.848935008E0,1.338786483E0,6.716458201E-1
1.410569488E0,-1.869628072E0,4.050796926E-1,1.108337760E0
1.427235425E0,-1.537088513E0,-1.545869708E0,1.162781119E0
1.443901363E0,-1.238604665E0,-2.785161495E0,6.489674449E-1
1.460567300E0,-8.329141140E-1,-2.413755894E0,-5.192350596E-2
1.477233238E0,-1.495855153E-1,-7.859538794E-1,-5.822305083E-1
1.493899175E0,5.257254839E-1,8.239038587E-1,-8.200095892E-1
1.510565113E0,7.991638184E-1,1.010141253E0,-7.096721530E-1
1.527231050E0,5.475639105E-1,1.670715213E-1,-4.282162189E-1
1.543896988E0,7.712167688E-3,-8.633046746E-1,-1.417969912E-1
1.560562925E0,-3.340666890E-1,-1.322216868E0,1.886045001E-2
1.577228863E0,-2.524398565E-1,-1.232877851E0,9.903645515E-2
1.593894800E0,2.225838602E-1,-6.787471175E-1,6.643154658E-3
1.610560738E0,5.700132251E-1,-6.982184649E-1,-1.512653977E-1
1.627226675E0,3.354411125E-1,-1.366886258E0,-1.717293561E-1
1.643892613E0,-6.375901401E-2,-1.631848931E0,-1.398880333E-1
1.660558550E0,3.611737862E-2,-1.199662089E0,-1.256090701E-1
1.677224488E0,4.553233385E-1,-4.760927260E-1,-1.726456583E-1
1.693890425E0,7.935133576E-1,-1.085812151E-1,-2.519817352E-1
1.710556363E0,8.582650423E-1,-4.941132367E-1,-2.344193608E-1
1.727222300E0,5.202277303E-1,-1.565340996E0,-1.044578776E-1
1.743888238E0,-1.563050300E-1,-1.993633509E0,-5.131264031E-2
1.760554175E0,-5.098429918E-1,-1.238299251E0,-1.202640012E-1
1.777220113E0,-1.747073233E-1,2.629773021E-1,-3.360520005E-1
1.793886050E0,3.871355653E-1,1.213788271E0,-7.161626220E-1
1.810551988E0,6.523272395E-1,1.204396248E0,-1.128878117E0
1.827217925E0,2.796233594E-1,5.385536551E-1,-1.312137604E0
1.843883863E0,-2.777144015E-1,1.714239269E-1,-1.014417291E0
1.860549800E0,-4.927388132E-1,1.060613990E-1,-4.746419191E-1
1.877215738E0,-5.859720111E-1,-1.850920320E-1,4.138609022E-2
1.893881675E0,-6.963858604E-1,-3.374264240E-1,1.677587330E-1
1.910547613E0,-4.041634202E-1,-2.241110206E-1,-1.129336283E-1
1.927213550E0,1.450803876E-1,-2.916879393E-2,-4.709767401E-1
1.943879488E0,4.088976085E-1,1.542433500E-1,-6.065887213E-1
1.960545425E0,2.292270064E-1,1.799760312E-1,-4.490619600E-1
1.977211363E0,-2.264017612E-1,1.055268943E-1,-1.520289779E-1
1.993877300E0,-5.126682520E-1,-1.328630932E-2,1.299614757E-1
2.010543238E0,-4.213439822E-1,-4.321868345E-2,2.152534723E-1
2.027209175E0,2.306014486E-2,3.222311661E-2,1.560759544E-1
2.043875113E0,4.861720204E-1,1.352301836E-1,5.688678101E-2
2.060541050E0,5.191587210E-1,1.530216336E-1,1.017853469E-1
2.077206988E0,1.434005052E-1,7.231111825E-2,2.725984156E-1
2.093872925E0,-2.599993348E-1,-5.230529606E-2,5.002982616E-1
2.110538863E0,-4.118755758E-1,-2.848157100E-2,6.236165762E-1
2.127204800E0,-2.042579055E-1,1.315650046E-1,4.838812649E-1
2.143870738E0,1.908952445E-1,2.180023640E-1,1.929569095E-1
2.160536675E0,3.727802336E-1,2.682459950E-1,-1.527161920E-3
2.177202613E0,2.651153207E-1,4.070650041E-1,-2.214384731E-3
2.193868550E0,-4.169152305E-2,6.273581386E-1,1.208748668E-1
2.210534488E0,-3.231474757E-1,7.289907336E-1,2.963457704E-1
2.227200425E0,-4.287507236E-1,5.822305083E-1,4.523453712E-1
2.243866363E0,-3.507890999E-1,2.038761228E-1,4.544070363E-1
2.260532300E0,-1.592066288E-1,-1.857792437E-1,3.174969554E-1
2.277198238E0,6.078104675E-2,-3.346011937E-1,2.089157552E-1
2.293864175E0,1.932623386E-1,-1.972329617E-1,1.499672979E-1
2.310530113E0,1.870773435E-1,1.305723470E-2,8.231402934E-2
2.327196050E0,7.284562290E-2,2.218202800E-1,-1.893680729E-2
2.343861988E0,-6.612611562E-2,2.502254844E-1,-9.193515033E-2
2.360527925E0,-2.389244884E-1,-5.459604040E-2,-9.537126124E-2
2.377193863E0,-5.284743905E-1,-2.630536556E-1,-7.658717036E-2
2.393859800E0,-8.186351657E-1,-1.714239269E-1,-2.313650399E-2
2.410525738E0,-9.006437659E-1,1.409570426E-1,5.642863363E-2
2.427191675E0,-7.796925306E-1,4.706713259E-1,7.567087561E-2
2.443857613E0,-6.267472506E-1,5.958985686E-1,2.802342176E-2
2.460523550E0,-5.133554935E-1,4.818959534E-1,-8.544471115E-2
2.477189488E0,-3.828594983E-1,2.031125426E-1,-2.006690800E-1
2.493855425E0,-1.472184062E-1,-3.611738086E-1,-1.950949430E-1
2.510521363E0,9.911280870E-2,-6.483566165E-1,-1.700494885E-1
2.527187300E0,2.193004489E-1,-5.703186393E-1,-1.831067204E-1
2.543853238E0,2.209039778E-1,-2.868010104E-1,-2.331976295E-1
2.560519175E0,1.969275326E-1,5.283980444E-2,-2.974911332E-1
2.577185113E0,1.757763475E-1,1.611919403E-1,-2.859610617E-1
2.593851050E0,3.214675933E-2,1.893680729E-2,-1.931859851E-1
2.610516988E0,-1.845575273E-1,1.038470119E-2,-9.369138628E-2
2.627182925E0,-3.405571282E-1,1.579085439E-1,-4.100430012E-2
2.643848863E0,-3.983601928E-1,4.088212550E-1,-5.352702737E-2
2.660514800E0,-3.579667509E-1,6.205622554E-1,-6.375901401E-2
2.677180738E0,-2.968802750E-1,6.258309484E-1,-4.130972922E-2
2.693846675E0,-2.302196622E-1,4.880809486E-1,-7.635809743E-5
2.710512613E0,-1.919642538E-1,2.387717664E-1,-1.244636998E-2
2.727178550E0,-1.265253723E-1,1.074358448E-1,-5.367974192E-2
2.743844488E0,-4.321868345E-2,7.574722916E-2,-7.284562290E-2
2.760510425E0,4.306596518E-2,5.910116807E-2,-6.154462695E-2
2.777176363E0,6.933315098E-2,8.239039034E-2,-5.306887627E-2
2.793842300E0,4.444041103E-2,1.319467872E-1,-3.336848691E-2
2.810508238E0,-8.857538924E-3,2.199113220E-1,-3.161225095E-2
2.827174175E0,-4.405862093E-2,1.957821548E-1,-2.641990222E-2
2.843840113E0,-1.168278903E-1,4.612028971E-2,-1.336266659E-2
2.860506050E0,-1.966984570E-1,-1.737146676E-1,1.374445762E-2
2.877171988E0,-2.051742077E-1,-2.658025324E-1,2.848157100E-2
2.893837925E0,-1.528689116E-1,-2.168570012E-1,3.298669681E-2
2.910503863E0,-4.253146052E-2,-7.506000996E-2,-2.008217946E-2
2.927169800E0,7.276926935E-2,6.872228533E-2,-9.789107740E-2
2.943835738E0,1.092684343E-1,7.956513762E-2,-1.585957706E-1
2.960501675E0,3.749182448E-2,1.023962051E-1,-1.879936308E-1
2.977167613E0,-2.061668597E-2,1.608865112E-1,-1.654679924E-1
2.993833550E0,-2.764163166E-2,2.341139317E-1,-1.490510106E-1
3.010499488E0,6.872228696E-4,2.063195854E-1,-1.492037177E-1
3.027165425E0,5.314523727E-2,1.247691289E-1,-1.670715213E-1
3.043831363E0,1.172096804E-1,1.070540547E-1,-1.768453568E-1
3.060497300E0,1.852447391E-1,1.480583549E-1,-1.805869043E-1
3.077163238E0,1.989128441E-1,2.027307451E-1,-1.637881249E-1
3.093829175E0,1.468366235E-1,2.309068888E-1,-1.458439678E-1
3.110495113E0,3.588830680E-2,1.091157198E-1,-9.529490769E-2
3.127161050E0,-9.537126124E-2,-9.239329956E-3,-2.977965772E-2
3.143826988E0,-1.403461844E-1,1.695149764E-2,2.061668551E-3
3.160492925E0,-1.159879491E-1,1.224020272E-1,1.634063199E-2
3.177158863E0,-5.963567272E-2,2.415206581E-1,4.214967042E-2
3.193824800E0,-1.084284950E-2,3.447568119E-1,6.490438245E-3
3.210490738E0,9.544761851E-3,3.655261993E-1,-5.696314201E-2
3.227156675E0,-6.414080039E-3,3.966803253E-1,-1.005636156E-1
3.243822613E0,-6.543888897E-2,4.796051979E-1,-9.109520912E-2
3.260488550E0,-1.421024203E-1,6.411789656E-1,-1.824958436E-2
3.277154488E0,-2.070831656E-1,7.661007643E-1,1.069776937E-1
3.293820425E0,-3.156643808E-1,8.049670458E-1,2.185368687E-1
3.310486363E0,-4.633409381E-1,7.945060134E-1,2.496146262E-1
3.327152300E0,-5.731438994E-1,7.882446647E-1,2.209039778E-1
3.343818238E0,-5.754346251E-1,7.447205186E-1,2.257145345E-1
3.360484175E0,-4.789179862E-1,6.211731434E-1,2.387717664E-1
3.377150113E0,-3.322340846E-1,4.502073526E-1,2.034943253E-1
3.393816050E0,-1.938732117E-1,4.366155863E-1,9.056070447E-2
3.410481988E0,-4.955640435E-2,5.516872406E-1,-1.412624773E-2
3.427147925E0,1.399643868E-1,7.386118770E-1,-4.856374860E-2
3.443813863E0,3.637699783E-1,8.032872081E-1,-3.863719851E-2
3.460479800E0,4.887681901E-1,7.166970968E-1,-3.428478539E-2
3.477145738E0,3.914116025E-1,5.352702737E-1,-8.758273721E-2
3.493811675E0,1.078939885E-1,2.622900605E-1,-1.157588735E-1
3.510477613E0,-1.222493127E-1,8.506292105E-2,-1.298851222E-1
3.527143550E0,-1.325576603E-1,7.078395784E-2,-1.313359290E-1
3.543809488E0,-1.756236190E-3,1.330921650E-1,-9.712749720E-2
3.560475425E0,1.259908676E-1,1.873064190E-1,-7.971785218E-2
3.577141363E0,1.572976857E-1,1.699731201E-1,-1.161406636E-1
3.593807300E0,1.353829056E-1,7.047852129E-2,-1.514181048E-1
3.610473238E0,1.624900252E-1,-2.237292193E-2,-1.466075480E-1
3.627139175E0,2.502254844E-1,-5.994110554E-2,-1.276707351E-1
3.643805113E0,3.685041666E-1,-4.772381112E-2,-1.190422773E-1
3.660471050E0,4.725039005E-1,-1.145371422E-2,-1.463021189E-1
3.677136988E0,5.493201613E-1,-5.070177838E-2,-1.317940801E-1
3.693802925E0,5.629882812E-1,-9.712749720E-2,-6.482802331E-2
3.710468863E0,5.356520414E-1,-1.125518382E-1,2.244928107E-2
3.727134800E0,4.564687014E-1,-1.007163301E-1,1.052214578E-1
3.743800738E0,3.459785283E-1,-9.170607477E-2,1.970038861E-1
3.760466675E0,2.515999377E-1,-9.216422588E-2,2.780961990E-1
3.777132613E0,1.463784724E-1,-6.879864633E-2,3.434587121E-1
3.793798550E0,2.825249545E-2,-8.552107215E-2,4.037816226E-1
3.810464488E0,-1.701258421E-1,-1.916588247E-1,4.700604379E-1
3.827130425E0,-3.300960660E-1,-2.981020212E-1,5.065596104E-1
3.843796363E0,-3.786598146E-1,-3.136027157E-1,4.944950342E-1
3.860462300E0,-3.467421234E-1,-2.307541668E-1,4.687623680E-1
3.877128238E0,-3.048215210E-1,-8.765909821E-2,4.332558513E-1
3.893794175E0,-2.741255760E-1,7.559451740E-3,3.895790279E-1
3.910460113E0,-2.974147797E-1,6.345357746E-2,3.167333901E-1
3.927126050E0,-3.355174661E-1,1.076649204E-1,2.208276242E-1
3.943791988E0,-3.705658615E-1,1.051450968E-1,1.595884264E-1
3.960457925E0,-3.795761168E-1,8.972076327E-2,1.491273642E-1
3.977123863E0,-3.666715920E-1,1.214857325E-1,1.224783882E-1
3.993789800E0,-3.412443399E-1,1.331685185E-1,9.078978002E-2
4.010455738E0,-2.629009187E-1,8.857539296E-2,6.902772188E-2
4.027121675E0,-1.790597439E-1,4.024071619E-2,2.550360374E-2
4.043787613E0,-1.231656075E-1,5.681042373E-2,-2.657261863E-2
4.060453550E0,-9.957095981E-2,8.727730811E-2,-5.390881747E-2
4.077119488E0,-1.093447953E-1,7.238747925E-2,-6.475166976E-2
4.093785425E0,-1.139262840E-1,7.017309219E-2,-7.819069177E-2
4.110451363E0,-5.184714869E-2,9.338594973E-2,-6.528617442E-2
4.127117300E0,5.421425030E-2,7.536543906E-2,-5.337430909E-2
4.143783238E0,1.341611743E-1,7.796161622E-2,-7.063124329E-2
4.160449175E0,1.681405306E-1,8.597921580E-2,-6.566796452E-2
4.177115113E0,1.431714296E-1,8.659008145E-2,-3.046688065E-2
4.193781050E0,7.345648855E-2,4.871646687E-2,1.565340906E-2
4.210446988E0,-1.076649129E-2,2.222020552E-2,4.451677203E-2
4.227112925E0,-7.047852129E-2,-1.496618707E-2,5.520690605E-2
4.243778863E0,-1.086575761E-1,-2.611446939E-2,5.016727000E-2
4.260444800E0,-1.213330179E-1,4.505127668E-2,3.428478539E-2
4.277110738E0,-9.697478265E-2,1.238528341E-1,1.702785492E-2
4.293776675E0,-4.192059487E-2,1.364519149E-1,5.879573524E-3
4.310442613E0,-8.323032409E-3,6.704241037E-2,-2.069304511E-2
4.327108550E0,-1.458439697E-2,-1.924224012E-2,-6.101011857E-2
4.343774488E0,-1.763872057E-2,-4.520399496E-2,-7.284562290E-2
4.360440425E0,3.245219216E-2,-3.443750367E-2,-6.574432552E-2
4.377106363E0,1.020144150E-1,-4.909825698E-2,-7.521272451E-2
4.393772300E0,1.425605714E-1,-6.482802331E-2,-9.773836285E-2
4.410438238E0,1.398880333E-1,-4.627300799E-2,-1.202640012E-1
4.427104175E0,1.036179364E-1,-3.329212964E-2,-1.336266696E-1
4.443770113E0,1.511890348E-2,-7.925970852E-2,-1.388190240E-1
4.460436050E0,-4.864010960E-2,-1.209512278E-1,-1.615737379E-1
4.477101988E0,-2.031125315E-2,-7.200568914E-2,-1.960112303E-1
4.493767925E0,1.054505333E-1,-2.084576152E-2,-2.046397030E-1
4.510433863E0,2.092211843E-1,-1.000291109E-2,-1.989128441E-1
4.527099800E0,2.198349684E-1,-2.756527252E-2,-1.847102344E-1
4.543765738E0,1.314122826E-1,-4.512763396E-2,-1.601229310E-1
4.560431675E0,-9.621120058E-3,-4.841103405E-2,-1.224783882E-1
4.577097613E0,-1.524107605E-1,-4.390590638E-2,-9.162971377E-2
4.593763550E0,-2.337321341E-1,-2.886336111E-2,-5.115992576E-2
4.610429488E0,-2.086103261E-1,-2.244928107E-2,-2.519817278E-2
4.627095425E0,-1.207985133E-1,-4.115701467E-2,-5.528326333E-2
4.643761363E0,1.679878123E-2,-5.390881747E-2,-1.181259751E-1
4.660427300E0,9.995274991E-2,-4.207331315E-2,-1.850156635E-1
4.677093238E0,7.063124329E-2,-1.298087649E-2,-1.993709952E-1
4.693759175E0,-3.115410358E-2,-3.443750367E-2,-1.604283601E-1
4.710425113E0,-1.504254490E-1,-2.794706449E-2,-1.308777779E-1
4.727091050E0,-2.128863782E-1,-4.352411721E-3,-1.256854236E-1
4.743756988E0,-1.995237023E-1,2.962694131E-2,-1.521816850E-1
4.760422925E0,-1.085048541E-1,5.345066893E-4,-1.508836001E-1
4.777088863E0,-1.366809942E-2,-4.329504073E-2,-1.369864196E-1
4.793754800E0,3.046688065E-2,-6.711876392E-2,-1.259908676E-1
4.810420738E0,3.649916872E-2,-4.207331315E-2,-1.447749585E-1
4.827086675E0,2.443459071E-2,-3.901898861E-2,-1.829539984E-1
4.843752613E0,1.733328775E-2,-1.450803829E-3,-2.042579055E-1
4.860418550E0,1.779143699E-2,1.954767294E-2,-1.686750352E-1
4.877084488E0,-1.053741761E-2,-1.542433538E-2,-1.028543562E-1
4.893750425E0,-2.237292193E-2,-9.567669779E-2,-1.802051067E-2
4.910416363E0,-7.406735327E-3,-1.237764731E-1,1.809686981E-2
4.927082300E0,4.306596518E-2,-7.742711157E-2,2.435823344E-2
4.943748238E0,6.803506613E-2,4.199695308E-3,3.779725730E-2
4.960414175E0,1.710421406E-2,3.168861195E-2,7.750347257E-2
4.977080113E0,-8.872810751E-2,-9.697478265E-3,1.056796089E-1
4.993746050E0,-1.838703007E-1,-9.728021920E-2,9.918916970E-2
5.010411988E0,-1.650098413E-1,-1.960875988E-1,7.498364896E-2
5.027077925E0,-6.108647794E-4,-1.951712966E-1,5.192350596E-2
5.043743863E0,2.215148360E-1,-1.628718227E-1,4.337139800E-2
5.060409800E0,3.958403766E-1,-4.069886729E-2,2.267835476E-2
5.077075738E0,5.057196617E-1,1.537852138E-1,-4.833467677E-2
5.093741675E0,4.123337269E-1,2.204458266E-1,-1.013271958E-1
5.110407613E0,1.732565165E-1,1.838703007E-1,-1.142317131E-1
5.127073550E0,-7.177661173E-3,1.176678315E-1,-5.879573524E-2
5.143739488E0,1.132390574E-1,4.558578506E-2,1.012508348E-1
5.160405425E0,4.392881393E-1,-1.970038936E-2,1.714239269E-1
5.177071363E0,4.942659736E-1,7.941242307E-3,5.383246019E-2
5.193737300E0,1.786779463E-1,2.244928032E-1,-1.388953775E-1
5.210403238E0,-1.425605714E-1,5.773435831E-1,-2.452622056E-1
5.227069175E0,-2.154825479E-1,6.893609166E-1,-2.591593862E-1
5.243735113E0,-3.894262947E-3,4.607447684E-1,-1.029307172E-1
5.260401050E0,3.811032772E-1,4.177551568E-1,1.590539217E-1
5.277066988E0,3.624718785E-1,7.931315303E-1,2.919933498E-1
5.293732925E0,-1.377500147E-1,9.714277387E-1,4.031707644E-1
5.310398863E0,-5.285507441E-1,7.356339097E-1,6.148353815E-1
5.327064800E0,-4.012618065E-1,4.866301417E-1,7.770963311E-1
5.343730738E0,1.642462611E-1,3.632354736E-1,7.821359634E-1
5.360396675E0,8.151990771E-1,3.223075271E-1,6.115520000E-1
5.377062613E0,1.429652691E0,5.964331031E-1,2.556469142E-1
5.393728550E0,1.840382814E0,1.005101681E0,-2.651153207E-1
5.410394488E0,1.926591158E0,1.265788198E0,-7.208967805E-1
5.427060425E0,1.714468360E0,1.283045053E0,-1.210123181E0
5.443726363E0,1.323514938E0,1.107345104E0,-1.846415162E0
5.460392300E0,1.032208800E0,9.240093231E-1,-2.225151300E0
5.477058238E0,8.896481991E-1,8.201622963E-1,-2.413679361E0
5.493724175E0,6.969966888E-1,9.733366966E-1,-2.709108829E0
5.510390113E0,3.820959330E-1,1.473634958E0,-3.219410181E0
5.527056050E0,-1.367573589E-1,2.274020433E0,-4.155713081E0
5.543721988E0,-8.229112029E-1,2.729343891E0,-4.755582333E0
5.560387925E0,-1.434005022E0,2.599458694E0,-4.401815414E0
5.577053863E0,-1.797316909E0,2.664134026E0,-3.855702162E0
5.593719800E0,-1.875584006E0,2.844873667E0,-3.712759733E0
5.610385738E0,-2.353662014E0,2.530889034E0,-3.540572166E0
5.627051675E0,-3.103727579E0,1.749134898E0,-2.822347879E0
5.643717613E0,-3.121595383E0,1.493411660E0,-1.869246244E0
5.660383550E0,-2.294331789E0,2.002490997E0,-1.215010047E0
5.677049488E0,-1.456530690E0,2.397796869E0,-6.835576892E-1
5.693715425E0,-1.205923438E0,2.445291758E0,-3.649916947E-1
5.710381363E0,-1.238833785E0,2.159636021E0,-2.447277009E-1
5.727047300E0,-9.953277707E-1,1.590615511E0,-9.850194678E-3
5.743713238E0,-5.677987933E-1,8.106175661E-1,3.711767197E-1
5.760379175E0,-2.902371287E-1,2.425896823E-1,6.339249015E-1
5.777045113E0,-1.446985900E-1,-4.550942779E-2,8.495602012E-1
5.793711050E0,8.246674202E-3,-6.108647794E-4,1.074740171E0
5.810376988E0,2.855029404E-1,3.260490671E-2,1.371544123E0
5.827042925E0,4.062250853E-1,-2.464839369E-1,1.750738502E0
5.843708863E0,3.278053105E-1,-6.784417033E-1,2.142455578E0
5.860374800E0,1.870009750E-1,-9.666935205E-1,2.408257961E0
5.877040738E0,4.810560122E-2,-1.136437535E0,2.463694096E0
5.893706675E0,6.024653837E-2,-1.233641386E0,2.499582291E0
5.910372613E0,2.715294063E-1,-1.475314856E0,2.788674116E0
5.927038550E0,2.233474404E-1,-2.042197227E0,3.121289968E0
5.943704488E0,-2.511417866E-1,-2.815399408E0,3.194517374E0
5.960370425E0,-2.448804229E-1,-3.057301760E0,3.185354471E0
5.977036363E0,6.236165762E-1,-2.845942736E0,3.395186424E0
5.993702300E0,1.297476768E0,-2.863276005E0,3.799197197E0
6.010368238E0,1.016860843E0,-3.081889153E0,3.617464781E0
6.027034175E0,1.002276421E0,-2.586248875E0,2.862665176E0
6.043700113E0,2.028452873E0,-1.221042395E0,2.293110132E0
6.060366050E0,3.199480534E0,-4.289034307E-1,1.951636553E0
6.077031988E0,3.957181931E0,-3.556760252E-1,1.745164275E0
6.093697925E0,4.175260544E0,-5.090031028E-1,1.624060392E0
6.110363863E0,3.816148520E0,-6.666061878E-1,1.082910538E0
6.127029800E0,3.118006468E0,-7.077631950E-1,-1.733328775E-2
6.143695738E0,2.600833178E0,-3.010799885E-1,-1.196455002E0
6.160361675E0,2.448804140E0,1.160643101E-1,-2.132223606E0
6.177027613E0,2.342590094E0,1.231656075E-1,-2.648404360E0
6.193693550E0,2.132529020E0,-3.288743198E-1,-2.587088585E0
6.210359488E0,1.892993569E0,-7.963386178E-1,-2.210566998E0
6.227025425E0,1.617111802E0,-1.057483315E0,-1.897804141E0
6.243691363E0,1.100778341E0,-1.286175847E0,-1.939266562E0
6.260357300E0,1.516471803E-1,-1.545793295E0,-2.303342104E0
6.277023238E0,-1.164461017E0,-1.763872027E0,-2.758589029E0
6.293689175E0,-2.531652689E0,-2.066326380E0,-2.970711708E0
6.310355113E0,-3.602269650E0,-2.225151300E0,-2.773860693E0
6.327021050E0,-4.226191521E0,-2.109468699E0,-2.065562963E0
6.343686988E0,-4.270708561E0,-1.562363029E0,-1.020831347E0
6.360352925E0,-3.606698275E0,-4.102720618E-1,-5.052615404E-1
6.377018863E0,-2.754160166E0,1.350698352E0,-1.192484379E0
6.393684800E0,-2.437121391E0,2.641303062E0,-2.145204306E0
6.410350738E0,-2.181245327E0,2.952767611E0,-2.261803150E0
6.427016675E0,-1.647807717E0,2.390772104E0,-1.200120211E0
6.443682613E0,-1.244102478E0,1.935906887E0,-3.283398226E-3
6.460348550E0,-1.439502835E0,1.481117964E0,8.282563090E-1
6.477014488E0,-1.580994368E0,1.231961489E0,9.886083007E-1
6.493680425E0,-1.426980138E0,1.103221774E0,1.002810836E0
6.510346363E0,-1.194775105E0,1.307479739E0,8.732311726E-1
6.527012300E0,-7.836631536E-1,1.413922906E0,5.703186393E-1
6.543678238E0,-4.233292937E-1,1.176449180E0,2.432768941E-1
6.560344175E0,-2.419024557E-1,6.813433170E-1,4.405862093E-2
6.577010113E0,-1.899025887E-1,1.418733448E-1,1.900553107E-1
6.593676050E0,-1.963166744E-1,-2.824485898E-1,7.014254928E-1
6.610341988E0,-6.452259421E-1,-1.004872561E0,1.371391416E0
6.627007925E0,-1.407356143E0,-1.625205755E0,2.008905172E0
6.643673863E0,-1.566028237E0,-1.878409147E0,2.396117210E0
6.660339800E0,-1.352989078E0,-2.377562046E0,2.762177706E0
6.677005738E0,-1.221576810E0,-3.167257547E0,3.005378246E0
6.693671675E0,-7.584649920E-1,-3.253236771E0,3.081202030E0
6.710337613E0,3.276526034E-1,-2.227747440E0,2.857090950E0
6.727003550E0,1.447749496E0,-1.254639864E0,2.544404507E0
6.743669488E0,1.663079381E0,-1.912770391E0,2.860068798E0
6.760335425E0,9.091194868E-1,-3.979402304E0,3.526598692E0
6.777001363E0,-1.275180187E-2,-5.131798744E0,3.538586855E0
6.793667300E0,-7.101303339E-2,-4.275136948E0,2.780351162E0
6.810333238E0,1.039691806E0,-2.375118732E0,1.520136952E0
6.826999175E0,2.277380228E0,-1.377958179E0,5.077813268E-1
6.843665113E0,2.908174515E0,-1.080085278E0,1.623373181E-1
6.860331050E0,2.857396364E0,-1.153159976E0,1.970038861E-1
6.876996988E0,2.175518513E0,-1.620166063E0,1.457676142E-1
6.893662925E0,1.348560333E0,-2.082667112E0,-2.531270981E-1
6.910328863E0,8.271872401E-1,-2.123824120E0,-8.786526322E-1
6.926994800E0,9.646318555E-1,-1.399262190E0,-1.596113324E0
6.943660738E0,1.669493437E0,-1.418733448E-1,-2.363741159E0
6.960326675E0,2.334572554E0,8.488729596E-1,-2.923904181E0
6.976992613E0,2.511035919E0,9.789108038E-1,-2.956967354E0
6.993658550E0,2.207970858E0,5.865065455E-1,-2.492251873E0
7.010324488E0,1.579238176E0,1.524871141E-1,-1.936212301E0
7.026990425E0,6.522508860E-1,-5.451968312E-2,-1.639866471E0
7.043656363E0,-4.355465770E-1,-1.672242284E-1,-1.594204307E0
7.060322300E0,-1.488295674E0,-2.701549530E-1,-1.602145553E0
7.076988238E0,-2.426889420E0,-1.729510874E-1,-1.746004224E0
7.093654175E0,-3.173366070E0,1.236237586E-1,-1.896200657E0
7.110320113E0,-3.613952398E0,6.540070772E-1,-1.667660832E0
7.126986050E0,-3.696724653E0,9.644791484E-1,-9.123265743E-1
7.143651988E0,-3.420231819E0,6.531671882E-1,-3.255145550E-1
7.160317925E0,-3.059821606E0,5.509236455E-1,-4.789943397E-1
7.176983863E0,-2.747898817E0,1.853440046E0,-6.653081179E-1
7.193649800E0,-1.985768676E0,3.763996124E0,-6.950877905E-1
7.210315738E0,-1.521740556E0,4.286819935E0,-6.316341758E-1
7.226981675E0,-1.859243274E0,3.857534647E0,-4.654789567E-1
7.243647613E0,-2.259894133E0,3.071122646E0,-3.995819092E-1
7.260313550E0,-2.180176497E0,2.197586060E0,-6.057487726E-1
7.276979488E0,-1.621998668E0,1.897575021E0,-8.771254420E-1
7.293645425E0,-8.034399152E-1,2.132757902E0,-9.827287197E-1
7.310311363E0,-1.277471036E-1,2.395888090E0,-9.653190970E-1
7.326977300E0,2.319758981E-1,2.332816124E0,-9.657772183E-1
7.343643238E0,4.376846254E-1,1.865199208E0,-8.219185472E-1
7.360309175E0,4.382954836E-1,1.115286350E0,-2.890154123E-1
7.376975113E0,3.528507650E-1,3.191768527E-1,3.962221742E-1
7.393641050E0,2.128863782E-1,-4.402044415E-1,1.129336238E0
7.410306988E0,9.766200930E-2,-9.722676277E-1,1.720118880E0
7.426972925E0,1.521053314E-1,-1.208672285E0,1.888641238E0
7.443638863E0,1.780670881E-1,-1.551672935E0,1.806938052E0
7.460304800E0,-1.505781710E-1,-2.462930441E0,1.815337420E0
7.476970738E0,-6.798924804E-1,-3.437183380E0,2.071213484E0
7.493636675E0,-6.372846961E-1,-3.374417067E0,2.323500633E0
7.510302613E0,4.699840844E-1,-2.284557819E0,2.341826439E0
7.526968550E0,1.656588912E0,-1.494328022E0,2.569373608E0
7.543634488E0,1.497993112E0,-2.019289970E0,2.543564558E0
7.560300425E0,-1.707367003E-1,-2.668715477E0,1.544037104E0
7.576966363E0,-7.441860437E-1,-2.371987820E0,8.436806202E-1
7.593632300E0,-9.705114365E-2,-1.768682599E0,1.109406829E0
7.610298238E0,8.361974955E-1,-1.223333120E0,1.526016593E0
7.626964175E0,1.655443549E0,-1.090317249E0,1.581834316E0
7.643630113E0,2.423529625E0,-8.601739407E-1,1.204167247E0
7.660296050E0,3.283932686E0,-1.109483168E-1,6.482802629E-1
7.676961988E0,3.789728642E0,6.824886799E-1,2.477056682E-1
7.693627925E0,3.703367710E0,1.245858669E0,-2.981020212E-1
7.710293863E0,3.222006321E0,1.233794093E0,-9.836450219E-1
7.726959800E0,2.542266607E0,5.831468105E-1,-1.555567145E0
7.743625738E0,1.961257696E0,-9.224057943E-2,-1.806556225E0
7.760291675E0,1.418351650E0,-4.550178945E-1,-1.799684048E0
7.776957613E0,7.228057384E-1,-6.768381596E-1,-1.758297920E0
7.793623550E0,-3.741546767E-3,-7.624356151E-1,-1.688430309E0
7.810289488E0,-5.120574236E-1,-6.795870662E-1,-1.815337420E0
7.826955425E0,-1.053818107E0,-5.598575473E-1,-2.159483433E0
7.843621363E0,-1.840459228E0,-9.047670960E-1,-2.456974506E0
7.860287300E0,-2.708574533E0,-1.109788537E0,-2.325333118E0
7.876953238E0,-3.356778383E0,-1.063439250E0,-1.466304541E0
7.893619175E0,-3.505523920E0,-8.542944193E-1,-5.679515004E-1
7.910285113E0,-3.156796455E0,4.390590638E-2,-7.360156775E-1
7.926951050E0,-2.892826557E0,1.116813540E0,-1.610239506E0
7.943616988E0,-3.006447315E0,1.800600290E0,-1.887419462E0
7.960282925E0,-3.184209108E0,1.822820544E0,-1.183550477E0
7.976948863E0,-2.802953005E0,1.905516267E0,-2.573267929E-2
7.993614800E0,-2.027078390E0,1.724700332E0,7.215840220E-1
8.010280738E0,-1.332601547E0,1.380249023E0,8.072578311E-1
8.026946675E0,-5.577958822E-1,1.320307851E0,4.905244112E-1
8.043612613E0,2.897789776E-1,1.818162680E0,-1.802051067E-2
8.060278550E0,1.015639067E0,2.623511553E0,-5.694023371E-1
8.076944488E0,1.333136082E0,3.150916815E0,-9.628756046E-1
8.093610425E0,1.285641313E0,3.183750868E0,-9.127083421E-1
8.110276363E0,9.285144806E-1,2.982165575E0,-5.407680273E-1
8.126942300E0,2.387717664E-1,2.411083221E0,-2.115882933E-1
8.143608238E0,-6.029998660E-1,1.465464592E0,-2.283107117E-2
8.160274175E0,-1.235703111E0,3.693441153E-1,1.437059343E-1
8.176940113E0,-1.441640854E0,-6.191878319E-1,4.410443604E-1
8.193606050E0,-1.247691274E0,-1.662468553E0,1.053588986E0
8.210271988E0,-8.391754627E-1,-2.617784739E0,1.678885460E0
8.226937925E0,-2.150243968E-1,-2.445368052E0,2.081674337E0
8.243603863E0,6.172788739E-1,-1.539455652E0,2.135201454E0
8.260269800E0,1.054505348E0,-1.730427146E0,1.934837818E0
8.276935738E0,5.582540631E-1,-2.706589222E0,1.794415236E0
8.293601675E0,-1.030834317E-1,-3.417024851E0,2.207207203E0
8.310267613E0,3.287979662E-1,-2.817231894E0,2.747669697E0
8.326933550E0,1.476001978E0,-1.805945396E0,2.469650030E0
8.343599488E0,2.553338528E0,-1.663766623E0,2.047389746E0
8.360265425E0,3.254000425E0,-1.775707603E0,1.725005746E0
8.376931363E0,3.457494736E0,-1.027627230E0,1.469587922E0
8.393597300E0,3.215057611E0,-1.804341823E-1,1.215468168E0
8.410263238E0,2.717508316E0,-1.450803876E-1,9.586759210E-1
8.426929175E0,2.301891088E0,-5.709294677E-1,5.445095897E-1
8.443595113E0,2.087095976E0,-8.276454210E-1,-1.504254527E-2
8.460261050E0,2.141157389E0,-7.179951668E-1,-6.422479749E-1
8.476926988E0,2.719875336E0,-2.161697745E-1,-1.299309373E0
8.493592925E0,3.292790174E0,2.002109289E-1,-1.929798245E0
8.510258863E0,3.220479012E0,2.790888548E-1,-2.143295527E0
8.526924800E0,2.371529818E0,8.758273721E-2,-2.110461473E0
8.543590738E0,1.028238177E0,-8.819360286E-2,-2.256305456E0
8.560256675E0,-3.045161068E-1,-1.542433500E-1,-2.630994558E0
8.576922613E0,-1.300072908E0,-2.335030586E-1,-3.100749731E0
8.593588550E0,-2.089157581E0,-7.438805699E-1,-3.341353893E0
8.610254488E0,-2.568228245E0,-1.577558279E0,-3.125107765E0
8.626920425E0,-2.581056356E0,-2.035783291E0,-2.740339518E0
8.643586363E0,-2.683605433E0,-9.616538882E-1,-2.691241026E0
8.660252300E0,-3.339597702E0,7.233402729E-1,-2.555247307E0
8.676918238E0,-3.641059637E0,2.259741545E0,-1.908112526E0
8.693584175E0,-3.097466230E0,1.993480802E0,-6.517927051E-1
8.710250113E0,-2.222249746E0,9.829577804E-1,6.670643687E-1
8.726916050E0,-1.349934816E0,6.562978625E-1,1.255021691E0
8.743581988E0,-4.906771481E-1,9.973894954E-1,1.144989729E0
8.760247925E0,-6.330086291E-2,1.546251416E0,7.573959827E-1
8.776913863E0,-3.901898861E-1,1.791971803E0,1.010217592E-1
8.793579800E0,-1.022511244E0,1.577023745E0,-6.110175252E-1
8.810245738E0,-1.358105063E0,1.214170098E0,-1.059774041E0
8.826911675E0,-1.225089312E0,1.027474523E0,-1.191262722E0
8.843577613E0,-8.523854613E-1,9.355394244E-1,-9.024000168E-1
8.860243550E0,-3.880518377E-1,5.171734095E-1,-1.486692131E-1
8.876909488E0,-1.298087649E-2,-1.070540547E-1,7.350230217E-1
8.893575425E0,2.779434808E-2,-6.225475669E-1,1.132619619E0
8.910241363E0,-2.525162399E-1,-1.123685718E0,9.095776677E-1
8.926907300E0,-5.364919901E-1,-1.677892804E0,7.339540124E-1
8.943573238E0,-7.608320713E-1,-2.208734274E0,9.504292607E-1
8.960239175E0,-1.102381825E0,-2.535165310E0,1.479132652E0
8.976905113E0,-1.098487616E0,-2.269286394E0,2.004705429E0
8.993571050E0,-1.082757786E-1,-1.369406104E0,2.141386509E0
9.010236988E0,1.211650252E0,-1.488982886E-2,1.492724419E0
9.026902925E0,1.396436930E0,3.609447181E-1,7.803797722E-1
9.043568863E0,3.494146466E-1,-6.955459118E-1,9.019418359E-1
9.060234800E0,-9.527963400E-1,-1.431638002E0,1.112384796E0
9.076900738E0,-1.177441835E0,-1.280754328E0,9.792162180E-1
9.093566675E0,-9.743293375E-2,-7.286853194E-1,4.557051361E-1
9.110232613E0,1.657505274E0,1.320995111E-2,-2.786307037E-1
9.126898550E0,3.244531870E0,8.545998335E-1,-9.544762373E-1
9.143564488E0,4.004294872E0,1.359403253E0,-1.600312948E0
9.160230425E0,3.866697788E0,1.235855818E0,-1.925674915E0
9.176896363E0,3.212156057E0,8.600975871E-1,-1.831830740E0
9.193562300E0,2.303342104E0,5.277107954E-1,-1.636735797E0
9.210228238E0,1.138041139E0,1.195767820E-1,-1.282128811E0
9.226894175E0,-1.375209391E-1,-4.033234715E-1,-6.401099563E-1
9.243560113E0,-1.328936338E0,-9.149990678E-1,-1.054505333E-1
9.260226050E0,-2.246226072E0,-1.354134440E0,-2.334267050E-1
9.276891988E0,-2.957119942E0,-2.042273760E0,-5.753582716E-1
9.293557925E0,-4.044917583E0,-1.614744663E0,-1.079932570E0
9.310223863E0,-5.269395828E0,8.115338683E-1,-1.231121659E0
9.326889800E0,-5.511832714E0,3.207421780E0,-3.375027776E-1
9.343555738E0,-4.813766956E0,3.024238825E0,1.012813807E0
9.360221675E0,-4.404335022E0,1.108795881E0,2.040288448E0
9.376887613E0,-4.631958485E0,2.951240540E-1,2.395048141E0
9.393553550E0,-4.309345722E0,1.093295217E0,2.294408083E0
9.410219488E0,-3.559432745E0,2.319224596E0,1.951483846E0
9.426885425E0,-2.995451689E0,2.983234406E0,1.541593671E0
9.443551363E0,-2.936655998E0,2.867552042E0,8.783472180E-1
9.460217300E0,-3.356243849E0,1.773187757E0,4.295906425E-1
9.476883238E0,-3.736125231E0,3.223838806E-1,6.252201200E-1
9.493549175E0,-3.493077517E0,-2.445749789E-1,7.727439404E-1
9.510215113E0,-2.631605387E0,8.765909821E-2,8.006910086E-1
9.526881050E0,-2.256916285E0,-3.522399068E-1,9.771545529E-1
9.543546988E0,-2.951622248E0,-1.646586061E0,9.946405888E-1
9.560212925E0,-2.569373608E0,-1.811061382E0,6.846266985E-1
9.576878863E0,1.471420527E-1,3.263545036E-1,2.507599890E-1
9.593544800E0,3.060585260E0,1.629176378E0,6.610320210E-1
9.610210738E0,3.326158762E0,1.181259751E0,1.096655011E0
9.626876675E0,1.302134633E0,6.805033684E-1,-2.483165264E-1
9.643542613E0,-2.013563067E-1,5.914698243E-1,-1.019304276E0
9.660208550E0,1.770744324E-1,6.614902020E-1,1.271209598E0
9.676874488E0,8.113811612E-1,3.458258212E-1,3.802480459E0
9.693540425E0,8.681915402E-1,-6.496546865E-1,4.133263588E0
9.710206363E0,6.942478418E-1,-1.700647593E0,3.176725864E0
9.726872300E0,6.079631448E-1,-1.836717725E0,2.029979944E0
9.743538238E0,1.192866206E0,-1.255708933E0,9.841031432E-1
9.760204175E0,2.080300093E0,-7.015781999E-1,7.010436654E-1
9.776870113E0,2.189263105E0,-3.073413372E-1,1.421711445E0
9.793536050E0,1.060919404E0,2.634354308E-2,2.058690548E0
9.810201988E0,-4.983893037E-1,4.674642682E-1,1.505094409E0
9.826867925E0,-1.695760608E0,1.003039956E0,4.851793647E-1
9.843533863E0,-2.339001179E0,9.941824079E-1,-5.520690605E-2
9.860199800E0,-2.637408733E0,5.816959739E-1,7.240274549E-1
9.876865738E0,-2.588157654E0,5.535961986E-1,2.087019444E0
9.893531675E0,-2.346255302E0,8.031344414E-1,2.409174442E0
9.910197613E0,-2.090302944E0,1.203785419E0,1.734550595E0
9.926863550E0,-2.275242329E0,1.463555694E0,1.169577003E0
9.943529488E0,-3.258658171E0,1.183932304E0,1.021671295E0
9.960195425E0,-4.232223988E0,9.766200781E-1,9.307288527E-1
9.976861363E0,-3.921140909E0,6.950113773E-1,1.089782715E0
9.993527300E0,-2.685285330E0,1.802051067E-2,1.544495225E0
1.001019324E1,-2.801120520E0,-1.312443018E0,2.265773773E0
1.002685918E1,-4.527271748E0,-2.178649187E0,2.832427263E0
1.004352511E1,-5.343768597E0,-1.687437654E0,2.834641695E0
1.006019105E1,-4.547353745E0,-6.095666885E-1,1.553200006E0
1.007685699E1,-5.044750214E0,1.177289128E0,-6.479747891E-1
1.009352292E1,-7.083511829E0,1.232343316E0,-1.598327637E0
1.011018886E1,-7.944678307E0,-9.076687098E-1,-1.340084553E0
1.012685480E1,-6.766396523E0,-1.846109748E0,-5.935314894E-1
1.014352074E1,-3.541946650E0,-9.159917235E-1,4.763218164E-1
1.016018668E1,-3.081049323E-1,-8.063415438E-2,1.606803417E0
1.017685261E1,9.546289444E-1,5.649735332E-1,2.293339014E0
1.019351855E1,6.811906099E-1,1.589775562E0,2.025933027E0
1.021018449E1,1.654679924E-1,2.447124243E0,2.051054955E0
1.022685042E1,2.407570779E-1,1.962555766E0,3.350287914E0
1.024351636E1,1.719584316E-1,5.766563416E-1,4.636845589E0
1.026018230E1,4.907535017E-1,2.540434003E-1,4.903869629E0
1.027684824E1,1.796858788E0,1.129870772E0,4.440681458E0
1.029351418E1,3.612654209E0,2.579605579E0,4.126925945E0
1.031018011E1,5.465636253E0,4.234972954E0,3.973446369E0
1.032684605E1,6.538773060E0,4.983434677E0,3.261178017E0
1.034351199E1,5.495263100E0,4.117152214E0,1.436753988E0
1.036017792E1,2.488586664E0,2.567082882E0,-5.424479246E-1
1.037684386E1,-8.491020203E-1,1.250440240E0,-1.220965981E0
1.039350980E1,-2.479882002E0,1.220660567E0,-8.734602928E-1
1.041017574E1,-1.489441037E0,1.496313334E0,-7.215076685E-1
1.042684168E1,6.967676282E-1,1.365053654E0,-1.705992579E0
1.044350761E1,1.658803344E0,1.050687432E0,-3.318904638E0
1.046017355E1,7.834340930E-1,1.105512500E0,-4.479700565E0
1.047683949E1,-5.920807123E-1,1.841757298E0,-4.364170551E0
1.049350542E1,-9.705877900E-1,2.501491308E0,-3.347386360E0
1.051017136E1,-4.945713878E-1,1.048931241E0,-2.579376459E0
1.052683730E1,-7.559451461E-1,-6.071232557E-1,-2.493550062E0
1.054350324E1,-1.918497205E0,-2.950477004E-1,-2.484768867E0
1.056016918E1,-2.960632563E0,1.130176187E0,-2.169028044E0
1.057683511E1,-3.542175770E0,2.481409073E0,-1.842291832E0
1.059350105E1,-4.376922607E0,1.775554895E0,-1.604970813E0
1.061016699E1,-5.770763397E0,2.042579055E-1,-1.254716277E0
1.062683292E1,-6.321763039E0,3.830885887E-1,-9.934952259E-1
1.064349886E1,-5.374541283E0,2.274173260E0,-8.342885971E-1
1.066016480E1,-3.817065001E0,3.490786791E0,-7.866411209E-1
1.067683074E1,-3.323868036E0,2.637714148E0,-4.808269441E-1
1.069349668E1,-4.316523075E0,4.095084667E-1,1.585957706E-1
1.071016261E1,-5.396608353E0,-1.008461356E0,9.353867173E-1
1.072682855E1,-4.817126751E0,-2.083812505E-1,1.647196889E0
1.074349449E1,-2.838230371E0,1.039462805E0,1.628260016E0
1.076016042E1,-1.338404775E0,1.206228852E0,1.352149248E0
1.077682636E1,-9.336304665E-1,2.858083546E-1,1.530598044E0
1.079349230E1,-1.057788730E0,-8.499419689E-1,1.904523611E0
1.081015824E1,-1.172783971E0,-1.223638535E0,2.211101532E0
1.082682418E1,-1.258992314E0,-9.070578218E-1,2.455218315E0
1.084349011E1,-1.697211385E0,-9.140064120E-1,2.862894058E0
1.086015605E1,-2.751945734E0,-1.711032271E0,3.266370296E0
1.087682199E1,-3.203833103E0,-2.406120062E0,3.467115879E0
1.089348792E1,-1.618486285E0,-2.934365273E0,3.672442675E0
1.091015386E1,8.400917649E-1,-3.243844748E0,3.593717575E0
1.092681980E1,2.093586206E0,-3.169929981E0,3.728565931E0
1.094348574E1,1.980652690E0,-2.776838541E0,4.374402523E0
1.096015168E1,2.258367062E0,-2.302883863E0,4.790096283E0
1.097681761E1,3.304625750E0,-1.904218197E0,3.945117474E0
1.099348355E1,3.756512880E0,-1.970191598E0,2.895193577E0
1.101014949E1,3.201084137E0,-2.334419727E0,2.246913433E0
1.102681542E1,2.211025000E0,-2.239506721E0,1.801822066E0
1.104348136E1,1.774485826E0,-1.272354960E0,1.348102212E0
1.106014730E1,2.128481865E0,-1.860083193E-1,7.849612236E-1
1.107681324E1,2.773555279E0,5.346593857E-1,-5.940660089E-2
1.109347918E1,3.268279314E0,8.975130916E-1,-9.879210591E-1
1.111014511E1,3.165348530E0,4.612792730E-1,-1.768453479E0
1.112681105E1,2.931998253E0,-2.810741663E-1,-2.554407358E0
1.114347699E1,3.170159101E0,-3.200931549E-1,-3.124496937E0
1.116014292E1,3.473148108E0,7.093667239E-2,-3.305389404E0
1.117680886E1,3.120908260E0,4.289797843E-1,-3.003774881E0
1.119347480E1,1.855043650E0,4.565450549E-1,-2.746448040E0
1.121014074E1,1.272125840E-1,3.830122054E-1,-2.875645876E0
1.122680668E1,-1.470733285E0,3.575849831E-1,-3.068602800E0
1.124347261E1,-2.801043987E0,2.354883701E-1,-3.039128542E0
1.126013855E1,-4.232682228E0,-5.179370046E-1,-2.517679214E0
1.127680449E1,-5.512214661E0,-1.355585337E0,-1.707290649E0
1.129347042E1,-5.870028973E0,-1.178205490E0,-1.305952549E0
1.131013636E1,-5.139816284E0,4.079049528E-1,-1.520900607E0
1.132680230E1,-3.810803652E0,3.031187296E0,-2.103054762E0
1.134346824E1,-2.991099358E0,4.061716080E0,-2.365497589E0
1.136013418E1,-3.140837669E0,2.349538565E0,-1.784870505E0
1.137680011E1,-3.425576925E0,2.070831656E-1,-4.297433794E-1
1.139346605E1,-2.661767006E0,8.323032409E-3,1.239750028E0
1.141013199E1,-1.361770272E0,8.762091398E-1,2.207054377E0
1.142679792E1,-6.265181899E-1,1.515708208E0,2.283488989E0
1.144346386E1,-6.697368622E-1,1.829005480E0,1.865504622E0
1.146012980E1,-1.222340465E0,1.953392863E0,1.234405041E0
1.147679574E1,-1.726151109E0,1.776700258E0,6.758455038E-1
1.149346168E1,-1.780059934E0,1.372689486E0,4.191296101E-1
1.151012761E1,-1.424307585E0,9.795980453E-1,3.871355653E-1
1.152679355E1,-7.825177908E-1,7.447968721E-1,4.726566374E-1
1.154345949E1,2.107483521E-2,6.774490476E-1,8.510873318E-1
1.156012542E1,6.981421113E-1,7.293725610E-1,1.350240231E0
1.157679136E1,8.993456960E-1,4.760163724E-1,1.786168575E0
1.159345730E1,4.278344214E-1,-2.235001475E-1,1.987906694E0
1.161012324E1,-2.735147178E-1,-1.128572702E0,2.064952135E0
1.162678918E1,-4.515054226E-1,-1.875813007E0,2.366871834E0
1.164345511E1,-1.353829056E-1,-2.051131248E0,3.006752729E0
1.166012105E1,-1.427132785E-1,-2.192775488E0,3.612654209E0
1.167678699E1,-8.540652990E-1,-2.748051643E0,3.562258005E0
1.169345292E1,-1.087186575E0,-2.788750410E0,2.888168573E0
1.171011886E1,-2.539670467E-1,-2.207054377E0,2.283488989E0
1.172678480E1,2.193004489E-1,-2.288299561E0,1.947207808E0
1.174345074E1,1.456912458E-1,-2.538524866E0,2.056628942E0
1.176011668E1,6.604211926E-1,-1.684383273E0,2.138637543E0
1.177678261E1,1.942626357E0,-1.356883407E0,1.902614713E0
1.179344855E1,3.310581684E0,-1.686903119E0,1.468366265E0
1.181011449E1,4.409451008E0,-1.498527646E0,9.197332859E-1
1.182678042E1,5.019017696E0,-7.992402315E-1,3.277289569E-1
1.184344636E1,4.903411388E0,-2.856556475E-1,-2.751945853E-1
1.186011230E1,4.192975998E0,-2.921460867E-1,-9.542471170E-1
1.187677824E1,3.231245518E0,-6.248382926E-1,-1.833739758E0
1.189344418E1,2.213621140E0,-1.145676851E0,-2.514472246E0
1.191011011E1,1.145142436E0,-1.812970281E0,-2.699335098E0
1.192677605E1,1.284343153E-1,-2.317773581E0,-2.717890024E0
1.194344199E1,-5.892554522E-1,-2.112141371E0,-2.855640173E0
1.196010792E1,-9.407317638E-1,-1.414151907E0,-3.105560064E0
1.197677386E1,-8.581122756E-1,-7.803797722E-1,-3.364566803E0
1.199343980E1,-5.568795800E-1,-3.943132162E-1,-3.498346329E0
1.201010574E1,-3.807214797E-1,-3.048978746E-1,-3.124420643E0
1.202677168E1,-7.372374535E-1,-5.415316224E-1,-2.528140306E0
1.204343761E1,-1.624976635E0,-9.753220081E-1,-2.083812475E0
1.206010355E1,-3.095022678E0,-9.466113448E-1,-2.326173067E0
1.207676949E1,-5.001226425E0,-2.251800299E-1,-3.102505922E0
1.209343543E1,-5.681118965E0,1.345124245E0,-3.451844215E0
1.211010136E1,-4.692128658E0,2.014250278E0,-2.525315046E0
1.212676730E1,-3.057530880E0,1.300225735E0,-7.142536640E-1
1.214343324E1,-1.571449637E0,7.070759535E-1,6.412553191E-1
1.216009918E1,-7.853430510E-1,4.237874448E-1,1.298316717E0
1.217676511E1,-7.266236544E-1,3.011563420E-1,1.574045777E0
1.219343105E1,-1.102381825E0,4.090503156E-1,1.723860383E0
1.221009699E1,-1.652007461E0,7.724385262E-1,1.693851709E0
1.222676293E1,-1.987983108E0,1.037324786E0,1.466762662E0
1.224342886E1,-1.787313938E0,1.132085204E0,1.122845769E0
1.226009480E1,-9.977712631E-1,1.158199668E0,9.518800378E-1
1.227676074E1,-3.787361458E-2,1.288771987E0,9.668462276E-1
1.229342668E1,6.449204683E-1,1.328859925E0,1.065348148E0
1.231009261E1,1.002810836E0,1.218675256E0,1.116126299E0
1.232675855E1,1.301218390E0,1.258381486E0,1.084514022E0
1.234342449E1,1.430034399E0,1.023122191E0,9.938769937E-1
1.236009043E1,8.055015802E-1,-1.641699113E-2,7.849612236E-1
1.237675636E1,-5.264890790E-1,-1.663232088E0,5.803979039E-1
1.239342230E1,-1.685375929E0,-3.004996538E0,5.466476083E-1
1.241008824E1,-1.510286808E0,-3.181001902E0,1.081307054E0
1.242675418E1,-3.760636151E-1,-2.635805130E0,1.875889421E0
1.244342011E1,-2.298378758E-2,-2.321209908E0,2.177656651E0
1.246008605E1,-1.163621068E0,-2.077856541E0,9.963968396E-1
1.247675199E1,-1.618257165E0,-1.405676246E0,2.293797284E-1
1.249341793E1,-8.384882808E-1,-1.752723813E0,7.874047160E-1
1.251008386E1,9.338594973E-2,-2.503934622E0,1.722256899E0
1.252674980E1,1.142622590E0,-2.598695040E0,2.209727049E0
1.254341574E1,2.522031546E0,-2.014479399E0,2.296775103E0
1.256008168E1,3.825693369E0,-1.068326116E0,2.209192514E0
1.257674761E1,4.510931015E0,7.712167688E-3,1.811672211E0
1.259341355E1,4.366461277E0,4.121046662E-1,1.212948322E0
1.261007949E1,3.723067999E0,2.918406427E-1,4.169152081E-1
1.262674543E1,2.920850039E0,4.024071619E-2,-6.843212843E-1
1.264341136E1,1.989052057E0,-5.623010397E-1,-1.881463528E0
1.266007730E1,1.129412651E0,-1.232114315E0,-2.716592073E0
1.267674324E1,4.366155863E-1,-1.398727655E0,-3.004004002E0
1.269340918E1,2.458730713E-2,-9.624938369E-1,-2.885190725E0
1.271007511E1,-2.023489587E-2,-4.008036554E-1,-2.693379164E0
1.272674105E1,1.951712966E-1,-8.666644245E-2,-2.651458502E0
1.274340699E1,1.427132785E-1,-3.850739002E-1,-2.668868303E0
1.276007293E1,-4.558578432E-1,-1.169882417E0,-2.622137070E0
1.277673886E1,-1.232190609E0,-1.719202518E0,-2.714683056E0
1.279340480E1,-1.992106438E0,-1.589470148E0,-2.824715137E0
1.281007074E1,-2.728427649E0,-1.946291566E0,-2.312275887E0
1.282673668E1,-3.548818827E0,-2.887099743E0,-1.325500250E0
1.284340261E1,-4.560410976E0,-1.991495490E0,-9.622647166E-1
1.286006855E1,-4.617985249E0,1.358639598E0,-9.219476581E-1
1.287673449E1,-3.249724150E0,4.047055721E0,-5.267944932E-1
1.289340043E1,-2.243019104E0,3.698480844E0,4.230238497E-1
1.291006636E1,-2.852051258E0,1.662544847E0,1.365588188E0
1.292673230E1,-3.827220678E0,3.940077871E-2,2.089844704E0
1.294339824E1,-3.471239090E0,2.748127878E-1,2.499429703E0
1.296006418E1,-1.846720576E0,1.765170097E0,2.714530468E0
1.297673011E1,-3.081049323E-1,3.035616159E0,2.566166639E0
1.299339605E1,3.014617562E-1,3.402211428E0,1.885205030E0
1.301006199E1,-1.707367003E-1,2.686506987E0,5.340485573E-1
1.302672793E1,-1.283808708E0,8.962149620E-1,-1.107650518E0
1.304339386E1,-1.814039350E0,-7.860302329E-1,-1.814115644E0
1.306005980E1,-1.269987822E0,-1.856189013E0,-1.166675329E0
1.307672574E1,4.260781780E-2,-2.190026522E0,-3.582721949E-1
1.309339168E1,1.402163744E0,-2.186666727E0,-4.260781705E-1
1.311005761E1,1.948582292E0,-2.196440697E0,-9.169080257E-1
1.312672355E1,1.079092622E0,-8.058069944E-1,-1.244866014E0
1.314338949E1,-9.835686684E-1,2.077322006E0,-8.646790981E-1
1.316005543E1,-3.585852623E0,2.429714680E0,-2.719111741E-1
1.317672136E1,-5.926304817E0,-3.990474045E-1,3.903425932E-1
1.319338730E1,-7.293267250E0,-2.771340847E0,8.564324379E-1
1.321005324E1,-6.790296555E0,-1.459432364E0,9.921207428E-1
1.322671918E1,-3.823708057E0,1.455232620E0,1.224096656E0
1.324338511E1,-8.841503859E-1,2.885725260E0,1.168126225E0
1.326005105E1,-4.094321132E-1,1.871460557E0,1.242957115E0
1.327671699E1,-1.686750412E0,-6.508764029E-1,2.100229502E0
1.329338293E1,-2.777983904E0,-1.395902395E0,3.425347805E0
1.331004886E1,-2.019442558E0,4.940368831E-1,3.449324369E0
1.332671480E1,-1.345429718E-1,3.039128542E0,1.862450361E0
1.334338074E1,-1.204930767E-1,3.356472969E0,4.182133079E-1
1.336004668E1,-1.848935008E0,6.095666885E-1,7.254019380E-3
1.337671261E1,-2.451400280E0,-2.210337877E0,6.986002326E-1
1.339337855E1,-1.128038168E0,-2.638248682E0,1.763184786E0
1.341004449E1,7.736602426E-1,-1.638110280E0,2.000505686E0
1.342671043E1,9.040798545E-1,-1.204014540E0,1.236848474E0
1.344337636E1,-5.688678026E-1,-2.321744204E0,3.129154742E-1
1.346004230E1,-1.530369043E0,-3.574246168E0,3.165042996E-1
1.347670824E1,-1.262199402E0,-3.458105564E0,2.078467369E0
1.349337418E1,-1.270293355E0,-3.124115229E0,3.634416342E0
1.351004011E1,-2.023718596E0,-3.295615435E0,3.406105757E0
1.352670605E1,-2.357632637E0,-3.893041134E0,2.630154610E0
1.354337199E1,-1.210886717E0,-4.019413948E0,2.785696030E0
1.356003793E1,7.496837974E-1,-3.271791697E0,3.758880138E0
1.357670386E1,1.603290915E0,-2.384587049E0,4.492299557E0
1.359336980E1,4.201986194E-1,-1.958661556E0,4.410138130E0
1.361003574E1,-1.809686899E0,-2.503400326E0,3.776442528E0
1.362670168E1,-3.458410978E0,-3.200702429E0,3.316079378E0
1.364336761E1,-3.467497587E0,-3.640525103E0,2.967581034E0
1.366003355E1,-2.603200197E0,-3.462076187E0,3.176115036E0
1.367669949E1,-2.931158304E0,-1.668500781E0,3.357312918E0
1.369336543E1,-4.969308853E0,1.131856084E0,2.440710306E0
1.371003136E1,-6.669421673E0,2.262795925E0,1.230816126E0
1.372669730E1,-6.299084663E0,1.232496023E0,6.642391086E-1
1.374336324E1,-3.668166637E0,-1.566868126E-1,5.073232055E-1
1.376002918E1,-3.093266487E-1,-9.799034595E-1,1.140331864E0
1.377669511E1,1.521893263E0,2.801578641E-1,2.085339546E0
1.379336105E1,8.781944513E-1,2.672915220E0,2.243782759E0
1.381002699E1,-1.209817648E0,2.422002554E0,1.975994825E0
1.382669293E1,-3.160537958E0,7.292198390E-2,2.496451616E0
1.384335886E1,-3.809352875E0,-2.011119604E0,3.682445526E0
1.386002480E1,-2.756832838E0,-1.496771455E0,4.601873398E0
1.387669074E1,-3.573558927E-1,2.065181017E0,4.049422741E0
1.389335668E1,2.070602417E0,6.574203014E0,2.554331064E0
1.391002261E1,3.269195557E0,5.916454315E0,2.357250929E0
1.392668855E1,2.675205946E0,8.464295268E-1,3.336161613E0
1.394335449E1,1.728365541E0,-2.150243998E0,3.973064423E0
1.396002043E1,2.470642567E0,-1.037935615E0,4.013839722E0
1.397668636E1,4.184041977E0,2.145586252E0,3.764454126E0
1.399335230E1,4.519101143E0,4.223595619E0,3.470399141E0
1.401001824E1,2.917795658E0,3.572566271E0,3.374111652E0
1.402668418E1,8.999565244E-1,2.062126875E0,2.942764759E0
1.404335011E1,5.744419694E-1,3.364337683E0,2.024863958E0
1.406001605E1,2.708650827E0,6.212571144E0,1.243262529E0
1.407668199E1,4.847135544E0,6.421257973E0,4.864010811E-1
1.409334793E1,4.300640583E0,4.089510441E0,-3.588830531E-1
1.411001386E1,1.785786867E0,1.707672477E0,-1.626274705E0
1.412667980E1,-1.214857325E-1,1.792888165E0,-3.518657446E0
1.414334574E1,1.645517051E-1,3.727191448E0,-5.170970440E0
1.416001168E1,1.267391682E0,4.013763428E0,-5.044139385E0
1.417667761E1,9.516509771E-1,1.593288064E0,-3.839666843E0
1.419334355E1,-1.421253324E0,-8.907935619E-1,-3.121977091E0
1.421000949E1,-3.126558542E0,1.491273642E-1,-3.159621716E0
1.422667543E1,-2.555018187E0,3.746662855E0,-3.508654594E0
1.424334136E1,-1.600618482E0,5.657600403E0,-3.662439823E0
1.426000730E1,-2.095800638E0,3.220937252E0,-3.370141029E0
1.427667324E1,-3.741241455E0,8.574250937E-1,-3.162599564E0
1.429333918E1,-4.882260323E0,1.549229383E0,-3.361436129E0
1.431000511E1,-4.542543411E0,3.312032461E0,-3.015152216E0
1.432667105E1,-4.493292332E0,3.386176109E0,-1.321835041E0
1.434333699E1,-6.249070168E0,1.042517066E0,8.712458611E-2
1.436000293E1,-7.763633251E0,-1.270064235E0,6.181188226E-1
1.437666886E1,-6.780751705E0,-9.359975457E-1,2.958876193E-1
1.439333480E1,-3.615403175E0,1.046716809E0,-3.326922357E-1
1.441000074E1,-1.289917350E0,2.026620150E0,-1.912006736E-1
1.442666668E1,-1.559614182E0,1.352072835E0,5.207622051E-1
1.444333261E1,-3.458640099E0,-2.539670467E-1,6.992111206E-1
1.445999855E1,-4.934871197E0,-1.624976635E0,6.995928884E-1
1.447666449E1,-4.786201954E0,-2.404669285E0,1.055879712E0
1.449333043E1,-3.173977137E0,-2.534477949E0,1.565875530E0
1.450999636E1,-9.272163510E-1,-2.053803682E0,2.096793413E0
1.452666230E1,8.685733676E-1,-1.427209258E0,2.514472246E0
1.454332824E1,1.473176718E0,-1.440419197E0,2.849302292E0
1.455999418E1,1.253876328E0,-2.046473265E0,3.055392981E0
1.457666011E1,9.392045736E-1,-2.532950878E0,3.071198940E0
1.459332605E1,7.631992102E-1,-2.623587847E0,3.203374863E0
1.460999199E1,6.758455038E-1,-2.455829144E0,3.414428711E0
1.462665793E1,1.182863235E0,-2.061744928E0,3.453142166E0
1.464332386E1,2.459646940E0,-1.240819097E0,2.841284752E0
1.465998980E1,3.780794859E0,-1.006552458E0,2.364810228E0
1.467665574E1,4.037205219E0,-1.483408809E0,2.672151566E0
1.469332168E1,3.044549942E0,-1.914679289E0,3.173900604E0
1.470998761E1,2.156505346E0,-2.148564100E0,3.259345293E0
1.472665355E1,1.984776020E0,-1.914068460E0,2.977431297E0
1.474331949E1,2.090226650E0,-1.493564367E0,2.386114120E0
1.475998543E1,2.118708134E0,-1.320231557E0,1.601305604E0
1.477665136E1,2.101451159E0,-1.653840065E0,7.418189049E-1
1.479331730E1,2.149404049E0,-2.372598886E0,2.382372692E-2
1.480998324E1,2.255847216E0,-2.487594128E0,-7.622829080E-1
1.482664918E1,2.597320795E0,-1.746233344E0,-1.400789261E0
1.484331511E1,3.428707600E0,-8.384119272E-1,-1.647196889E0
1.485998105E1,4.172512054E0,-2.880991101E-1,-1.609628677E0
1.487664699E1,4.013839722E0,-2.038761228E-1,-1.402469158E0
1.489331293E1,3.052491188E0,-3.722457290E-1,-1.190422773E0
1.490997886E1,1.684001446E0,-6.015490890E-1,-1.122769475E0
1.492664480E1,3.020726442E-1,-6.213258505E-1,-1.258152366E0
1.494331074E1,-8.791107535E-1,-4.723511934E-1,-1.526245594E0
1.495997668E1,-1.697975039E0,-6.233875155E-1,-1.778761864E0
1.497664261E1,-2.461785078E0,-1.132772326E0,-2.135201454E0
1.499330855E1,-3.206505537E0,-1.721340537E0,-2.318308115E0
1.500997449E1,-3.603338718E0,-2.023413181E0,-2.234848738E0
1.502664042E1,-4.309574604E0,-1.684306860E0,-2.243019104E0
1.504330636E1,-5.371181488E0,8.239039034E-2,-2.308152676E0
1.505997230E1,-5.478006363E0,2.398102522E0,-2.048993111E0
1.507663824E1,-4.517803192E0,2.664134026E0,-1.193400741E0
1.509330418E1,-4.106996536E0,5.937605500E-1,5.528326333E-2
1.510997011E1,-4.339354515E0,-9.067524076E-1,1.235703111E0
1.512663605E1,-3.275991440E0,-3.138317764E-1,1.835114121E0
1.514330199E1,-7.128028274E-1,1.422627687E0,1.896735191E0
1.515996792E1,1.438204765E0,2.912526846E0,1.665904641E0
1.517663386E1,2.184834242E0,3.497353554E0,1.282968760E0
1.519329980E1,1.930790901E0,3.037372351E0,7.658717036E-1
1.520996574E1,1.314275622E0,2.011425018E0,2.984074354E-1
1.522663168E1,7.260891199E-1,1.163086534E0,5.551233515E-2
1.524329761E1,2.331212759E-1,6.832522750E-1,2.971857190E-1
1.525996355E1,-1.595884264E-1,4.042397738E-1,8.686497211E-1
1.527662949E1,-4.409680068E-1,2.038761228E-1,1.362381220E0
1.529329542E1,-5.742892623E-1,-2.443459071E-2,1.372689486E0
1.530996136E1,-5.471057892E-1,-2.886336148E-1,1.193477035E0
1.532662730E1,-4.948004782E-1,-7.173843384E-1,1.358028769E0
1.534329324E1,-6.801216006E-1,-1.360930324E0,1.858250618E0
1.535995918E1,-1.031521559E0,-1.842826366E0,2.633361816E0
1.537662511E1,-1.442175388E0,-2.012494087E0,3.101131439E0
1.539329105E1,-1.846720576E0,-2.329380035E0,2.900614977E0
1.540995699E1,-1.983019829E0,-2.875569582E0,2.471787930E0
1.542662292E1,-1.561523080E0,-2.673984289E0,2.099771261E0
1.544328886E1,-5.266417861E-1,-1.590844631E0,1.978209257E0
1.545995480E1,1.128267288E0,-1.026940107E0,2.714683056E0
1.547662074E1,2.469955444E0,-1.042593479E0,3.190317631E0
1.549328668E1,3.254916668E0,-8.895718455E-1,3.293477535E0
1.550995261E1,3.550575256E0,-5.198459029E-1,3.045848131E0
1.552661855E1,3.471086502E0,1.024725661E-1,1.991877317E0
1.554328449E1,3.213530540E0,6.543889046E-1,2.892444730E-1
1.555995042E1,3.140455723E0,5.661953092E-1,-1.228219986E0
1.557661636E1,3.322951794E0,-1.549305767E-1,-2.603582144E0
1.559328230E1,3.502393246E0,-9.417244196E-1,-3.897775412E0
1.560994824E1,3.396790028E0,-1.731496215E0,-4.496957302E0
1.562661418E1,2.971628189E0,-2.106796265E0,-4.493216038E0
1.564328011E1,2.596404314E0,-1.509446859E0,-4.176177025E0
1.565994605E1,2.269744396E0,-3.357465565E-1,-3.868224859E0
1.567661199E1,1.812588573E0,6.242274642E-1,-3.790874004E0
1.569327792E1,1.080848813E0,1.013271928E0,-3.934885502E0
1.570994386E1,1.914297491E-1,6.894372702E-1,-4.175489902E0
1.572660980E1,-7.729730010E-1,-2.772562504E-1,-4.265592575E0
1.574327574E1,-1.720806122E0,-1.416595459E0,-4.021170139E0
1.575994168E1,-2.692768335E0,-2.573038816E0,-3.407861948E0
1.577660761E1,-3.908541918E0,-3.635103703E0,-2.561356068E0
1.579327355E1,-5.506029606E0,-3.832642078E0,-1.952094793E0
1.580993949E1,-6.684693336E0,-2.524093151E0,-1.997985959E0
1.582660542E1,-6.353681087E0,1.782197952E-1,-2.239430189E0
1.584327136E1,-4.730918407E0,1.893680811E0,-1.603061914E0
1.585993730E1,-3.583867311E0,5.367974043E-1,-3.649916872E-2
1.587660324E1,-3.448789835E0,-1.166751742E0,1.726991057E0
1.589326918E1,-2.840903044E0,-1.156748772E0,2.839146852E0
1.590993511E1,-1.281746984E0,-1.543960720E-1,3.200473309E0
1.592660105E1,1.884517819E-1,6.295725107E-1,3.147633553E0
1.594326699E1,9.653954506E-1,8.858302832E-1,2.971628189E0
1.595993292E1,1.213940978E0,8.587231636E-1,2.764239550E0
1.597659886E1,1.226540089E0,9.556979537E-1,2.423987865E0
1.599326480E1,1.086957574E0,1.424460292E0,1.943084478E0
1.600993074E1,8.320741653E-1,1.577100158E0,1.541364551E0
1.602659668E1,5.356520414E-1,1.083750486E0,1.462792039E0
1.604326261E1,1.458439678E-1,2.976438701E-1,1.559843183E0
1.605992855E1,-4.825831652E-1,-5.755873322E-1,1.569388032E0
1.607659449E1,-1.241735339E0,-1.476154685E0,1.705687165E0
1.609326042E1,-1.917122722E0,-2.471635342E0,2.063501120E0
1.610992636E1,-2.384816170E0,-2.998124361E0,2.217744589E0
1.612659230E1,-2.528980255E0,-3.198411703E0,1.993862629E0
1.614325824E1,-2.430478334E0,-3.634110928E0,1.918649912E0
1.615992418E1,-2.231412649E0,-4.152124405E0,2.206901789E0
1.617659011E1,-2.582583666E0,-3.792935848E0,1.680641770E0
1.619325605E1,-2.410701513E0,-2.227289438E0,8.888846040E-1
1.620992199E1,-1.059697628E0,-1.054123521E0,5.607738495E-1
1.622658792E1,7.357866168E-1,-1.133764982E0,6.201041341E-1
1.624325386E1,2.834717989E0,-1.761199474E0,9.573014379E-1
1.625991980E1,5.041924953E0,-1.502040148E0,1.164155602E0
1.627658574E1,6.512734890E0,-1.689804643E-1,7.988584042E-1
1.629325168E1,6.298092365E0,7.118865252E-1,2.275471389E-2
1.630991761E1,4.849731922E0,5.304597020E-1,-8.828523159E-1
1.632658355E1,3.585165501E0,2.070831656E-1,-1.936594009E0
1.634324949E1,2.928027630E0,-2.306014486E-2,-2.792339325E0
1.635991542E1,2.521191597E0,-3.488801420E-1,-2.999040604E0
1.637658136E1,1.950491190E0,-4.680751264E-1,-2.444298983E0
1.639324730E1,1.278921723E0,-2.382372618E-1,-1.821522355E0
1.640991324E1,9.749401808E-1,5.790234804E-1,-1.905974507E0
1.642657918E1,1.198287606E0,1.122464061E0,-2.442390203E0
1.644324511E1,1.213711977E0,1.504254490E-1,-2.713613987E0
1.645991105E1,3.247509897E-1,-1.151480079E0,-2.722166061E0
1.647657699E1,-9.512691498E-1,-1.468442559E0,-2.512868643E0
1.649324292E1,-2.308458090E0,-9.979239702E-1,-2.240804672E0
1.650990886E1,-4.255895138E0,-7.022654414E-1,-2.404287338E0
1.652657480E1,-6.389111042E0,-4.046979249E-1,-3.037525177E0
1.654324074E1,-7.645049095E0,3.714821339E-1,-2.381227255E0
1.655990668E1,-6.892998219E0,2.440862894E0,-1.614973694E-1
1.657657261E1,-5.018712521E0,4.407847404E0,1.553429127E0
1.659323855E1,-3.597840786E0,4.249328136E0,1.921017051E0
1.660990449E1,-3.759567261E0,2.558301687E0,1.726074815E0
1.662657042E1,-4.300029755E0,1.044578791E0,1.964999318E0
1.664323636E1,-3.810650826E0,8.506292105E-1,2.489808559E0
1.665990230E1,-2.256458044E0,1.747455001E0,3.288819551E0
1.667656824E1,-1.552131057E0,2.456210852E0,3.263545036E0
1.669323418E1,-2.353814602E0,1.463479280E0,2.391077518E0
1.670990011E1,-3.114188671E0,-6.046797633E-1,7.751110196E-1
1.672656605E1,-2.494313717E0,-2.470031738E0,-8.350521326E-1
1.674323199E1,-8.296307325E-1,-3.678551435E0,-1.310381293E0
1.675989792E1,4.858665764E-1,-4.108752728E0,-2.077703774E-1
1.677656386E1,-4.970912263E-2,-2.625344038E0,1.615355492E0
1.679322980E1,-1.997909665E0,-1.514639258E0,1.792506337E0
1.680989574E1,-2.795317173E0,-1.909486890E0,3.396408260E-1
1.682656168E1,-1.751043916E0,-2.815170288E0,-4.614319801E-1
1.684322761E1,-5.888736248E-1,-3.119610071E0,8.500183225E-1
1.685989355E1,-1.098182201E0,-2.176358461E0,2.449262381E0
1.687655949E1,-2.812650442E0,-9.502001405E-1,2.147647858E0
1.689322542E1,-3.894950151E0,-1.933387071E-1,6.111702323E-1
1.690989136E1,-3.526216984E0,-1.236313939E0,3.683514595E-1
1.692655730E1,-2.001651049E0,-2.715675831E0,1.435532212E0
1.694322324E1,2.033416182E-1,-1.815642834E0,2.436739683E0
1.695988918E1,2.262948513E0,9.278272390E-1,2.626413107E0
1.697655511E1,3.424049854E0,3.749106169E0,1.912999392E0
1.699322105E1,3.442375660E0,4.167396069E0,6.471349001E-1
1.700988699E1,1.299691200E0,2.221638918E0,-4.755582213E-1
1.702655292E1,-1.722409606E0,1.637117565E-1,-3.886627033E-2
1.704321886E1,-3.556302071E0,-4.962512851E-1,1.600542068E0
1.705988480E1,-3.105789185E0,2.899316847E-1,2.625802279E0
1.707655074E1,-8.239038587E-1,9.983821511E-1,2.281427145E0
1.709321668E1,8.883501291E-1,-1.234710440E-1,1.611537695E0
1.710988261E1,4.518108666E-1,-1.669035316E0,1.739971995E0
1.712654855E1,-8.279508352E-1,-2.325867653E0,2.296546221E0
1.714321449E1,-2.188117743E0,-1.502650976E0,2.077245712E0
1.715988042E1,-3.528431416E0,-5.639045238E-1,1.408501506E0
1.717654636E1,-4.713661671E0,-2.260810614E0,1.820758820E0
1.719321230E1,-4.639976025E0,-5.671497822E0,3.275227785E0
1.720987824E1,-2.186208725E0,-7.095957756E0,3.970239162E0
1.722654418E1,1.388648391E0,-4.626918793E0,3.587761641E0
1.724321011E1,2.659094334E0,9.335541129E-1,2.751487732E0
1.725987605E1,2.871064544E-1,3.574398994E0,1.709886909E0
1.727654199E1,-3.600895166E0,2.467282772E0,6.361393332E-1
1.729320792E1,-5.893088818E0,1.593364477E0,-2.622137070E-1
1.730987386E1,-5.474035740E0,1.777234674E0,-4.959458411E-1
1.732653980E1,-3.670686483E0,1.083674073E0,1.854738146E-1
1.734320574E1,-2.235154152E0,3.091739416E-1,1.247233152E0
1.735987168E1,-2.174296856E0,1.195844173E0,1.924758554E0
1.737653761E1,-2.584263563E0,2.548375130E0,1.677740097E0
1.739320355E1,-2.461708784E0,3.286147118E0,1.294040680E0
1.740986949E1,-1.670867920E0,2.979034901E0,1.618180752E0
1.742653542E1,-5.249619484E-1,2.041891813E0,2.257221699E0
1.744320136E1,2.419788092E-1,1.208214164E0,2.759199858E0
1.745986730E1,2.379318327E-1,6.937133074E-1,3.090823174E0
1.747653324E1,-1.143080741E-1,8.219185472E-1,3.235139847E0
1.749319918E1,-3.371973634E-1,1.279379964E0,3.471773624E0
1.750986511E1,-2.590066791E-1,1.072067738E0,4.388070583E0
1.752653105E1,4.043924809E-1,8.208495378E-1,5.159134865E0
1.754319699E1,1.585728645E0,1.161483049E0,4.991070747E0
1.755986292E1,1.942473650E0,1.895818830E0,3.772242785E0
1.757652886E1,-5.615374446E-1,3.109378099E0,2.322049856E0
1.759319480E1,-4.295830250E0,2.970482588E0,1.275103927E0
1.760986074E1,-6.505710125E0,1.890092015E0,9.288198948E-1
1.762652668E1,-5.844906807E0,3.573558927E-1,8.161153197E-1
1.764319261E1,-2.815475702E0,-4.832704067E-1,5.940660089E-2
1.765985855E1,1.053359985E0,1.508836001E-1,-7.140245438E-1
1.767652449E1,3.946186543E0,1.455156207E0,-1.095204234E0
1.769319042E1,4.565603256E0,2.564486742E0,-1.295567870E0
1.770985636E1,2.585332394E0,2.992702961E0,-1.854127288E0
1.772652230E1,1.026252806E-1,2.186895847E0,-2.637561321E0
1.774318824E1,-1.327714562E0,1.670944214E0,-3.288666964E0
1.775985418E1,-2.110461473E0,1.459661365E0,-3.281718254E0
1.777652011E1,-2.574871302E0,1.433546901E0,-1.413999200E0
1.779318605E1,-2.446666241E0,1.865886450E0,1.014188290E0
1.780985199E1,-1.782045245E0,2.869766474E0,1.921017051E0
1.782651792E1,-1.432325244E0,3.445735455E0,1.445916891E0
1.784318386E1,-2.711170673E0,2.642142773E0,1.356730700E0
1.785984980E1,-4.765050888E0,1.251432896E0,2.099618673E0
1.787651574E1,-4.936169147E0,6.416370869E-1,3.043404579E0
1.789318168E1,-3.064861298E0,1.165529966E0,3.089677811E0
1.790984761E1,-2.738964856E-1,2.244546175E0,2.219042778E0
1.792651355E1,1.566715479E0,2.632674456E0,1.643073559E0
1.794317949E1,1.018387914E0,2.190790176E0,1.617875338E0
1.795984542E1,-1.242575288E0,1.060079455E0,1.530674458E0
1.797651136E1,-2.772715330E0,-7.234166265E-1,1.759290576E0
1.799317730E1,-2.430783749E0,-1.515326500E0,2.191248417E0
1.800984324E1,-9.084323049E-1,-1.483103275E0,2.155894518E0
1.802650918E1,3.359756172E-1,-1.038775563E0,2.019442558E0
1.804317511E1,5.272526741E-1,-5.184714794E-1,1.958279729E0
1.805984105E1,8.324559927E-1,-3.432296515E-1,2.120846272E0
1.807650699E1,1.975536704E0,-1.051145554E0,2.528751135E0
1.809317292E1,3.177184105E0,-2.424751282E0,3.344179153E0
1.810983886E1,3.214828730E0,-2.701167583E0,4.079507828E0
1.812650480E1,2.044259071E0,-1.702632904E0,3.800418854E0
1.814317074E1,1.106810570E0,-1.247691289E-1,2.956967354E0
1.815983668E1,1.425682068E0,9.244675040E-1,1.794491649E0
1.817650261E1,2.445978880E0,5.312996507E-1,6.779835224E-1
1.819316855E1,3.473453522E0,-1.211192131E0,1.152243689E-1
1.820983449E1,3.968712091E0,-1.649258494E0,1.334739476E-1
1.822650042E1,3.391903162E0,-3.479638398E-1,2.623664141E-1
1.824316636E1,2.318690062E0,1.013119221E0,-1.407279670E-1
1.825983230E1,1.490815520E0,1.492648125E0,-1.283274174E0
1.827649824E1,1.047098637E0,1.025107503E0,-2.801578522E0
1.829316418E1,3.966803253E-1,-6.989820004E-1,-4.032318592E0
1.830983011E1,-6.914225817E-1,-2.957272768E0,-4.535059929E0
1.832649605E1,-1.103298187E0,-3.628460407E0,-3.644037485E0
1.834316199E1,2.157116234E-1,-1.536095858E0,-2.298760414E0
1.835982792E1,2.083507061E0,1.086881161E0,-1.631543517E0
1.837649386E1,2.607094526E0,2.055025578E0,-1.842291832E0
1.839315980E1,1.264184713E0,8.720858097E-1,-2.151923895E0
1.840982574E1,-8.615484238E-1,-1.413617492E0,-2.297309637E0
1.842649168E1,-2.599306107E0,-2.687652349E0,-2.126114845E0
1.844315761E1,-3.392437458E0,-1.145218730E0,-1.531896114E0
1.845982355E1,-3.447491646E0,2.006919861E0,-9.232457280E-1
1.847648949E1,-3.848448038E0,3.073947906E0,-6.045270562E-1
1.849315542E1,-5.590939999E0,1.262886524E0,-3.333030939E-1
1.850982136E1,-7.099775791E0,-1.399109364E0,5.141954422E-1
1.852648730E1,-5.948677540E0,-1.517311811E0,1.483485103E0
1.854315324E1,-2.512181520E0,5.626828074E-1,1.459203243E0
1.855981918E1,9.143882394E-1,2.298149586E0,8.668934703E-1
1.857648511E1,2.250273228E0,3.169319153E0,4.413498044E-1
1.859315105E1,1.631008983E0,3.389841318E0,-7.024944760E-3
1.860981699E1,2.628245652E-1,2.954523802E0,-5.811614990E-1
1.862648292E1,-8.456659317E-1,2.525467634E0,-1.044273376E0
1.864314886E1,-1.320460558E0,2.097556829E0,-1.190804482E0
1.865981480E1,-1.182557821E0,1.962632179E0,-8.802561760E-1
1.867648074E1,-7.822123766E-1,2.199953079E0,-3.219257295E-1
1.869314668E1,-4.573850036E-1,2.081903458E0,1.820377111E-1
1.870981261E1,-5.975021124E-1,1.301371098E0,8.019890785E-1
1.872647855E1,-1.204319954E0,-7.139482349E-2,1.667431831E0
1.874314449E1,-1.955072761E0,-1.654374480E0,2.359999657E0
1.875981042E1,-2.412763119E0,-2.555552721E0,2.785696030E0
1.877647636E1,-2.137797594E0,-2.663828611E0,3.014999390E0
1.879314230E1,-1.215620875E0,-3.018970013E0,3.311345339E0
1.880980824E1,-4.663189054E-1,-3.782627344E0,3.387703419E0
1.882647418E1,-3.916406929E-1,-3.977187872E0,3.665570498E0
1.884314011E1,2.674060464E-1,-2.781038284E0,4.289492607E0
1.885980605E1,1.794186234E0,-1.998825908E0,4.010632515E0
1.887647199E1,3.012250662E0,-2.403141975E0,3.020649910E0
1.889313792E1,3.108919859E0,-2.806541920E0,2.394284487E0
1.890980386E1,2.597778797E0,-2.261345148E0,2.432158232E0
1.892646980E1,2.383212566E0,-1.658345103E0,2.827387571E0
1.894313574E1,2.356181860E0,-1.317253590E0,2.740568399E0
1.895980168E1,2.401309490E0,-9.861648083E-1,1.765857339E0
1.897646761E1,2.662072420E0,-9.672279954E-1,3.068068326E-1
1.899313355E1,3.020268202E0,-1.278463602E0,-1.122082233E0
1.900979949E1,3.333489180E0,-1.341688156E0,-2.439946651E0
1.902646542E1,3.294240952E0,-9.304997921E-1,-3.499109745E0
1.904313136E1,3.137325048E0,-4.826595485E-1,-3.667861223E0
1.905979730E1,2.734612465E0,-3.924042583E-1,-3.107545376E0
1.907646324E1,1.954538226E0,-4.863247275E-1,-2.302425623E0
1.909312918E1,1.035797596E0,-5.849793553E-1,-1.797851443E0
1.910979511E1,1.275943816E-1,-7.983239293E-1,-1.674991250E0
1.912646105E1,-7.709876895E-1,-9.891427755E-1,-1.868406296E0
1.914312699E1,-1.658039689E0,-1.143997073E0,-2.439641237E0
1.915979292E1,-2.451323986E0,-1.206610680E0,-3.080132961E0
1.917645886E1,-3.353494883E0,-1.338557482E0,-3.170388222E0
1.919312480E1,-4.366156101E0,-1.532354355E0,-2.682383537E0
1.920979074E1,-5.062312603E0,-1.319926023E0,-2.348622322E0
1.922645668E1,-5.346823215E0,-4.033998251E-1,-2.514701128E0
1.924312261E1,-4.819875717E0,8.814015388E-1,-2.240346670E0
1.925978855E1,-3.849364519E0,1.501963735E0,-1.384295940E0
1.927645449E1,-3.826762438E0,1.145600557E0,-8.281798959E-1
1.929312042E1,-3.849364519E0,1.289077401E0,-1.000291109E-1
1.930978636E1,-2.367864609E0,1.479132652E0,8.382592201E-1
1.932645230E1,-3.449095190E-1,1.374140263E0,1.196913123E0
1.934311824E1,8.617011309E-1,1.266551733E0,9.573014379E-1
1.935978418E1,9.190460443E-1,1.254334450E0,5.916988850E-1
1.937645011E1,4.366155863E-1,1.252501845E0,4.180605710E-1
1.939311605E1,-3.352120519E-2,1.328783631E0,5.417606831E-1
1.940978199E1,-2.645044625E-1,1.532812476E0,8.274163604E-1
1.942644792E1,-1.986074150E-1,1.748294950E0,1.147509456E0
1.944311386E1,1.329394430E-1,1.830532670E0,1.355432630E0
1.945977980E1,5.168679357E-1,1.746080637E0,1.480965257E0
1.947644574E1,6.433933377E-1,1.262428403E0,1.563584805E0
1.949311168E1,5.487856269E-1,4.250855148E-1,1.608330607E0
1.950977761E1,3.413970470E-1,-8.674279600E-2,1.676212907E0
1.952644355E1,8.246674202E-3,-6.252964735E-1,2.038379431E0
1.954310949E1,-3.121519089E-1,-1.589241028E0,2.735910654E0
1.955977542E1,-4.605156779E-1,-2.340681076E0,3.296684504E0
1.957644136E1,-8.144354820E-1,-3.475057125E0,3.376554966E0
1.959310730E1,-1.645211577E0,-5.037343502E0,3.062646866E0
1.960977324E1,-2.524856806E0,-5.278253555E0,2.589073896E0
1.962643918E1,-1.608483315E0,-2.776914835E0,2.049756765E0
1.964310511E1,1.394375205E0,-6.603448391E-1,1.331761599E0
1.965977105E1,3.011868715E0,-1.536553979E0,1.379332662E0
1.967643699E1,2.635423422E0,-2.757061720E0,1.743637204E0
1.969310292E1,2.070449829E0,-2.630002022E0,1.753869176E0
1.970976886E1,2.109621525E0,-1.830838084E0,1.807778001E0
1.972643480E1,2.465297461E0,-1.011057615E0,1.508988738E0
1.974310074E1,2.747287989E0,-4.931969643E-1,6.533198953E-1
1.975976668E1,2.990793943E0,-2.147189677E-1,-3.360520005E-1
1.977643261E1,3.194059134E0,1.003345400E-1,-1.170569658E0
1.979309855E1,3.131140232E0,1.989891976E-1,-1.715231895E0
1.980976449E1,2.869384527E0,3.723220825E-1,-1.989128470E0
1.982643042E1,2.714683056E0,7.467821836E-1,-1.873674989E0
1.984309636E1,2.630231142E0,9.191223979E-1,-1.658879638E0
1.985976230E1,2.305250883E0,8.301652074E-1,-1.572595000E0
1.987642824E1,1.523420453E0,4.797579348E-1,-1.608788729E0
1.989309418E1,4.637990892E-1,1.580612659E-1,-1.912312150E0
1.990976011E1,-5.526798964E-1,3.756818548E-2,-2.408563375E0
1.992642605E1,-1.490739107E0,-1.908952370E-2,-2.999422312E0
1.994309199E1,-2.432921648E0,-2.041051984E-1,-3.506440163E0
1.995975792E1,-3.350135088E0,-6.182715297E-1,-3.735667229E0
1.997642386E1,-4.172206402E0,-1.025794625E0,-3.461388826E0
1.999308980E1,-4.808040142E0,-1.160719395E0,-2.712545156E0
2.000975574E1,-5.366752625E0,1.399643868E-1,-2.197280645E0
2.002642168E1,-5.962727547E0,1.874133110E0,-2.349080563E0
2.004308761E1,-6.009382248E0,2.647258997E0,-2.569908142E0
2.005975355E1,-5.383169651E0,2.119471788E0,-1.707367063E0
2.007641949E1,-4.128224373E0,1.283274174E0,-1.574503928E-1
2.009308542E1,-2.125122309E0,8.600212336E-1,8.444442153E-1
2.010975136E1,-2.380845547E-1,6.832522750E-1,1.472184062E0
2.012641730E1,8.213840723E-1,7.586176991E-1,1.826943874E0
2.014308324E1,9.005674124E-1,9.981530309E-1,1.821751475E0
2.015974918E1,2.703076601E-1,1.226998210E0,1.633452415E0
2.017641511E1,-4.295906425E-1,1.190804482E0,1.389411926E0
2.019308105E1,-7.715985775E-1,9.641736746E-1,1.041295409E0
2.020974699E1,-6.343830824E-1,7.667116523E-1,5.519163013E-1
2.022641292E1,-2.166279256E-1,7.086031437E-1,1.721111536E-1
2.024307886E1,4.114174247E-1,4.735729098E-1,-3.123046272E-2
2.025974480E1,1.101770997E0,1.796706021E-1,6.627883017E-2
2.027641074E1,1.706832528E0,2.632827163E-1,7.082213759E-1
2.029307668E1,1.899331331E0,5.278635025E-1,1.372918606E0
2.030974261E1,1.210199475E0,3.079521954E-1,1.662392139E0
2.032640855E1,-2.083048970E-1,-8.006910086E-1,1.648189545E0
2.034307449E1,-1.737146735E0,-2.982776403E0,1.800447583E0
2.035974043E1,-2.811428785E0,-4.759858131E0,2.096106052E0
2.037640636E1,-2.876944065E0,-4.760545731E0,2.395048141E0
2.039307230E1,-1.189124703E0,-2.970864534E0,2.025169373E0
2.040973824E1,6.601921320E-1,-1.468977094E0,4.893790483E-1
2.042640418E1,1.492342710E0,-1.473634958E0,-2.262490392E-1
2.044307011E1,1.596571445E0,-2.454989195E0,2.999345958E-1
2.045973605E1,8.223003745E-1,-2.956891060E0,8.642209172E-1
2.047640199E1,4.331794977E-1,-3.043175697E0,1.087644696E0
2.049306793E1,9.603558183E-1,-2.732321739E0,9.220240116E-1
2.050973386E1,1.881921649E0,-2.065944672E0,2.719111741E-1
2.052639980E1,2.696815252E0,-1.408654213E0,-4.856374860E-1
2.054306574E1,3.225060701E0,-1.021136880E0,-1.050305605E0
2.055973168E1,3.424507856E0,-8.389464021E-1,-1.500971079E0
2.057639761E1,3.292637587E0,-7.645736337E-1,-1.721875072E0
2.059306355E1,3.074482441E0,-7.646499872E-1,-1.473558545E0
2.060972949E1,3.240103245E0,-4.415025115E-1,-8.762855530E-1
2.062639543E1,3.774533510E0,3.820959330E-1,-3.184896111E-1
2.064306136E1,3.994979382E0,1.173776627E0,-9.086613357E-2
2.065972730E1,3.370370150E0,1.558468819E0,-1.964693815E-1
2.067639324E1,2.140775681E0,1.598633170E0,-3.911825418E-1
2.069305918E1,7.107411623E-1,1.500742078E0,-5.988765359E-1
2.070972511E1,-7.013491392E-1,1.180267096E0,-6.818777919E-1
2.072639105E1,-1.993786335E0,7.409789562E-1,-4.747946560E-1
2.074305699E1,-3.194441080E0,1.593593508E-1,-2.859610617E-1
2.075972293E1,-4.343554020E0,-6.440041661E-1,-5.791761875E-1
2.077638886E1,-5.358582020E0,-7.560214996E-1,-1.575649381E0
2.079305480E1,-5.546422958E0,5.527562499E-1,-2.193386316E0
2.080972074E1,-4.107454777E0,2.780732870E0,-1.769675255E0
2.082638668E1,-2.518290043E0,4.343477726E0,-1.413846493E0
2.084305261E1,-1.830227256E0,3.777282476E0,-1.286328554E0
2.085971855E1,-2.341368437E0,2.179412842E0,-1.151480079E0
2.087638449E1,-3.148702621E0,1.643989831E-1,-5.922334194E-1
2.089305043E1,-3.267439365E0,-1.073594809E0,-1.086575761E-1
2.090971636E1,-2.614882946E0,-8.614720702E-1,-1.613446623E-1
2.092638230E1,-1.659796000E0,1.060613990E-1,-5.585594773E-1
2.094304824E1,-8.154281378E-1,9.396627545E-1,-8.161917329E-1
2.095971418E1,-3.113883138E-1,1.341535449E0,-8.043562174E-1
2.097638011E1,-1.343138963E-1,1.398269534E0,-5.836812854E-1
2.099304605E1,-1.831067204E-1,1.137964725E0,-3.523162603E-1
2.100971199E1,-2.574031353E-1,5.161807537E-1,-1.127809063E-1
2.102637793E1,-1.896735132E-1,-2.459494323E-1,6.207913160E-2
2.104304386E1,6.368265301E-2,-8.245911002E-1,1.422551423E-1
2.105970980E1,4.972439408E-1,-1.120173335E0,1.915061027E-1
2.107637574E1,1.142775297E0,-8.135191798E-1,3.087157905E-1
2.109304168E1,2.051207542E0,-3.730092943E-1,6.869937778E-1
2.110970761E1,2.496451616E0,-1.504178166E0,1.093600631E0
2.112637355E1,1.581758022E0,-3.867919445E0,1.183474183E0
2.114303949E1,-1.853211075E-1,-6.185845852E0,1.417740822E0
2.115970543E1,-1.226845503E0,-7.654441357E0,1.517846227E0
2.117637136E1,-1.205923438E0,-6.516629219E0,4.005745649E-1
2.119303730E1,-1.195004210E-1,-3.425118923E0,-8.891900182E-1
2.120970324E1,1.304730773E0,-1.417893529E0,-1.360014081E0
2.122636918E1,1.770897031E0,-1.922086000E0,-1.130787015E0
2.124303511E1,1.048473001E0,-3.347462654E0,-8.348230720E-1
2.125970105E1,3.558287397E-2,-4.966177940E0,-8.668171167E-1
2.127636699E1,-8.692606091E-1,-5.711280346E0,-1.039157391E0
2.129303293E1,-1.190728188E0,-5.436238289E0,-1.105130792E0
2.130969886E1,-7.232639194E-1,-4.295066833E0,-1.179579854E0
2.132636480E1,2.670242786E-1,-2.972544432E0,-1.354134440E0
2.134303074E1,1.073213100E0,-2.121915102E0,-1.415450096E0
2.135969668E1,1.384601355E0,-1.711261272E0,-1.362381220E0
2.137636261E1,1.188361049E0,-1.600694776E0,-1.337564826E0
2.139302855E1,6.322450638E-1,-1.977980137E0,-1.254639864E0
2.140969449E1,1.862373948E-1,-2.058996201E0,-8.143591285E-1
2.142636043E1,3.054323897E-4,-1.287168503E0,-3.139081299E-1
2.144302636E1,-5.803215504E-2,-7.270817757E-1,-1.119409725E-1
2.145969230E1,1.212566569E-1,-1.022053123E0,-3.074176908E-1
2.147635824E1,4.008800089E-1,-1.575267553E0,-7.321214676E-1
2.149302418E1,4.502073526E-1,-1.712635756E0,-9.491311312E-1
2.150969011E1,3.423897028E-1,-1.209435940E0,-3.884336352E-1
2.152635605E1,4.500546157E-1,-4.139372408E-1,5.051851869E-1
2.154302199E1,1.031292439E0,3.063486814E-1,4.786125422E-1
2.155968793E1,1.605734468E0,7.280744314E-1,-1.035186768E0
2.157635386E1,1.429118156E0,6.121628881E-1,-2.042197227E0
2.159301980E1,3.536907136E-1,9.992983937E-1,-1.258305073E0
2.160968574E1,-6.532435417E-1,1.349782109E0,-2.935968935E-1
2.162635168E1,-7.516691089E-1,1.007239699E0,1.356119812E-1
2.164301761E1,-3.617083132E-1,1.382845193E-1,2.289215773E-1
2.165968355E1,-1.618791670E-1,-9.402735829E-1,1.635590494E-1
2.167634949E1,-1.739437431E-1,-1.318551660E0,1.169042438E-1
2.169301543E1,-3.926333487E-1,-8.487202525E-1,6.414080411E-2
2.170968136E1,-8.053488731E-1,3.280344009E-1,-1.198822111E-1
2.172634730E1,-5.607738495E-1,9.268345833E-1,-3.133736253E-1
2.174301324E1,-3.229947388E-2,2.025780380E-1,-4.454731345E-1
2.175967918E1,7.620538026E-2,-8.775072694E-1,-5.143481493E-1
2.177634511E1,-6.475166976E-2,-1.434997678E0,-6.102539301E-1
2.179301105E1,-6.772962958E-2,-1.222722173E0,-6.943241954E-1
2.180967699E1,2.446513474E-1,-4.186714590E-1,-8.038980365E-1
2.182634293E1,7.327322960E-1,1.798233241E-1,-9.505056143E-1
2.184300886E1,1.027321815E0,-2.246455252E-1,-1.058857679E0
2.185967480E1,8.455895782E-1,-1.246698618E0,-1.174234867E0
2.187634074E1,4.194350243E-1,-2.211635828E0,-1.313588381E0
2.189300668E1,3.604102135E-1,-2.189491987E0,-1.446069598E0
2.190967261E1,1.040455461E0,-1.109941363E0,-1.346651435E0
2.192633855E1,1.825187564E0,-2.138026757E-3,-1.172860384E0
2.194300449E1,2.176053047E0,-1.557705253E-1,-1.250745654E0
2.195967043E1,1.747836828E0,-1.598938584E0,-1.621998668E0
2.197633636E1,7.259364128E-1,-1.628412843E0,-2.442084789E0
2.199300230E1,1.835648715E-1,6.117810607E-1,-2.524245977E0
2.200966824E1,1.534568667E0,2.007530689E0,-1.369024277E0
2.202633418E1,2.892750263E0,1.524107575E0,-2.950477004E-1
2.204300011E1,1.012813807E0,-1.137888312E0,-8.228348494E-1
2.205966605E1,-8.894191384E-1,-2.523558855E0,-1.493717074E0
2.207633199E1,-9.432515502E-1,-2.298607826E0,-1.390939116E0
2.209299793E1,-2.524398565E-1,-1.366428137E0,-9.256128669E-1
2.210966386E1,-2.258672565E-1,-8.952987194E-1,-7.386882305E-1
2.212632980E1,-8.321505189E-1,-1.117271662E0,-1.053741693E0
2.214299574E1,-1.063439250E0,-1.200043917E0,-1.416137218E0
2.215966168E1,-7.783944607E-1,-7.971021533E-1,-1.585881352E0
2.217632761E1,-6.304888129E-1,-6.801216006E-1,-1.480125308E0
2.219299355E1,-5.022072196E-1,-5.710822344E-1,-1.272736788E0
2.220965949E1,-6.105593443E-1,-6.754637361E-1,-1.208214164E0
2.222632543E1,-7.733548284E-1,-5.478693247E-1,-1.287779331E0
2.224299136E1,-6.648499370E-1,-3.392590284E-1,-1.336419463E0
2.225965730E1,-4.523453712E-1,-3.573558927E-1,-1.274034858E0
2.227632324E1,-5.715403557E-1,-6.853902936E-1,-1.122998595E0
2.229298918E1,-7.580831647E-1,-8.020654321E-1,-9.595922232E-1
2.230965511E1,-5.878809690E-1,-5.287034512E-1,-8.869756460E-1
2.232632105E1,-2.710712515E-2,-1.290451884E-1,-8.963677287E-1
2.234298699E1,6.814196706E-1,2.779434808E-2,-8.742238283E-1
2.235965293E1,9.280562997E-1,-2.366337478E-1,-7.424297929E-1
2.237631886E1,6.025417447E-1,-7.186824083E-1,-5.845975876E-1
2.239298480E1,2.467130125E-1,-7.241802216E-1,-4.885390997E-1
2.240965074E1,5.061014891E-1,-3.573558852E-2,-5.136609077E-1
2.242631668E1,1.107879639E0,5.526035428E-1,-6.110938787E-1
2.244298261E1,1.432248831E0,4.553996921E-1,-6.579777002E-1
2.245964855E1,1.007850528E0,-8.498656005E-2,-7.020363212E-1
2.247631449E1,2.223547846E-1,-1.682168841E-1,-7.841976881E-1
2.249298043E1,-3.004691005E-1,1.324812919E-1,-7.488438487E-1
2.250964636E1,-4.373028278E-1,7.239511013E-1,-8.081740737E-1
2.252631230E1,-2.130390853E-1,1.275409341E0,-9.812015295E-1
2.254297824E1,9.376774728E-2,1.329547167E0,-1.106734276E0
2.255964418E1,3.334558010E-1,8.777363300E-1,-1.053588986E0
2.257631011E1,5.851321220E-1,2.790888548E-1,-8.497129083E-1
2.259297605E1,8.810197115E-1,2.214384824E-2,-6.773726940E-1
2.260964199E1,1.214704633E0,4.642572254E-2,-4.754818678E-1
2.262630793E1,1.283808708E0,-8.078686893E-2,-3.840812445E-1
2.264297386E1,8.083268404E-1,-4.255436659E-1,-3.832412958E-1
2.265963980E1,2.925278842E-1,-6.411789656E-1,-4.331794977E-1
2.267630574E1,2.226602137E-1,-3.287216127E-1,-5.246564746E-1
2.269297168E1,2.724456787E-1,-2.496909723E-2,-5.839866996E-1
2.270963761E1,3.020726442E-1,-2.809977904E-2,-5.064832568E-1
2.272630355E1,3.061959743E-1,-2.241110206E-1,-3.376555145E-1
2.274296949E1,1.556178033E-1,-6.652317643E-1,-1.069776937E-1
2.275963543E1,8.674279600E-2,-9.718858600E-1,-4.734201822E-3
2.277630136E1,2.796997130E-1,-8.840740323E-1,-6.238456443E-2
2.279296730E1,4.734965563E-1,-5.545888543E-1,-2.272416949E-1
2.280963324E1,5.215258002E-1,-3.639990389E-1,-3.902662396E-1
2.282629918E1,1.973093301E-1,-6.176606417E-1,-4.928151667E-1
2.284296511E1,-2.208276242E-1,-1.347949505E0,-4.980838597E-1
2.285963105E1,-8.941533417E-2,-1.396513224E0,-5.836049318E-1
2.287629699E1,2.393826395E-1,-1.095815063E0,-6.972258091E-1
