"Time (s)","Linear Acceleration x (m/s^2)","Linear Acceleration y (m/s^2)","Linear Acceleration z (m/s^2)"
3.285198800E-2,0.000000000E0,0.000000000E0,0.000000000E0
4.951792500E-2,-3.944702148E-1,5.774002075E-1,1.036062241E-1
6.618386300E-2,9.716062546E-1,-6.198711395E-1,-6.259694099E-1
8.284980000E-2,1.008044481E0,-1.139978409E0,-1.546141624E0
9.951573800E-2,9.300608635E-1,-8.668193817E-1,-1.914638042E0
1.161816750E-1,1.242189288E0,-8.911099434E-1,-1.862880945E0
1.328476130E-1,1.212460876E0,-8.006563187E-1,-1.326761246E0
1.495135500E-1,9.903163910E-1,-4.138503075E-1,-4.416575432E-1
1.661794880E-1,1.311913729E0,-3.338718414E-1,5.350112915E-1
1.828454250E-1,9.465036392E-1,7.597970963E-2,8.823308945E-1
1.995113630E-1,-4.755830765E-2,1.289056301E0,1.726046562E0
2.161773000E-1,-6.391539574E-1,2.240571976E0,2.041772842E0
2.328432380E-1,7.760759592E-1,2.654971123E0,2.646618366E0
2.495091750E-1,2.952020645E0,2.790509701E0,2.156275272E0
2.661751130E-1,3.621438026E0,2.334269047E0,3.673272133E-1
2.828410500E-1,3.010110378E0,4.301329613E0,-2.090728045E0
2.995069880E-1,2.106096029E0,5.613712311E0,-4.318490982E0
3.161729250E-1,1.679030657E0,4.871836662E0,-3.512852907E0
3.328388630E-1,7.157706022E-1,2.939199448E0,-1.542255402E0
3.495048000E-1,-8.302640915E-1,-2.154521942E-1,-1.438860178E0
3.661707380E-1,-1.299075007E0,-3.666877270E0,-1.452099323E0
3.828366750E-1,-1.697878361E0,-7.086000443E0,-6.272153854E-1
3.995026130E-1,-1.584720135E0,-9.658109665E0,-1.307617426E0
4.161685500E-1,-1.488924265E0,-1.152581692E1,-2.001976728E0
4.328344880E-1,-1.883967876E0,-1.223032951E1,-1.466245413E0
4.495004250E-1,-4.898908615E0,-1.068962383E1,8.405203819E-1
4.661663630E-1,-1.095966816E1,-7.508666515E0,4.256884098E0
4.828323000E-1,-1.391069221E1,-6.000381470E0,5.883136272E0
4.994982380E-1,-1.145568657E1,-7.381030083E0,5.753468037E0
5.161641750E-1,-9.942699432E0,-8.315576553E0,2.780506134E0
5.328301130E-1,-1.202476501E1,-6.421306133E0,4.131209373E0
5.494960500E-1,-1.743944359E1,-2.460325241E0,9.894950867E0
5.661619880E-1,-1.871227646E1,7.986191511E-1,1.400437069E1
5.828279250E-1,-1.641761017E1,5.076557636E0,1.459183025E1
5.994938630E-1,-1.419732857E1,8.785827637E0,1.237066078E1
6.161598000E-1,-9.876478195E0,9.925047874E0,9.845254898E0
6.328257380E-1,-3.161474228E0,9.154397011E0,9.184024811E0
6.494916750E-1,3.123622417E0,7.119256020E0,9.457475662E0
6.661576130E-1,5.988517761E0,5.728205681E0,8.505226135E0
6.828235500E-1,6.498832226E0,6.213832378E0,7.922166824E0
6.994894880E-1,7.005867481E0,6.535833836E0,7.941152096E0
7.161554250E-1,6.853897572E0,8.121700287E0,6.056349754E0
7.328213630E-1,7.532290459E0,8.854736328E0,2.897958755E0
7.494873000E-1,9.938466072E0,7.192720890E0,2.655069828E-1
7.661532380E-1,1.235306072E1,5.614300728E0,-9.079439640E-1
7.828191750E-1,1.206886768E1,3.969322920E0,-1.745971203E0
7.994851130E-1,1.133948231E1,3.010423660E0,-1.404433012E0
8.161510500E-1,1.087775230E1,2.951669455E0,-6.397407055E-1
8.328169880E-1,9.651042938E0,3.249154091E0,-4.877223969E-1
8.494829250E-1,7.964938164E0,2.692656755E0,-1.175557375E0
8.661488630E-1,6.636042118E0,1.296410322E0,-1.505389690E0
8.828148000E-1,5.465321541E0,5.130653381E-1,3.269505501E-1
8.994807380E-1,2.629023552E0,8.295807838E-1,2.620023727E0
9.161466750E-1,-2.687543869E0,2.899017334E-1,3.370766640E0
9.328126130E-1,-7.196100712E0,-3.138774633E0,1.455296516E0
9.494785500E-1,-5.579934597E0,-6.461442947E0,-8.915033340E-1
9.661444880E-1,-3.929119587E0,-5.708182335E0,2.011551857E-1
9.828104250E-1,-1.034628677E1,-3.995926380E0,6.448850632E0
9.994763630E-1,-1.721741486E1,-3.011191130E0,1.318597889E1
1.016142300E0,-2.068185806E1,-3.195690632E0,1.466428185E1
1.032808238E0,-1.664517212E1,-5.035680771E0,1.022178173E1
1.049474175E0,-1.053573322E1,-6.837146759E0,5.345104218E0
1.066140113E0,-6.362209797E0,-8.404946327E0,2.570419312E0
1.082806050E0,-3.634047508E0,-8.885237694E0,3.721022606E-1
1.099471988E0,-1.451575279E0,-8.563436508E0,-2.146378279E0
1.116137925E0,1.032681942E0,-7.799388885E0,-4.458992958E0
1.132803863E0,2.641738892E0,-7.234745979E0,-5.192693233E0
1.149469800E0,1.368335724E0,-6.416169643E0,-4.457942009E0
1.166135738E0,-5.305013657E-1,-5.156970501E0,-3.495723248E0
1.182801675E0,-3.318963051E-1,-4.480539322E0,-3.066166639E0
1.199467613E0,1.091862679E0,-4.710869789E0,-4.578653336E0
1.216133550E0,2.569090605E0,-5.602491379E0,-6.500502110E0
1.232799488E0,1.982929707E0,-5.986133575E0,-6.964423656E0
1.249465425E0,2.511014938E-1,-5.168940544E0,-3.529143095E0
1.266131363E0,-1.668556213E0,-4.230448723E0,-1.191927433E0
1.282797300E0,-2.882618666E0,-3.369538069E0,-1.484034061E0
1.299463238E0,-2.424436092E0,-4.237007141E0,-4.385738373E-1
1.316129175E0,4.629468918E-2,-5.363493443E0,2.671962261E0
1.332795113E0,1.356786728E0,-3.877198219E0,3.442634106E0
1.349461050E0,-2.067939281E0,-2.446370125E0,-2.153532028E0
1.366126988E0,-4.376181126E0,1.281790257E0,-1.903336048E0
1.382792925E0,-7.884539604E0,2.439146519E0,3.964617729E0
1.399458863E0,-8.505741119E0,-7.664632797E-2,9.506962776E0
1.416124800E0,-5.895534992E0,-2.775421858E0,1.146532154E1
1.432790738E0,-1.419096470E0,-4.041875839E0,6.826038837E0
1.449456675E0,1.479856968E0,-4.204493523E0,3.979740143E-1
1.466122613E0,1.558218956E0,-3.792877197E0,-3.589816570E0
1.482788550E0,9.226533771E-1,-2.515873432E0,-4.054523945E0
1.499454488E0,-7.711398602E-1,-1.748025894E0,-9.508271217E-1
1.516120425E0,-1.517630339E0,-1.756886959E0,5.358676910E-1
1.532786363E0,-8.775925636E-1,-1.746991158E0,-4.628596306E-1
1.549452300E0,-2.560746670E-1,-2.085853100E0,-2.262039661E0
1.566118238E0,3.963096142E-1,-2.267123938E0,-3.045618057E0
1.582784175E0,1.010625482E0,-3.087088346E0,-3.524994850E0
1.599450113E0,1.088276863E0,-3.269155025E0,-2.061493397E0
1.616116050E0,1.826810837E-1,-3.244328260E0,-1.774267197E0
1.632781988E0,-3.259280920E-1,-2.646023035E0,-2.954102039E0
1.649447925E0,4.347681999E-3,-1.732466698E0,-3.022641659E0
1.666113863E0,3.478613496E-1,-1.559349060E0,-2.190283775E0
1.682779800E0,8.161365986E-2,-1.571191788E0,-2.927989960E-1
1.699445738E0,-5.962635875E-1,-1.284751415E0,1.699089527E0
1.716111675E0,-1.267662764E0,-9.394364357E-1,2.645572186E0
1.732777613E0,-4.603062868E-1,-4.140210152E-1,9.284162521E-2
1.749443550E0,1.092570066E0,3.504514694E-1,-2.175955296E0
1.766109488E0,1.675462484E0,1.295461655E-1,-1.821063042E0
1.782775425E0,1.952898502E0,-9.199919701E-1,1.011010170E0
1.799441363E0,1.245971918E0,-1.427019596E0,3.408136845E0
1.816107300E0,1.936332583E-1,-8.778305054E-1,4.009459496E0
1.832773238E0,-1.635876775E0,4.747862816E-1,2.842044353E0
1.849439175E0,-2.596279383E0,1.534443855E0,2.847038746E0
1.866105113E0,-2.786351681E0,1.127991199E0,3.560360432E0
1.882771050E0,-1.210098743E0,-6.135511398E-1,2.174129486E0
1.899436988E0,8.184205890E-1,-2.224551916E0,1.497615337E0
1.916102925E0,1.583147049E0,-2.846574545E0,1.190532207E0
1.932768863E0,1.179101467E0,-2.242647409E0,-1.579880714E-1
1.949434800E0,1.274821758E-1,-9.085121155E-1,-1.277877331E0
1.966100738E0,-5.767954588E-1,-1.583113670E-1,-1.904060841E0
1.982766675E0,-6.871011257E-1,-2.715911865E-1,-1.195544720E0
1.999432613E0,-6.854152679E-2,-1.118428230E0,7.325410843E-2
2.016098550E0,4.366629720E-1,-1.784894466E0,1.117362976E0
2.032764488E0,5.943023562E-1,-1.864080906E0,1.340232372E0
2.049430425E0,1.735545397E-1,-9.709796906E-1,3.421010971E-1
2.066096363E0,-2.810277939E-1,-2.529535294E-1,-7.187104225E-1
2.082762300E0,-4.547678232E-1,6.579113007E-2,-9.255166054E-1
2.099428238E0,-1.502305269E-1,-3.663830757E-1,-6.161880493E-1
2.116094175E0,7.976698875E-1,-1.325920582E0,4.925441742E-1
2.132760113E0,1.430477858E0,-1.862287998E0,1.760269642E0
2.149426050E0,1.149377942E0,-1.372248173E0,1.600018501E0
2.166091988E0,5.206028223E-1,-3.709421158E-1,5.591669083E-1
2.182757925E0,-5.707418919E-2,3.986048698E-1,-1.197853088E-1
2.199423863E0,-6.154322624E-1,5.774693489E-1,5.751328468E-1
2.216089800E0,-1.112566829E0,2.725591660E-1,1.838675022E0
2.232755738E0,-8.865419626E-1,-6.007347107E-1,2.522093773E0
2.249421675E0,-3.604260683E-1,-1.445344448E0,2.235598087E0
2.266087613E0,-1.667115688E-1,-1.507162571E0,7.323675156E-1
2.282753550E0,5.963742733E-2,-1.268218040E0,-1.242759228E0
2.299419488E0,3.735463023E-1,-1.358301640E0,-2.577202797E0
2.316085425E0,6.156755090E-1,-1.438757420E0,-3.229260445E0
2.332751363E0,5.126581788E-1,-1.410862923E0,-2.844323635E0
2.349417300E0,-4.195499420E-2,-1.140344620E0,-1.586758137E0
2.366083238E0,-1.527358294E-1,-5.933389664E-1,-1.626105309E0
2.382749175E0,-1.254765987E-1,7.758188248E-2,-1.953349590E0
2.399415113E0,-1.179306507E-1,6.016817093E-1,-1.344550610E0
2.416081050E0,-1.154394150E-1,6.659812927E-1,-1.440238953E-2
2.432746988E0,-1.967355013E-1,6.079716682E-1,1.378247261E0
2.449412925E0,-2.670363188E-1,4.339089394E-1,2.317306519E0
2.466078863E0,-5.905886889E-1,4.675517082E-1,2.885014534E0
2.482744800E0,-1.229918957E0,6.899981499E-1,3.810578346E0
2.499410738E0,-1.251761913E0,6.922011375E-1,2.475832939E0
2.516076675E0,-5.530458689E-1,5.758681297E-1,1.240158081E-2
2.532742613E0,4.323101044E-2,2.855200768E-1,-1.896170139E0
2.549408550E0,3.718947768E-1,5.861711502E-2,-2.668983459E0
2.566074488E0,1.247286797E-3,1.966977119E-1,-1.954740047E0
2.582740425E0,-5.473376513E-1,3.630261421E-1,-1.313883305E0
2.599406363E0,-7.035161257E-1,5.307173729E-1,-1.656971455E0
2.616072300E0,-4.433113337E-1,5.399980545E-1,-1.782396317E0
2.632738238E0,-3.451445103E-1,2.404532433E-1,-1.388332844E0
2.649404175E0,-5.174740553E-1,2.147870064E-1,-5.745062828E-1
2.666070113E0,-8.444483280E-1,1.441535950E-1,4.431848526E-1
2.682736050E0,-1.042880774E0,1.792964935E-1,1.123957634E0
2.699401988E0,-7.270976305E-1,3.141498566E-2,1.359071732E0
2.716067925E0,-5.293860435E-1,-1.200942993E-1,1.004496574E0
2.732733863E0,-4.762011766E-1,-1.040015221E-1,5.033655167E-1
2.749399800E0,-5.136960745E-1,-1.210427284E-1,2.758607864E-1
2.766065738E0,-4.262611866E-1,-9.336805344E-2,-1.223850250E-1
2.782731675E0,-3.563380241E-1,4.241323471E-2,-3.941221237E-1
2.799397613E0,-1.964789629E-1,1.002216339E-1,-5.361275673E-1
2.816063550E0,-2.185484171E-1,1.308331490E-1,-1.154527664E-1
2.832729488E0,-2.999719381E-1,1.254496574E-1,1.539649963E-1
2.849395425E0,-4.530311823E-1,8.318328857E-2,3.996725082E-1
2.866061363E0,-3.482105732E-1,5.932426453E-2,2.322254181E-1
2.882727300E0,-1.652245522E-1,8.836269379E-3,-1.045751572E-1
2.899393238E0,1.706364155E-1,-2.171278000E-1,-3.587646484E-1
2.916059175E0,4.185657501E-1,-3.748817444E-1,-5.017037392E-1
2.932725113E0,3.891561031E-1,-3.931522369E-1,-3.611822128E-1
2.949391050E0,3.417490721E-1,-2.576189041E-1,-5.904994011E-1
2.966056988E0,1.643922329E-1,-4.481315613E-3,-5.402941704E-1
2.982722925E0,9.809613228E-2,7.247447968E-3,-3.132896423E-1
2.999388863E0,-7.923483849E-2,-2.006244659E-2,2.760848999E-1
3.016054800E0,-1.938598156E-1,2.487611771E-2,7.597141266E-1
3.032720738E0,-2.090182304E-1,1.718282700E-1,6.429214478E-1
3.049386675E0,-7.995843887E-2,2.220468521E-1,3.757133484E-1
3.066052613E0,1.853084564E-2,2.715940475E-1,-2.001953125E-2
3.082718550E0,1.377320290E-2,2.977190018E-1,-3.481202126E-1
3.099384488E0,-1.634526253E-1,3.767771721E-1,-1.604404449E-1
3.116050425E0,-3.096232414E-1,3.359990120E-1,-1.902198792E-1
3.132716363E0,2.328395844E-3,3.135867119E-1,-3.977141380E-1
3.149382300E0,2.594965696E-1,2.337436676E-1,-4.439764023E-1
3.166048238E0,3.447097540E-1,2.123608589E-1,-4.135437012E-1
3.182714175E0,4.426558018E-1,1.173501015E-1,-3.487372398E-1
3.199380113E0,4.189895391E-1,-8.677911758E-2,-2.481937408E-1
3.216046050E0,3.791992664E-1,-1.493930817E-3,-4.408688545E-1
3.232711988E0,2.539741993E-1,1.849784851E-1,-8.015327454E-1
3.249377925E0,4.873204231E-2,2.688798904E-1,-1.275807858E0
3.266043863E0,-2.078282833E-1,3.904547691E-1,-1.201680660E0
3.282709800E0,-2.176413536E-1,3.374495506E-1,-1.027588844E0
3.299375738E0,9.404420853E-3,7.240533829E-2,-9.511818886E-1
3.316041675E0,2.561664581E-1,-1.068778038E-1,-7.924942970E-1
3.332707613E0,1.366343498E-1,-1.026296616E-1,-2.802314758E-1
3.349373550E0,3.803944588E-2,-4.916000366E-2,3.976106644E-1
3.366039488E0,3.438639641E-2,-1.293940544E-1,1.073126793E0
3.382705425E0,3.501274586E-1,-1.606755257E-1,8.487157822E-1
3.399371363E0,3.991203308E-1,-2.869749069E-2,5.778331757E-1
3.416037300E0,2.416312695E-1,2.096667290E-1,5.003414154E-1
3.432703238E0,1.390399933E-1,2.641625404E-1,9.282808304E-1
3.449369175E0,1.762385368E-1,1.809577942E-1,1.114392757E0
3.466035113E0,3.766849041E-1,1.774563789E-1,7.200007439E-1
3.482701050E0,2.170016766E-1,1.884264946E-1,3.805713654E-1
3.499366988E0,1.543760300E-1,2.249674797E-1,2.560629845E-1
3.516032925E0,2.961044312E-1,3.072466850E-1,5.005283356E-1
3.532698863E0,9.976339340E-2,3.877439499E-1,8.309636116E-1
3.549364800E0,1.102628708E-1,2.821717262E-1,9.303307533E-1
3.566030738E0,3.079736233E-1,1.275815964E-1,9.001989365E-1
3.582696675E0,2.803814411E-1,1.111316681E-1,1.069711208E0
3.599362613E0,1.153819561E-1,2.438421249E-1,1.244088650E0
3.616028550E0,5.406045914E-2,2.018666267E-1,1.220643044E0
3.632694488E0,2.634215355E-2,8.428144455E-2,1.065855026E0
3.649360425E0,1.377956867E-1,-7.708740234E-2,7.639651299E-1
3.666026363E0,-1.370580196E-1,-9.379529953E-2,6.939311028E-1
3.682692300E0,-4.672751427E-1,4.172992706E-2,4.055104256E-1
3.699358238E0,-6.037316322E-1,5.329227448E-2,3.650379181E-2
3.716024175E0,-5.509853363E-1,2.372741699E-3,-3.750891685E-1
3.732690113E0,-5.478007793E-1,-1.446981430E-1,-7.021274567E-1
3.749356050E0,-4.746015072E-1,-2.261824608E-1,-8.354668617E-1
3.766021988E0,-3.546016216E-1,-3.287229538E-1,-1.048049927E0
3.782687925E0,-2.865147591E-1,-3.695955276E-1,-1.044727802E0
3.799353863E0,-3.584780693E-1,-4.022960663E-1,-9.703412056E-1
3.816019800E0,-2.784552574E-1,-4.608464241E-1,-8.233432770E-1
3.832685738E0,-1.336722374E-1,-5.888700485E-1,-7.792005539E-1
3.849351675E0,-2.481484413E-2,-6.354970932E-1,-9.423894882E-1
3.866017613E0,7.167935371E-2,-7.275729179E-1,-1.153153896E0
3.882683550E0,1.657233238E-1,-6.982445717E-1,-9.657092094E-1
3.899349488E0,3.438332081E-1,-7.327861786E-1,-8.755846024E-1
3.916015425E0,5.015623569E-1,-6.321954727E-1,-7.482151985E-1
3.932681363E0,3.599264622E-1,-2.995867729E-1,-4.647412300E-1
3.949347300E0,4.989862442E-3,3.351402283E-2,-2.066478729E-1
3.966013238E0,-4.894900322E-2,1.076846123E-1,-1.735200882E-1
3.982679175E0,-9.275937080E-2,9.428834915E-2,2.781105042E-2
3.999345113E0,-1.622583866E-1,1.211371422E-1,4.845385551E-1
4.016011050E0,-4.132223129E-2,1.338944435E-1,6.340432167E-1
4.032676988E0,2.008578777E-1,1.795387268E-1,3.351144791E-1
4.049342925E0,1.191375256E-1,3.778119087E-1,1.968231201E-1
4.066008863E0,4.232335091E-2,4.639902115E-1,2.003746033E-1
4.082674800E0,9.561634064E-2,4.132127762E-1,1.745219231E-1
4.099340738E0,1.453375816E-2,4.684448242E-1,2.648835182E-1
4.116006675E0,-3.226923943E-2,4.569587708E-1,4.816832542E-1
4.132672613E0,1.303565502E-1,3.541393280E-1,3.180012703E-1
4.149338550E0,1.608386040E-1,4.565734863E-1,5.541324615E-2
4.166004488E0,1.242821217E-1,4.558343887E-1,-2.334685326E-1
4.182670425E0,1.350603104E-1,4.810996056E-1,-3.229727745E-1
4.199336363E0,1.635828018E-1,3.561420441E-1,-3.733868599E-1
4.216002300E0,1.814055443E-1,3.110909462E-1,-1.855807304E-1
4.232668238E0,3.360743523E-1,2.143754959E-1,-1.349153519E-1
4.249334175E0,5.037231445E-1,1.763987541E-1,-2.714715004E-1
4.266000113E0,5.891907215E-1,1.216754913E-1,-1.686096191E-1
4.282666050E0,5.116531849E-1,6.914806366E-2,2.283945084E-1
4.299331988E0,4.372267723E-1,7.430124283E-2,5.552811623E-1
4.315997925E0,3.496389389E-1,7.928895950E-2,6.181459427E-1
4.332663863E0,2.338113785E-1,1.638755798E-1,4.666676521E-1
4.349329800E0,1.397523880E-1,1.876702309E-1,4.394254684E-1
4.365995738E0,1.574349403E-1,9.141302109E-2,4.566087723E-1
4.382661675E0,2.304143906E-1,-1.481914520E-2,2.292542458E-1
4.399327613E0,3.024008274E-1,-2.419042587E-2,-1.718559265E-1
4.415993550E0,3.437716961E-1,3.128528595E-2,-3.721795082E-1
4.432659488E0,2.692813873E-1,3.640699387E-2,-3.820323944E-1
4.449325425E0,3.093526363E-1,8.434772491E-3,-2.868747711E-1
4.465991363E0,3.464794159E-1,-5.549430847E-3,-2.521934509E-1
4.482657300E0,1.443829536E-1,5.825376511E-2,6.200599670E-2
4.499323238E0,-7.309913635E-2,8.502626419E-2,2.146172523E-1
4.515989175E0,-1.720192432E-1,2.526040077E-1,-4.653930664E-4
4.532655113E0,-1.564378738E-1,3.276534081E-1,-3.851490021E-1
4.549321050E0,-5.567121506E-2,4.442887306E-1,-6.835551262E-1
4.565986988E0,1.182596684E-1,4.512963295E-1,-7.796249390E-1
4.582652925E0,8.298754692E-2,4.353375435E-1,-6.385383606E-1
4.599318863E0,1.185953617E-1,3.746237755E-1,-2.755351067E-1
4.615984800E0,2.981133461E-1,1.915397644E-1,3.634500504E-2
4.632650738E0,3.744857311E-1,1.399941444E-1,1.853723526E-1
4.649316675E0,3.524351120E-1,1.436457634E-1,-4.817867279E-2
4.665982613E0,1.580076218E-1,3.276462555E-1,-4.964094162E-1
4.682648550E0,-1.330668926E-1,5.253009796E-1,-5.331025124E-1
4.699314488E0,-1.896417141E-1,5.027313232E-1,-5.982627869E-1
4.715980425E0,-2.420258522E-1,4.585037231E-1,-3.057365417E-1
4.732646363E0,-2.398118973E-1,3.601727486E-1,4.713630676E-2
4.749312300E0,-3.702604771E-1,4.071092606E-1,5.103807449E-1
4.765978238E0,-3.343713284E-1,3.690037727E-1,5.690355301E-1
4.782644175E0,-1.944952011E-1,3.327031136E-1,2.049717903E-1
4.799310113E0,5.794239044E-2,3.093862534E-1,-2.395415306E-1
4.815976050E0,1.237347126E-1,2.279210091E-1,-3.665242195E-1
4.832641988E0,9.099245071E-3,2.377433777E-1,-4.464015961E-1
4.849307925E0,-3.008625507E-1,4.195513725E-1,-3.032426834E-1
4.865973863E0,-5.360302925E-1,4.472923279E-1,-1.216273308E-1
4.882639800E0,-6.089968681E-1,4.738492966E-1,7.990741730E-2
4.899305738E0,-3.690068722E-1,3.268280029E-1,-5.859184265E-2
4.915971675E0,-1.070895195E-1,1.802139282E-1,-3.475513458E-1
4.932637613E0,1.862549782E-2,1.342930794E-1,-6.366667747E-1
4.949303550E0,8.436679840E-3,1.815385818E-1,-6.916527748E-1
4.965969488E0,1.180005074E-2,2.169041634E-1,-4.966382980E-1
4.982635425E0,1.937556267E-2,2.233119011E-1,-1.204619408E-1
4.999301363E0,5.630779266E-2,1.384019852E-1,3.381690979E-1
5.015967300E0,1.451518536E-1,1.525936127E-1,3.784852028E-1
5.032633238E0,3.568458557E-1,1.351151466E-1,8.465242386E-2
5.049299175E0,8.844513893E-1,1.169013977E-1,-6.969532967E-1
5.065965113E0,1.611630559E0,1.593527794E-1,-1.428160191E0
5.082631050E0,1.950852513E0,6.241121292E-1,-1.914232254E0
5.099296988E0,1.670822024E0,8.436803818E-1,-2.224391937E0
5.115962925E0,1.309099913E0,9.489259720E-1,-2.151661873E0
5.132628863E0,1.173470736E0,1.012938499E0,-1.696079731E0
5.149294800E0,2.196642399E0,1.010384083E0,-1.450951099E0
5.165960738E0,3.798160076E0,1.039632320E0,-2.500130653E0
5.182626675E0,4.812748432E0,1.361038685E0,-3.967616796E0
5.199292613E0,4.853215218E0,2.022343159E0,-4.234542847E0
5.215958550E0,4.010676861E0,2.466866493E0,-2.324989319E0
5.232624488E0,2.285431385E0,3.303321362E0,4.935269356E-1
5.249290425E0,6.719574928E-1,4.435011387E0,1.765453815E0
5.265956363E0,7.401945591E-1,5.377616882E0,3.450517654E-1
5.282622300E0,4.355511665E-1,5.266542912E0,-1.225013733E-1
5.299288238E0,-4.735052586E-1,4.903988361E0,1.636393070E0
5.315954175E0,-5.492165089E-1,3.459932804E0,2.718894482E0
5.332620113E0,6.771090031E-1,1.450061798E0,2.529128075E0
5.349286050E0,2.222698689E0,-5.926218033E-1,1.246615887E0
5.365951988E0,3.870146513E0,-2.863584757E0,-1.049711227E0
5.382617925E0,5.251362801E0,-4.760921478E0,-3.227666616E0
5.399283863E0,5.091229916E0,-6.059549809E0,-4.677454472E0
5.415949800E0,4.123682976E0,-7.481242180E0,-5.493714333E0
5.432615738E0,4.265616894E0,-8.261459351E0,-5.802311897E0
5.449281675E0,2.830324173E0,-9.164276123E0,-5.740089417E0
5.465947613E0,1.261457682E0,-9.810111046E0,-5.456858158E0
5.482613550E0,5.026435852E-2,-1.102744865E1,-5.770602703E0
5.499279488E0,-1.081183434E0,-1.141549873E1,-6.364814758E0
5.515945425E0,-2.065345287E0,-1.137158203E1,-6.564206600E0
5.532611363E0,-6.223850250E0,-9.146865845E0,-4.775437355E0
5.549277300E0,-1.328514862E1,-5.519680977E0,-1.740728855E0
5.565943238E0,-1.777468109E1,-2.309133053E0,1.755080223E-1
5.582609175E0,-1.897285461E1,1.192578554E0,2.832339525E0
5.599275113E0,-2.140239716E1,6.371592522E0,5.136516571E0
5.615941050E0,-2.500012589E1,1.110965729E1,7.097739220E0
5.632606988E0,-2.417588806E1,1.314814281E1,9.127986908E0
5.649272925E0,-1.915895844E1,1.329768944E1,1.032829094E1
5.665938863E0,-1.421777534E1,1.257780838E1,1.022963905E1
5.682604800E0,-9.203875542E0,1.216316891E1,8.699997902E0
5.699270738E0,-4.607000351E0,1.187382889E1,8.036174774E0
5.715936675E0,-1.834754944E0,1.182652950E1,9.265068054E0
5.732602613E0,1.477909088E-1,1.190368271E1,1.004529285E1
5.749268550E0,3.364812851E0,1.115643024E1,8.008191109E0
5.765934488E0,6.563652992E0,1.073532104E1,5.245994568E0
5.782600425E0,9.774724960E0,1.033498669E1,3.258686543E0
5.799266363E0,1.183163166E1,1.000032806E1,2.951989412E0
5.815932300E0,1.250992203E1,9.134109497E0,2.773121834E0
5.832598238E0,1.224853706E1,7.575620651E0,1.889823198E0
5.849264175E0,1.212941933E1,5.533216476E0,6.210112572E-1
5.865930113E0,1.236334991E1,3.496512890E0,-1.877318621E-1
5.882596050E0,1.185633469E1,1.847635031E0,-2.558530569E-1
5.899261988E0,9.763084412E0,1.618816137E0,7.827045918E-1
5.915927925E0,7.501665592E0,1.629808664E0,1.237769842E0
5.932593863E0,5.486538887E0,1.261929512E0,5.671012402E-1
5.949259800E0,2.598792076E0,2.023808956E0,7.562727928E-1
5.965925738E0,-1.828943729E0,5.896863461E0,3.732524633E0
5.982591675E0,-7.354191780E0,9.825266838E0,6.104036331E0
5.999257613E0,-9.802560806E0,1.135167122E1,5.374477386E0
6.015923550E0,-1.182111740E1,1.203809547E1,5.141502857E0
6.032589488E0,-1.641597366E1,1.250893211E1,7.682765484E0
6.049255425E0,-2.018254852E1,9.511976242E0,1.019592476E1
6.065921363E0,-2.062277794E1,5.006468296E0,9.503491402E0
6.082587300E0,-1.793192291E1,-7.456722260E-1,6.261989594E0
6.099253238E0,-1.109817314E1,-6.392041206E0,2.441633463E0
6.115919175E0,-2.768771172E0,-1.073181152E1,-2.221493721E-1
6.132585113E0,2.660022974E0,-1.348152733E1,-1.541298866E0
6.149251050E0,4.893209934E0,-1.528359985E1,-6.579624414E-1
6.165916988E0,4.739090919E0,-1.625960922E1,5.593214035E-1
6.182582925E0,3.412916183E0,-1.650328445E1,1.241672635E0
6.199248863E0,3.351781368E0,-1.637916565E1,8.367626667E-1
6.215914800E0,5.341351986E0,-1.611561584E1,-2.637150586E-1
6.232580738E0,7.533157349E0,-1.587865067E1,-1.375033379E0
6.249246675E0,8.364653587E0,-1.574402332E1,-2.694198608E0
6.265912613E0,7.512758732E0,-1.515172386E1,-4.219501019E0
6.282578550E0,5.367673874E0,-1.371601868E1,-4.624405861E0
6.299244488E0,2.647019863E0,-1.098272705E1,-4.388008118E0
6.315910425E0,-1.719243050E0,-7.737878323E0,-3.785403728E0
6.332576363E0,-6.058057785E0,-4.404914856E0,-2.894469261E0
6.349242300E0,-6.739068985E0,-1.593093157E0,-1.809111595E0
6.365908238E0,-5.071309566E0,-4.926846027E-1,-7.000176907E-1
6.382574175E0,-6.896462440E0,2.893770218E0,1.941060066E0
6.399240113E0,-1.503701878E1,9.456076622E0,7.185070992E0
6.415906050E0,-2.420308304E1,1.542130184E1,1.203662014E1
6.432571988E0,-2.401920319E1,1.543331146E1,1.135276031E1
6.449237925E0,-1.841283798E1,1.106931019E1,7.079446793E0
6.465903863E0,-9.214408875E0,7.221854210E0,4.633010864E0
6.482569800E0,-1.893447876E0,5.234836578E0,4.022504330E0
6.499235738E0,3.008772373E0,2.861548662E0,2.573705435E0
6.515901675E0,6.680984497E0,1.842166424E0,2.854386091E0
6.532567613E0,8.729201317E0,1.355345964E0,3.080361366E0
6.549233550E0,9.696277618E0,1.457660437E0,2.621732235E0
6.565899488E0,9.470505714E0,2.071431875E0,1.724238396E0
6.582565425E0,8.487049103E0,2.865798712E0,7.072961330E-1
6.599231363E0,8.235116959E0,3.989696741E0,-3.945984840E-1
6.615897300E0,7.753970623E0,3.095960140E0,-2.403927803E0
6.632563238E0,8.513351440E0,1.548230171E0,-1.944879532E0
6.649229175E0,7.912333012E0,1.184117317E0,1.550555229E-2
6.665895113E0,7.103182316E0,-5.441732407E-1,2.669088840E-1
6.682561050E0,7.198166370E0,-1.189966202E0,-6.256396770E-1
6.699226988E0,7.414129257E0,-1.435663223E0,-9.096968174E-1
6.715892925E0,5.719486237E0,-1.583433151E-1,1.463299751E0
6.732558863E0,2.651844025E-1,2.675379753E0,5.379224300E0
6.749224800E0,-3.290678501E0,5.765136242E0,7.666970253E0
6.765890738E0,-2.982945919E0,7.545018673E0,5.649333477E0
6.782556675E0,-1.529219151E0,8.625888824E0,4.566040993E0
6.799222613E0,-3.524667263E0,7.836381912E0,7.640377522E0
6.815888550E0,-8.039419174E0,7.544551849E0,1.254249191E1
6.832554488E0,-1.295256805E1,6.863405228E0,1.353398037E1
6.849220425E0,-1.424567032E1,4.323974609E0,1.143950081E1
6.865886363E0,-1.139892864E1,2.773199081E-1,7.821842670E0
6.882552300E0,-6.189375877E0,-4.138336658E0,4.197515011E0
6.899218238E0,-2.254412413E0,-7.929799557E0,1.123145103E0
6.915884175E0,1.036388874E-1,-1.135319138E1,-1.071651220E0
6.932550113E0,1.990425587E0,-1.355587387E1,-2.336002111E0
6.949216050E0,2.571855783E0,-1.508967590E1,-3.165507793E0
6.965881988E0,1.163998127E0,-1.533920670E1,-3.497639656E0
6.982547925E0,-1.356091499E-1,-1.427313423E1,-3.987295866E0
6.999213863E0,1.248145103E-1,-1.364261246E1,-4.913025379E0
7.015879800E0,1.396184683E0,-1.406353378E1,-6.322386742E0
7.032545738E0,2.498751402E0,-1.464668083E1,-7.249230385E0
7.049211675E0,2.621000767E0,-1.430378437E1,-7.277338982E0
7.065877613E0,2.300974607E0,-1.304861927E1,-7.146193027E0
7.082543550E0,1.093060970E0,-1.188879967E1,-6.723129272E0
7.099209488E0,-2.243858814E0,-9.198990822E0,-5.433854103E0
7.115875425E0,-7.081358433E0,-4.529274464E0,-2.291737080E0
7.132541363E0,-9.545050621E0,-4.673142433E-1,2.216473103E0
7.149207300E0,-8.743546486E0,3.541895866E0,4.733501911E0
7.165873238E0,-8.829477310E0,7.882140636E0,3.975997448E0
7.182539175E0,-1.196120930E1,1.276453018E1,6.558542252E0
7.199205113E0,-1.495129204E1,1.486499596E1,1.092870903E1
7.215871050E0,-1.505444336E1,1.457445717E1,1.052074146E1
7.232536988E0,-1.167348862E1,1.112020016E1,8.581675529E0
7.249202925E0,-6.275572777E0,6.554600716E0,7.836876869E0
7.265868863E0,-7.599534988E-1,3.141421795E0,5.886737347E0
7.282534800E0,2.820066929E0,1.796026707E0,4.077614784E0
7.299200738E0,5.369979858E0,1.459237576E0,2.861775875E0
7.315866675E0,7.155589104E0,1.100275993E0,2.371364594E0
7.332532613E0,8.428282738E0,9.684641361E-1,2.749908686E0
7.349198550E0,8.271355629E0,2.034771204E0,2.655422688E0
7.365864488E0,8.390261650E0,2.218357086E0,2.366215229E0
7.382530425E0,8.803266525E0,1.918264627E0,1.653736353E0
7.399196363E0,8.902509689E0,6.305193901E-1,6.158645153E-1
7.415862300E0,1.012810421E1,-1.299465418E0,-5.972504616E-2
7.432528238E0,1.041482925E1,-2.638777018E0,4.053378105E-2
7.449194175E0,9.224950790E0,-2.391866684E0,2.904448509E-1
7.465860113E0,7.277499676E0,-1.654770374E0,-4.179136753E-1
7.482526050E0,5.136577606E0,-9.999070168E-1,-1.308780193E0
7.499191988E0,3.746613264E0,9.282078743E-1,1.284094810E0
7.515857925E0,6.789302826E-2,5.337260246E0,5.613083839E0
7.532523863E0,-3.041900635E0,1.033673286E1,8.401916504E0
7.549189800E0,-4.845821857E0,1.214277649E1,6.425006866E0
7.565855738E0,-1.201688099E1,1.485913849E1,8.729042053E0
7.582521675E0,-1.895732307E1,1.589457798E1,1.281447506E1
7.599187613E0,-1.989686012E1,1.238077354E1,1.302291679E1
7.615853550E0,-1.626498985E1,5.755575180E0,1.095429802E1
7.632519488E0,-1.005445957E1,-7.974901199E-1,7.400140762E0
7.649185425E0,-3.918652534E0,-6.174806118E0,3.185127735E0
7.665851363E0,-1.045012951E0,-9.597672462E0,-5.814096928E-1
7.682517300E0,2.193361998E0,-1.320418930E1,-3.564645529E0
7.699183238E0,4.976507664E0,-1.470284081E1,-4.037628651E0
7.715849175E0,5.597283363E0,-1.595774078E1,-3.228924990E0
7.732515113E0,5.321261406E0,-1.580024147E1,-3.029119968E0
7.749181050E0,4.867522717E0,-1.643739700E1,-3.691938639E0
7.765846988E0,5.901570797E0,-1.598516083E1,-4.992465019E0
7.782512925E0,5.046389103E0,-1.530710602E1,-5.531599998E0
7.799178863E0,5.210181236E0,-1.483953667E1,-5.219799519E0
7.815844800E0,4.995776653E0,-1.373626328E1,-5.320008278E0
7.832510738E0,2.927818775E0,-1.235939789E1,-4.329939365E0
7.849176675E0,9.025859833E-2,-9.407019615E0,-4.322338104E0
7.865842613E0,-4.102250576E0,-5.797817707E0,-4.160928249E0
7.882508550E0,-7.677441597E0,-3.111135721E0,-3.124876261E0
7.899174488E0,-6.962811470E0,-2.893302679E0,-1.272916317E0
7.915840425E0,-6.714031696E0,1.873170853E0,2.727710009E0
7.932506363E0,-1.231674957E1,9.196599960E0,6.232746124E0
7.949172300E0,-1.924745178E1,1.261089325E1,9.437782288E0
7.965838238E0,-2.147245979E1,1.431428146E1,1.218795300E1
7.982504175E0,-1.753528214E1,1.229443645E1,1.328017712E1
7.999170113E0,-1.070410824E1,8.767498016E0,1.117352867E1
8.015836050E0,-4.392672539E0,5.132894993E0,8.332704544E0
8.032501988E0,1.622272015E0,2.399517536E0,4.980622292E0
8.049167925E0,6.160202026E0,9.440484047E-1,2.010162354E0
8.065833863E0,8.410359383E0,5.001544952E-3,2.034347057E-1
8.082499800E0,8.586048126E0,-1.055431366E-2,-3.461689949E-1
8.099165738E0,8.470656395E0,4.934177399E-1,-6.872221231E-1
8.115831675E0,9.717893600E0,6.619539261E-1,-4.024775028E-1
8.132497613E0,1.069483566E1,1.277494431E-2,5.167504549E-1
8.149163550E0,1.140664768E1,-2.937462330E-1,1.911834121E0
8.165829488E0,1.122450924E1,4.348869324E-1,3.214530468E0
8.182495425E0,9.362404823E0,1.475051880E0,4.518785954E0
8.199161363E0,8.293193817E0,8.160734177E-1,4.694009304E0
8.215827300E0,9.062617302E0,8.063745499E-1,2.552353621E0
8.232493238E0,9.055554390E0,2.132070065E0,1.689793110E0
8.249159175E0,5.658534050E0,3.538162231E0,4.510281086E0
8.265825113E0,-8.897490501E-1,6.440183640E0,5.629828453E0
8.282491050E0,-7.063248158E0,1.259210777E1,6.234302521E0
8.299156988E0,-1.201741600E1,1.552600479E1,8.184741974E0
8.315822925E0,-1.409757614E1,1.404328156E1,1.082331181E1
8.332488863E0,-1.673777580E1,1.072834110E1,1.130445862E1
8.349154800E0,-1.695425797E1,6.408231735E0,8.180604935E0
8.365820738E0,-1.451235962E1,3.644226551E0,2.775864601E0
8.382486675E0,-1.169216633E1,-4.052586555E-1,-1.584317684E-1
8.399152613E0,-8.094138145E0,-4.306807995E0,1.818506718E-1
8.415818550E0,-4.295077801E0,-8.365365028E0,5.477383137E-1
8.432484488E0,-3.407707214E-1,-1.310850334E1,-4.802141190E-1
8.449150425E0,3.616555214E0,-1.604193497E1,-1.728650808E0
8.465816363E0,6.917128086E0,-1.759706116E1,-1.925476789E0
8.482482300E0,9.188322067E0,-1.809934425E1,-2.074285984E0
8.499148238E0,8.562780380E0,-1.829956818E1,-3.278084755E0
8.515814175E0,8.050834656E0,-1.810974503E1,-4.563489914E0
8.532480113E0,8.805746078E0,-1.718723679E1,-5.470221519E0
8.549146050E0,8.857885361E0,-1.631596375E1,-5.412434101E0
8.565811988E0,7.115604877E0,-1.596557236E1,-4.219748020E0
8.582477925E0,4.004416466E0,-1.426492214E1,-2.342179298E0
8.599143863E0,2.161264420E-1,-1.083190536E1,-1.198276758E0
8.615809800E0,-5.401287079E0,-6.150978565E0,-1.163500309E0
8.632475738E0,-1.192602158E1,-1.558885574E-1,-3.413848877E0
8.649141675E0,-1.818655396E1,8.742515564E0,-3.316587925E0
8.665807613E0,-2.712975311E1,1.589549637E1,9.995769262E-1
8.682473550E0,-3.254844284E1,1.691711807E1,9.086580276E0
8.699139488E0,-2.838250351E1,1.542024994E1,1.233465195E1
8.715805425E0,-1.779098320E1,1.234190178E1,9.498074532E0
8.732471363E0,-7.644206047E0,7.758168697E0,5.939480305E0
8.749137300E0,1.709709167E-1,4.168124676E0,2.647652149E0
8.765803238E0,6.473122120E0,1.808759689E0,3.485071659E-1
8.782469175E0,1.007538891E1,2.469401360E-1,1.836069822E-1
8.799135113E0,1.149136543E1,-3.998589516E-1,9.665894508E-1
8.815801050E0,1.263153553E1,-1.294927597E-1,1.324090719E0
8.832466988E0,1.276607513E1,1.078647137E0,1.579336643E0
8.849132925E0,1.147063351E1,2.135516167E0,2.537557840E0
8.865798863E0,1.067475128E1,2.237154007E0,2.517013788E0
8.882464800E0,1.163958931E1,7.615756989E-1,8.074860573E-1
8.899130738E0,1.223959541E1,-1.308813334E0,-5.633739233E-1
8.915796675E0,1.045037270E1,-1.324027300E0,-6.359747648E-1
8.932462613E0,5.935687542E0,1.073350906E0,-3.014583588E-1
8.949128550E0,1.718988419E-1,4.253596306E0,-3.577765226E-1
8.965794488E0,-4.770998955E0,5.726013660E0,2.091455460E-2
8.982460425E0,-6.536580563E0,6.392156124E0,2.900799990E0
8.999126363E0,-8.227792740E0,5.775985718E0,5.226121902E0
9.015792300E0,-1.218536949E1,5.763062000E0,5.504012108E0
9.032458238E0,-1.479112434E1,5.640434742E0,4.634823799E0
9.049124175E0,-1.349835968E1,3.058495998E0,2.206961155E0
9.065790113E0,-8.918233871E0,6.297302246E-2,2.296741247E0
9.082456050E0,-3.777637005E0,-3.127404451E0,4.057894707E0
9.099121988E0,-6.498670578E-2,-6.026876450E0,4.175867081E0
9.115787925E0,2.452312469E0,-8.041995049E0,2.022576809E0
9.132453863E0,4.609882355E0,-1.053536320E1,-6.361064911E-1
9.149119800E0,5.392419815E0,-1.228106117E1,-2.285926819E0
9.165785738E0,5.440404415E0,-1.199102974E1,-3.569587231E0
9.182451675E0,5.738248825E0,-1.189139557E1,-4.886267185E0
9.199117613E0,5.541889191E0,-1.248596001E1,-5.705120564E0
9.215783550E0,4.994879723E0,-1.302697182E1,-6.126720428E0
9.232449488E0,5.478998184E0,-1.237713051E1,-6.003867149E0
9.249115425E0,6.527927876E0,-1.260739326E1,-5.601214886E0
9.265781363E0,4.550329208E0,-1.121162224E1,-4.403861046E0
9.282447300E0,-6.569252014E-1,-9.329169273E0,-6.118528366E0
9.299113238E0,-6.987574577E0,-4.993519783E0,-7.663337708E0
9.315779175E0,-1.596599388E1,2.080901146E0,-1.126535535E0
9.332445113E0,-2.405502319E1,5.074435711E0,1.052429199E1
9.349111050E0,-2.333452225E1,2.950974226E0,1.391410065E1
9.365776988E0,-1.447484112E1,2.874613762E0,7.947241783E0
9.382442925E0,-5.552469254E0,2.664629936E0,3.700892210E0
9.399108863E0,3.686809540E-1,1.084076405E0,2.563608408E0
9.415774800E0,3.685314178E0,-4.884376526E-1,2.620189905E0
9.432440738E0,6.441395760E0,-2.163640738E0,2.351250172E0
9.449106675E0,7.387371540E0,-2.610253811E0,2.181499481E0
9.465772613E0,6.897195816E0,-1.954462767E0,1.169305563E0
9.482438550E0,8.202193260E0,-1.594521999E0,-1.629841685E0
9.499104488E0,1.012407303E1,-1.096599102E-1,-3.238338470E0
9.515770425E0,9.647571564E0,2.116828442E0,-2.635883808E0
9.532436363E0,9.180619240E0,2.265345097E0,-3.512913704E0
9.549102300E0,8.971798897E0,1.196116447E0,-2.710660219E0
9.565768238E0,7.302140713E0,3.038636684E0,9.073872566E-1
9.582434175E0,9.889640808E-1,7.370549679E0,6.388570309E0
9.599100113E0,-2.319293976E0,7.576657295E0,6.736639977E0
9.615766050E0,-4.513786316E0,5.914460659E0,2.921640396E0
9.632431988E0,-1.573323441E1,6.464281082E0,6.242133617E0
9.649097925E0,-3.200808334E1,9.266675949E0,1.304243565E1
9.665763863E0,-3.393084717E1,2.167026043E0,1.264334488E1
9.682429800E0,-2.138525391E1,-6.294666290E0,8.464049339E0
9.699095738E0,-7.866921902E0,-1.176595306E1,3.017874718E0
9.715761675E0,-2.261714935E-1,-1.168949604E1,-1.431630254E0
9.732427613E0,1.942028522E0,-1.127482986E1,-3.323850155E0
9.749093550E0,-2.784471512E-1,-1.061367798E1,-4.021370411E0
9.765759488E0,-2.793286324E0,-9.572089195E0,-6.459285736E0
9.782425425E0,-2.084454536E0,-1.000263023E1,-1.011630249E1
9.799091363E0,1.097898960E0,-1.263559723E1,-1.129032803E1
9.815757300E0,1.084553242E0,-1.279006386E1,-8.397371292E0
9.832423238E0,-3.235149860E0,-1.181828880E1,-3.732589006E0
9.849089175E0,-9.273645401E0,-1.005919552E1,-1.478369594E0
9.865755113E0,-1.073271561E1,-8.735978127E0,-2.200192213E0
9.882421050E0,-3.821140289E0,-9.065574646E0,-3.062233210E0
9.899086988E0,3.129040241E0,-9.142260551E0,-3.786288500E0
9.915752925E0,4.450776577E0,-9.559887886E0,-5.222518921E0
9.932418863E0,3.249685764E0,-1.077293968E1,-6.911270142E0
9.949084800E0,1.613776445E0,-1.184430313E1,-7.369552612E0
9.965750738E0,-5.479431152E-2,-1.015110207E1,-4.004616261E0
9.982416675E0,-2.997062206E0,-5.228842258E0,-3.046164513E-1
9.999082613E0,-5.856011391E0,-2.945405722E0,-2.372376919E0
1.001574855E1,-4.693764687E0,-4.139964581E0,-9.265354156E0
1.003241449E1,1.132235527E-1,-2.880503416E0,-1.038086319E1
1.004908043E1,4.919319153E0,1.125414371E0,-3.234688997E0
1.006574636E1,4.770202160E0,5.621111393E0,-3.151538372E0
1.008241230E1,-6.088309765E0,9.299043655E0,-9.823160172E-1
1.009907824E1,-1.558598518E1,1.117701530E1,9.382932663E0
1.011574418E1,-1.721621513E1,1.510350990E1,1.327048588E1
1.013241011E1,-1.517986679E1,1.949143600E1,1.457762623E1
1.014907605E1,-1.331309891E1,1.993333054E1,1.332703209E1
1.016574199E1,-9.681179047E0,1.757077789E1,5.714308739E0
1.018240793E1,-5.981238842E0,1.649769783E1,-1.742053509E0
1.019907386E1,-8.062820435E0,1.912527847E1,-1.397323132E0
1.021573980E1,-1.482708454E1,2.033267403E1,5.482426643E0
1.023240574E1,-1.695652199E1,1.511969185E1,6.414628029E0
1.024907168E1,-1.165518856E1,6.044394493E0,1.013523102E0
1.026573761E1,-5.642883778E0,-2.951996326E-1,-2.442836761E0
1.028240355E1,-3.349751949E0,-3.698199749E0,-4.572480202E0
1.029906949E1,-2.058619499E0,-6.595978260E0,-6.018453121E0
1.031573543E1,1.777334929E0,-9.516377449E0,-5.967511177E0
1.033240136E1,5.734902382E0,-1.376213646E1,-7.471609116E0
1.034906730E1,3.992508888E0,-1.701119041E1,-1.161227608E1
1.036573324E1,-1.703889370E0,-1.411931229E1,-1.340387917E1
1.038239918E1,-5.378659725E0,-1.274242401E1,-1.021058464E1
1.039906511E1,-4.211201191E0,-1.228914261E1,1.450886726E-1
1.041573105E1,-6.815605164E-1,-1.372964096E1,6.503847599E0
1.043239699E1,1.967406273E0,-1.668709946E1,4.031363487E0
1.044906292E1,6.620106697E-1,-1.631884384E1,-1.937577844E0
1.046572886E1,-6.851535797E0,-1.395888138E1,-4.086634159E0
1.048239480E1,-1.477783012E1,-1.054852295E1,1.290656805E0
1.049906074E1,-1.607757187E1,-9.982210159E0,1.162189388E1
1.051572668E1,-1.112547684E1,-1.105581474E1,1.098192120E1
1.053239261E1,-6.844695091E0,-1.093734360E1,1.893152475E0
1.054905855E1,-8.060092926E0,-9.422214508E0,-2.426688671E0
1.056572449E1,-1.193995380E1,-6.671321869E0,-8.972959518E-1
1.058239042E1,-1.476880741E1,-3.053084612E0,5.099342346E0
1.059905636E1,-1.481149387E1,-5.676093102E-1,7.242838860E0
1.061572230E1,-1.265306759E1,1.929621696E0,5.945135593E0
1.063238824E1,-1.113647079E1,6.811904430E0,7.866015911E0
1.064905418E1,-1.142534351E1,1.258663082E1,1.352347183E1
1.066572011E1,-1.232879448E1,1.548608112E1,1.562001038E1
1.068238605E1,-1.157105160E1,1.603594589E1,1.363893604E1
1.069905199E1,-5.866778374E0,1.562818050E1,9.965245247E0
1.071571792E1,3.297691822E0,1.545668221E1,8.251543999E0
1.073238386E1,1.290098381E1,1.432008839E1,1.060776997E1
1.074904980E1,1.742219353E1,1.319126225E1,1.186832142E1
1.076571574E1,1.700152779E1,1.410227203E1,1.068453407E1
1.078238168E1,1.522347260E1,1.345325851E1,8.064640045E0
1.079904761E1,1.372856140E1,1.142086220E1,4.019803524E0
1.081571355E1,1.187158680E1,9.295794487E0,4.103610516E-1
1.083237949E1,7.997052670E0,8.957515717E0,-9.730359316E-1
1.084904542E1,5.043651104E0,8.239736557E0,-1.461230159E0
1.086571136E1,3.724274635E0,6.070614815E0,-1.412403226E0
1.088237730E1,1.233133316E0,6.263930798E0,5.032968521E0
1.089904324E1,-2.192774773E0,5.392808914E0,7.658212185E0
1.091570918E1,-7.759215355E0,6.524092197E0,3.918203831E0
1.093237511E1,-1.358247566E1,8.236730576E0,5.804347992E-2
1.094904105E1,-1.593437767E1,8.294870377E0,1.588021278E0
1.096570699E1,-1.536674881E1,7.870351791E0,5.606698990E0
1.098237292E1,-1.879511642E1,5.000588894E0,4.623277187E0
1.099903886E1,-2.129672432E1,5.328273773E-2,1.225235462E0
1.101570480E1,-1.944967461E1,-3.916522980E0,-1.742510319E0
1.103237074E1,-1.430209732E1,-7.730911732E0,-2.956456661E0
1.104903668E1,-8.087632179E0,-1.063033104E1,-1.960317850E0
1.106570261E1,-1.849700928E0,-1.329650116E1,-1.017321825E0
1.108236855E1,2.355660439E0,-1.577649117E1,-1.287386298E0
1.109903449E1,3.514323235E0,-1.716061020E1,-8.375287056E-1
1.111570042E1,4.201927185E0,-1.955454636E1,-4.801977873E-1
1.113236636E1,4.535608292E0,-2.035459900E1,-1.422896743E0
1.114903230E1,4.846359730E0,-1.881093979E1,-2.819989681E0
1.116569824E1,4.031002998E0,-1.674710655E1,-4.977625370E0
1.118236418E1,4.546014786E0,-1.571108437E1,-6.609815598E0
1.119903011E1,5.293995857E0,-1.502568150E1,-7.214321613E0
1.121569605E1,4.505481720E0,-1.411815548E1,-6.294723511E0
1.123236199E1,2.635389805E0,-1.224548912E1,-4.634773731E0
1.124902792E1,-2.246799469E-1,-9.737457275E0,-2.977564573E0
1.126569386E1,-2.315782547E0,-8.585957527E0,-2.773903847E0
1.128235980E1,-1.959572792E0,-8.650499344E0,-3.583395958E0
1.129902574E1,-2.491982460E0,-7.309715271E0,-3.903306484E0
1.131569168E1,-6.828991890E0,-4.238317490E0,-2.136333466E0
1.133235761E1,-1.592565155E1,4.537484169E0,5.737668514E0
1.134902355E1,-2.689774704E1,1.347042179E1,1.430301666E1
1.136568949E1,-3.181104660E1,1.752415085E1,1.690814209E1
1.138235542E1,-2.861151695E1,1.902529526E1,1.465032482E1
1.139902136E1,-1.912020493E1,1.517338562E1,1.084494591E1
1.141568730E1,-7.906861305E0,8.702092171E0,6.558994293E0
1.143235324E1,1.155914307E0,4.100926399E0,2.517063141E0
1.144901918E1,7.298398018E0,1.989954472E0,1.532520056E-1
1.146568511E1,1.023021030E1,1.193055153E0,1.867791414E-1
1.148235105E1,1.134963989E1,1.486575127E0,1.600290060E0
1.149901699E1,1.222954559E1,1.775231838E0,2.704904556E0
1.151568292E1,1.273451614E1,1.275818825E0,3.045464039E0
1.153234886E1,1.223363113E1,1.280401230E0,2.773128510E0
1.154901480E1,1.196611023E1,1.227407932E0,1.880203605E0
1.156568074E1,1.171547318E1,5.332551003E-1,1.443042040E0
1.158234668E1,1.174696541E1,-4.225826263E-2,9.267951250E-1
1.159901261E1,1.107262897E1,-3.969287872E-1,7.701485753E-1
1.161567855E1,9.195193291E0,1.626725197E-1,1.803678036E0
1.163234449E1,6.299379349E0,1.491013527E0,1.522855043E0
1.164901042E1,3.259595394E0,2.645966530E0,8.488032818E-1
1.166567636E1,1.422900677E0,3.189518929E0,1.212135792E0
1.168234230E1,3.731799126E-1,7.092739582E0,4.013394356E0
1.169900824E1,-4.662285328E0,1.339010048E1,9.885327339E0
1.171567418E1,-1.513515091E1,1.588176346E1,1.264312172E1
1.173234011E1,-2.214802361E1,1.523501968E1,1.121697807E1
1.174900605E1,-2.402005005E1,1.162852192E1,9.364963531E0
1.176567199E1,-2.227980042E1,3.405191422E0,1.117836857E1
1.178233792E1,-1.570798874E1,-4.593167782E0,1.032045460E1
1.179900386E1,-8.817520142E0,-9.940083504E0,5.718720913E0
1.181566980E1,-3.769177914E0,-1.386471462E1,8.404169083E-1
1.183233574E1,-2.699840069E-1,-1.632951736E1,-2.149159908E0
1.184900168E1,2.920771122E0,-1.764644623E1,-3.215575695E0
1.186566761E1,6.241577148E0,-1.894114304E1,-3.400600195E0
1.188233355E1,7.213033199E0,-1.949327850E1,-3.184238672E0
1.189899949E1,6.485743523E0,-1.866930389E1,-3.151864290E0
1.191566542E1,6.294695854E0,-1.763868713E1,-3.392316341E0
1.193233136E1,6.704139709E0,-1.665090942E1,-4.528486729E0
1.194899730E1,6.856119633E0,-1.593936157E1,-5.405056953E0
1.196566324E1,6.403874874E0,-1.469074440E1,-4.029298306E0
1.198232918E1,4.615099907E0,-1.287756538E1,-2.399272919E0
1.199899511E1,2.314319611E-1,-1.142467499E1,-2.229811430E0
1.201566105E1,-3.552242279E0,-9.767297745E0,-2.997735739E0
1.203232699E1,-5.777114391E0,-7.875361443E0,-4.314390182E0
1.204899292E1,-7.645208359E0,-6.965190411E0,-6.683075428E0
1.206565886E1,-1.004054260E1,-4.010784626E0,-6.762242794E0
1.208232480E1,-1.804674149E1,4.095069885E0,-9.000514746E-1
1.209899074E1,-3.048811913E1,1.079602432E1,1.033253860E1
1.211565668E1,-3.591164398E1,1.480812168E1,1.805341530E1
1.213232261E1,-3.032566452E1,1.416564083E1,1.768576431E1
1.214898855E1,-2.014492226E1,1.204443073E1,1.298521328E1
1.216565449E1,-1.084504509E1,8.702217102E0,7.420352459E0
1.218232042E1,-3.339121819E0,5.575003624E0,2.373791695E0
1.219898636E1,2.823089123E0,2.671048641E0,-1.030625939E0
1.221565230E1,5.888649940E0,1.205927849E0,-1.490303040E0
1.223231824E1,8.250589371E0,-5.318355560E-2,-9.375187159E-1
1.224898418E1,1.065669250E1,-9.257814884E-1,1.849334240E-1
1.226565011E1,1.235750580E1,-1.303952456E0,9.713277817E-1
1.228231605E1,1.342435265E1,-1.768399715E0,1.002318263E0
1.229898199E1,1.418872452E1,-2.533090115E0,6.066024303E-1
1.231564792E1,1.478068638E1,-3.416665077E0,1.443552971E-1
1.233231386E1,1.501512909E1,-3.860383511E0,2.542594671E-1
1.234897980E1,1.483132172E1,-3.797505379E0,7.520343065E-1
1.236564574E1,1.419730759E1,-3.605472565E0,7.677206397E-1
1.238231168E1,1.301054573E1,-2.995806694E0,3.546375036E-1
1.239897761E1,1.038979244E1,-1.473949909E0,4.251219034E-1
1.241564355E1,6.119928837E0,1.513907909E0,1.876758575E0
1.243230949E1,1.903812885E0,5.124635220E0,3.872998714E0
1.244897542E1,-3.635239601E-1,7.919631004E0,4.769370079E0
1.246564136E1,-4.103124142E0,1.103466988E1,6.519177437E0
1.248230730E1,-1.244844151E1,1.510615540E1,1.164848423E1
1.249897324E1,-2.103181648E1,1.625108337E1,1.583281708E1
1.251563918E1,-2.456287384E1,1.344542599E1,1.615730095E1
1.253230511E1,-2.327019119E1,8.060981750E0,1.392044067E1
1.254897105E1,-1.919408989E1,1.613814354E0,1.048906422E1
1.256563699E1,-1.380227089E1,-4.243940353E0,6.611581802E0
1.258230292E1,-8.376791954E0,-8.425810814E0,3.392810345E0
1.259896886E1,-3.812838554E0,-1.150241470E1,1.101385832E0
1.261563480E1,3.958177567E-2,-1.431712723E1,-5.740431547E-1
1.263230074E1,3.324180603E0,-1.655284500E1,-1.722655654E0
1.264896668E1,5.305019379E0,-1.785271454E1,-2.542248011E0
1.266563261E1,5.865310669E0,-1.832566071E1,-3.766315460E0
1.268229855E1,5.702623367E0,-1.802055931E1,-5.399722576E0
1.269896449E1,5.500163078E0,-1.755383301E1,-6.215623856E0
1.271563042E1,5.624310493E0,-1.664718819E1,-5.739405155E0
1.273229636E1,5.649551868E0,-1.563641548E1,-4.730866432E0
1.274896230E1,4.824473381E0,-1.440660095E1,-4.430022240E0
1.276562824E1,3.389845371E0,-1.316613007E1,-5.019336700E0
1.278229418E1,1.527685642E0,-1.163170433E1,-6.350922585E0
1.279896011E1,-1.376473904E0,-9.049581528E0,-6.552917004E0
1.281562605E1,-5.283829689E0,-5.388489723E0,-5.040763378E0
1.283229199E1,-8.262380600E0,-1.857656717E0,-4.670164108E0
1.284895792E1,-9.459300995E0,1.880250931E0,-4.619320869E0
1.286562386E1,-1.147191715E1,6.060256958E0,-2.312557697E-1
1.288228980E1,-1.574825001E1,8.904262543E0,7.320560455E0
1.289895574E1,-1.887175560E1,9.547125816E0,1.195730782E1
1.291562168E1,-1.759153748E1,9.035399437E0,1.182236290E1
1.293228761E1,-1.290811348E1,7.664004326E0,9.388845444E0
1.294895355E1,-6.541887283E0,5.634356499E0,6.937545300E0
1.296561949E1,7.404847145E-1,3.740854979E0,5.341720581E0
1.298228542E1,7.839482307E0,2.307865143E0,4.448152542E0
1.299895136E1,1.303222466E1,5.311651230E-1,3.770483971E0
1.301561730E1,1.557675743E1,-1.709598780E0,3.463122606E0
1.303228324E1,1.456953430E1,-2.732495785E0,3.597565174E0
1.304894918E1,1.008196926E1,-1.551314592E0,3.632680655E0
1.306561511E1,5.980653763E0,-6.658263206E-1,3.224945307E0
1.308228105E1,4.024174213E0,-2.094862461E0,2.234560013E0
1.309894699E1,2.513240814E0,-4.963655472E0,6.101317406E-1
1.311561292E1,-1.077785492E-1,-8.037259102E0,-2.883939743E0
1.313227886E1,-3.656029701E0,-1.020874214E1,-8.535161018E0
1.314894480E1,-6.536459923E0,-1.061107445E1,-1.022467613E1
1.316561074E1,-8.374416351E0,-1.054372597E1,-6.015067577E0
1.318227668E1,-8.045607567E0,-1.085314178E1,-2.190288544E0
1.319894261E1,-5.065741539E0,-9.888767242E0,-2.762647152E0
1.321560855E1,-2.032721519E0,-7.654834747E0,-2.760737419E0
1.323227449E1,-4.879598618E-1,-4.166436195E0,3.240695000E-1
1.324894042E1,-2.705001831E-1,-6.307419538E-1,2.533266544E0
1.326560636E1,-2.541713715E0,2.597779751E0,3.219671726E0
1.328227230E1,-4.383476257E0,3.418626547E0,1.121508598E0
1.329893824E1,-1.043973923E0,3.482630968E0,-1.227775097E0
1.331560418E1,6.099919319E0,3.008668423E0,-5.579121113E-1
1.333227011E1,1.019199467E1,2.899627447E0,1.454097748E0
1.334893605E1,9.637670517E0,4.158222675E0,3.645038605E0
1.336560199E1,6.211050034E0,5.918151379E0,6.587255478E0
1.338226792E1,3.063196182E0,7.198518753E0,7.253533840E0
1.339893386E1,1.942030907E0,5.961066246E0,5.152806759E0
1.341559980E1,2.324588299E0,2.670211077E0,1.898690224E0
1.343226574E1,1.250548363E0,1.170470715E-1,-6.818714142E-1
1.344893168E1,-3.462551117E0,-2.101812363E0,-1.531414270E0
1.346559761E1,-1.067708206E1,-2.849964142E0,-1.708994865E0
1.348226355E1,-1.590037346E1,-3.351902485E0,-2.116949081E0
1.349892949E1,-1.655194855E1,-5.070894241E0,-3.197628021E0
1.351559542E1,-1.527187538E1,-6.796419144E0,-3.786315680E0
1.353226136E1,-1.510636330E1,-6.735518456E0,-2.759372711E0
1.354892730E1,-1.611671066E1,-6.388914108E0,-1.412326813E0
1.356559324E1,-1.637864876E1,-7.488840103E0,-2.225422859E0
1.358225918E1,-1.445925522E1,-8.876789093E0,-5.673217773E0
1.359892511E1,-1.150910568E1,-9.103269577E0,-8.911237717E0
1.361559105E1,-9.482662201E0,-7.734848976E0,-9.702615738E0
1.363225699E1,-8.738211632E0,-5.324101925E0,-7.286105156E0
1.364892292E1,-9.439908981E0,-2.300693035E0,-3.978878021E0
1.366558886E1,-9.563231468E0,3.941411972E-1,-4.339747906E0
1.368225480E1,-7.397817135E0,2.500509739E0,-8.019973755E0
1.369892074E1,-6.051898479E0,4.102276802E0,-7.129952431E0
1.371558668E1,-8.740636826E0,3.857077360E0,1.891657829E0
1.373225261E1,-1.211399364E1,4.220145226E0,1.266581059E1
1.374891855E1,-1.386373234E1,5.773741722E0,1.678485107E1
1.376558449E1,-1.278001499E1,5.804535866E0,1.255401134E1
1.378225042E1,-8.786074638E0,6.206825256E0,4.590250969E0
1.379891636E1,-4.503644943E0,7.990745544E0,2.475843430E-1
1.381558230E1,-3.800062895E0,9.259164810E0,4.095621109E-1
1.383224824E1,-4.507552147E0,9.797773361E0,1.768995285E0
1.384891418E1,-4.059181213E0,9.278791428E0,6.292486191E-1
1.386558011E1,-1.581058502E0,7.093844891E0,-2.329841137E0
1.388224605E1,1.458592176E0,5.850193024E0,-3.870429039E0
1.389891199E1,-8.101170063E-1,7.642341614E0,6.304378510E-1
1.391557793E1,-6.904937744E0,7.893822193E0,7.862483978E0
1.393224386E1,-1.032684517E1,6.102297783E0,8.109537125E0
1.394890980E1,-9.234951019E0,5.235882282E0,3.564189911E0
1.396557574E1,-6.351437569E0,3.883280993E0,-9.060831070E-1
1.398224168E1,-3.668185234E0,2.518450260E0,-3.725258350E0
1.399890761E1,-2.811552048E0,1.303823948E0,-4.619812965E0
1.401557355E1,-3.000640869E0,-5.901813507E-1,-4.503424644E0
1.403223949E1,-1.152222157E0,-2.830368519E0,-5.798467636E0
1.404890543E1,1.478035450E0,-4.477945805E0,-6.153075218E0
1.406557136E1,3.052625656E0,-5.326916695E0,-3.655132055E0
1.408223730E1,4.054565907E0,-7.153054714E0,-1.848918915E0
1.409890324E1,4.883857727E0,-1.140662384E1,-3.880676270E0
1.411556918E1,6.329614162E0,-1.586536503E1,-7.528012276E0
1.413223511E1,7.451994896E0,-1.714228821E1,-8.118380547E0
1.414890105E1,4.332063198E0,-1.518149185E1,-4.376629829E0
1.416556699E1,-2.167981148E0,-1.219672012E1,4.598064423E-1
1.418223293E1,-6.020201683E0,-1.071186543E1,1.146016836E0
1.419889886E1,-5.377666473E0,-1.070213604E1,-3.067329884E0
1.421556480E1,-3.532899857E0,-1.181888008E1,-5.949546337E0
1.423223074E1,-4.610063553E0,-1.165996742E1,-3.619625092E0
1.424889668E1,-9.971146584E0,-9.335741997E0,2.734972239E0
1.426556261E1,-1.495615482E1,-6.154476643E0,6.853046417E0
1.428222855E1,-1.598788738E1,-3.202941656E0,5.828567505E0
1.429889449E1,-1.652320099E1,-4.895945787E-1,5.858441353E0
1.431556043E1,-2.067848969E1,4.500422001E0,8.996789932E0
1.433222636E1,-2.325094986E1,8.896622658E0,1.169724941E1
1.434889230E1,-2.073761368E1,8.853196144E0,1.225538158E1
1.436555824E1,-1.378793049E1,7.283263206E0,1.196109962E1
1.438222418E1,-6.517297745E0,6.892369270E0,1.268205643E1
1.439889011E1,-1.604489326E0,8.482361794E0,1.384888840E1
1.441555605E1,9.138202667E-1,1.139170933E1,1.381260204E1
1.443222199E1,3.531910419E0,1.395849705E1,1.237439632E1
1.444888793E1,6.178242683E0,1.506387138E1,1.064271641E1
1.446555386E1,7.426132202E0,1.535570621E1,1.060186672E1
1.448221980E1,7.359511375E0,1.493974876E1,1.158784962E1
1.449888574E1,6.546567917E0,1.428891754E1,1.136385536E1
1.451555168E1,5.384171009E0,1.349772930E1,9.429707527E0
1.453221761E1,4.340552807E0,1.223816586E1,6.638134480E0
1.454888355E1,3.482915401E0,1.036089134E1,4.127838612E0
1.456554949E1,2.513847351E0,8.147733688E0,2.258208513E0
1.458221543E1,5.021009445E-1,7.089910984E0,1.304790497E0
1.459888136E1,-2.947849274E0,6.345294952E0,1.039802551E0
1.461554730E1,-6.255708694E0,5.393410206E0,1.817166090E0
1.463221324E1,-8.884345055E0,4.191394329E0,3.768762589E0
1.464887918E1,-1.302783871E1,2.804932594E0,6.391027451E0
1.466554511E1,-1.879434586E1,1.263317585E0,7.826977730E0
1.468221105E1,-2.296475220E1,1.079816818E-1,6.544175148E0
1.469887699E1,-2.325232697E1,-1.480372906E0,4.453830719E0
1.471554293E1,-2.011279678E1,-4.091607094E0,3.367582083E0
1.473220886E1,-1.497560596E1,-7.299366951E0,2.645988464E0
1.474887480E1,-9.195903778E0,-1.004132843E1,1.958641768E0
1.476554074E1,-3.874351025E0,-1.166699600E1,1.764214516E0
1.478220668E1,-1.495556831E-1,-1.258225250E1,2.026632309E0
1.479887261E1,2.371927738E0,-1.380934620E1,1.402870178E0
1.481553855E1,4.246844292E0,-1.528474045E1,-5.432832241E-1
1.483220449E1,5.227520943E0,-1.619719696E1,-1.996349335E0
1.484887043E1,5.506954193E0,-1.643392944E1,-2.315634251E0
1.486553636E1,5.486728668E0,-1.655312729E1,-2.667464495E0
1.488220230E1,5.651392460E0,-1.628491974E1,-3.488059759E0
1.489886824E1,5.911403179E0,-1.603776550E1,-4.553593159E0
1.491553418E1,6.204407692E0,-1.628724480E1,-5.579743862E0
1.493220011E1,6.406360149E0,-1.640306473E1,-6.334776402E0
1.494886605E1,6.203489304E0,-1.599477196E1,-5.922659874E0
1.496553199E1,5.494441509E0,-1.537936020E1,-4.778616905E0
1.498219793E1,4.356501579E0,-1.418032455E1,-4.291943550E0
1.499886386E1,2.514045238E0,-1.222354507E1,-4.403471947E0
1.501552980E1,-1.476306915E-1,-9.564811707E0,-5.088972092E0
1.503219574E1,-4.130541801E0,-5.785308838E0,-6.331492901E0
1.504886168E1,-9.911911011E0,3.739316463E-1,-4.280345440E0
1.506552761E1,-1.815291405E1,7.290073395E0,3.540117741E0
1.508219355E1,-2.510789871E1,1.208642006E1,1.208700848E1
1.509885949E1,-2.609843826E1,1.387321663E1,1.467919350E1
1.511552543E1,-2.080447006E1,1.286481953E1,1.268985176E1
1.513219136E1,-1.259282398E1,1.011108017E1,1.070202446E1
1.514885730E1,-4.456924438E0,7.280187607E0,8.798174858E0
1.516552324E1,2.020404339E0,4.764920712E0,6.201411247E0
1.518218918E1,6.719011307E0,2.540841818E0,3.944108486E0
1.519885511E1,1.020855618E1,1.347427130E0,2.690296173E0
1.521552105E1,1.246555042E1,8.963580132E-1,1.732708931E0
1.523218699E1,1.310826206E1,8.024430275E-1,5.816236138E-1
1.524885293E1,1.267229652E1,8.079323769E-1,-5.665302277E-1
1.526551886E1,1.205961132E1,3.686742783E-1,-1.329226255E0
1.528218480E1,1.189970398E1,-7.872285843E-1,-1.455177188E0
1.529885074E1,1.193410683E1,-1.808187723E0,-1.038175821E0
1.531551668E1,1.107814980E1,-1.623170137E0,-4.505203962E-1
1.533218261E1,9.279985428E0,-6.589732170E-1,-4.058253765E-2
1.534884855E1,6.691829681E0,4.881486893E-1,-1.616252661E-1
1.536551449E1,3.777871609E0,1.772869587E0,-4.984782934E-1
1.538218043E1,1.543942451E0,3.291992664E0,3.403766155E-1
1.539884636E1,-6.723775864E-1,6.013040543E0,2.850824356E0
1.541551230E1,-4.878392220E0,1.006258106E1,6.087692261E0
1.543217824E1,-1.113159180E1,1.426549339E1,8.930959702E0
1.544884418E1,-1.895436859E1,1.699839401E1,1.204066277E1
1.546551011E1,-2.403782654E1,1.596577454E1,1.384813786E1
1.548217605E1,-2.454954529E1,1.163005733E1,1.240047073E1
1.549884199E1,-2.129189682E1,5.089829445E0,9.068802834E0
1.551550793E1,-1.493340874E1,-1.772994518E0,5.468380928E0
1.553217386E1,-7.170048714E0,-7.184259892E0,2.898013115E0
1.554883980E1,-1.175266743E0,-1.095045280E1,2.141359329E0
1.556550574E1,2.684521198E0,-1.400553131E1,2.727322817E0
1.558217168E1,5.030048370E0,-1.703744888E1,3.240949869E0
1.559883761E1,5.513663292E0,-1.921579742E1,2.987382412E0
1.561550355E1,4.932259560E0,-2.033492088E1,1.737440348E0
1.563216949E1,4.815328598E0,-2.060162735E1,-4.255385399E-1
1.564883543E1,5.988882065E0,-1.944737625E1,-2.565049648E0
1.566550136E1,7.770691872E0,-1.754007339E1,-3.616210938E0
1.568216730E1,8.772258759E0,-1.634359169E1,-3.548155308E0
1.569883324E1,8.365620613E0,-1.574511814E1,-2.696050167E0
1.571549918E1,7.225055695E0,-1.471477890E1,-1.360451698E0
1.573216511E1,5.887578011E0,-1.256495571E1,-2.373666167E-1
1.574883105E1,3.612508297E0,-1.011011982E1,-1.309027374E-1
1.576549699E1,5.575275421E-1,-7.476502419E0,-1.081259489E0
1.578216293E1,-2.938069344E0,-3.682081699E0,-3.302966118E0
1.579882886E1,-5.888640404E0,3.072637320E-1,-5.617208958E0
1.581549480E1,-9.437742233E0,4.068554401E0,-4.678166389E0
1.583216074E1,-1.647148514E1,8.446063995E0,1.330939293E0
1.584882668E1,-2.515995979E1,1.231674194E1,9.516594887E0
1.586549261E1,-2.954581833E1,1.385386848E1,1.339774227E1
1.588215855E1,-2.694569588E1,1.293770504E1,1.190645885E1
1.589882449E1,-1.976789093E1,1.035430717E1,9.581677437E0
1.591549043E1,-1.152162361E1,7.311311245E0,7.797470093E0
1.593215636E1,-4.186874390E0,4.613801956E0,5.966133118E0
1.594882230E1,1.756657124E0,2.644337654E0,4.143116951E0
1.596548824E1,6.580001831E0,1.349251509E0,2.441958189E0
1.598215418E1,1.066027355E1,3.950090408E-1,7.242569923E-1
1.599882011E1,1.323321152E1,-2.110888958E-1,-2.830883265E-1
1.601548605E1,1.401892281E1,-7.391040325E-1,-1.332252026E-1
1.603215199E1,1.379606819E1,-9.765224457E-1,2.883452177E-1
1.604881792E1,1.339451027E1,-1.120993853E0,3.778005838E-1
1.606548386E1,1.246058655E1,-1.247499943E0,4.451012611E-2
1.608214980E1,1.056379986E1,-1.054341555E0,-2.363227606E-1
1.609881574E1,9.083798409E0,-9.664974213E-1,-5.716329813E-1
1.611548168E1,7.903093815E0,-4.653744698E-1,-4.444079399E-1
1.613214761E1,5.239834309E0,8.710513115E-1,1.335893393E0
1.614881355E1,9.390182495E-1,3.729637146E0,4.012475014E0
1.616547949E1,-3.259739876E0,6.959326267E0,6.065871239E0
1.618214542E1,-7.659497738E0,9.544023514E0,7.457342625E0
1.619881136E1,-1.364093399E1,1.093263340E1,1.126964092E1
1.621547730E1,-1.890924835E1,9.918676376E0,1.567876911E1
1.623214324E1,-2.131077766E1,6.573676586E0,1.756724548E1
1.624880918E1,-1.954291153E1,1.103510857E0,1.537379837E1
1.626547511E1,-1.405540276E1,-4.707019806E0,9.962466240E0
1.628214105E1,-7.032076359E0,-9.251286507E0,3.704751492E0
1.629880699E1,-1.268842697E0,-1.252821159E1,-1.379221439E0
1.631547292E1,2.824178696E0,-1.480850315E1,-4.452453613E0
1.633213886E1,5.477250576E0,-1.621263504E1,-5.524378300E0
1.634880480E1,6.246907711E0,-1.687395668E1,-5.433596611E0
1.636547074E1,5.776590347E0,-1.635921097E1,-5.676289558E0
1.638213668E1,5.413651466E0,-1.467742538E1,-6.640985489E0
1.639880261E1,6.022815704E0,-1.435905075E1,-7.706144810E0
1.641546855E1,6.460582256E0,-1.526776123E1,-7.643453121E0
1.643213449E1,5.481549740E0,-1.560725975E1,-5.869451523E0
1.644880042E1,3.655532360E0,-1.482633591E1,-5.131222248E0
1.646546636E1,1.796094894E0,-1.366202927E1,-7.206383705E0
1.648213230E1,-4.504613876E-1,-1.236795235E1,-1.009277344E1
1.649879824E1,-3.280994415E0,-1.156651688E1,-1.164984703E1
1.651546418E1,-5.654765129E0,-1.029067039E1,-1.100147533E1
1.653213011E1,-9.811881065E0,-6.846474648E0,-8.076731682E0
1.654879605E1,-1.731532669E1,-2.333318949E0,-3.423448086E0
1.656546199E1,-2.335155487E1,9.640908241E-1,3.275340557E0
1.658212792E1,-2.381468201E1,2.688942909E0,1.054513168E1
1.659879386E1,-1.995077133E1,3.687475443E0,1.438816071E1
1.661545980E1,-1.382211685E1,4.243900299E0,1.396860504E1
1.663212574E1,-5.807687759E0,5.315962791E0,1.183505630E1
1.664879168E1,4.073223591E0,6.917181492E0,1.058820915E1
1.666545761E1,1.462309837E1,9.007474899E0,1.063895988E1
1.668212355E1,2.138398743E1,8.727287292E0,1.114279175E1
1.669878949E1,2.351018524E1,6.420640469E0,1.210697460E1
1.671545543E1,2.213897324E1,4.652097702E0,1.362401199E1
1.673212136E1,1.463260269E1,4.031537056E0,1.368917465E1
1.674878730E1,1.952722073E0,3.849319935E0,1.038099575E1
1.676545324E1,-9.093904495E0,1.654548168E0,2.833342552E0
1.678211918E1,-1.286536026E1,-2.943356037E0,-4.822085381E0
1.679878511E1,-1.099661255E1,-8.153512001E0,-5.903449059E0
1.681545105E1,-1.085271454E1,-1.086153412E1,-2.173945427E0
1.683211699E1,-1.482511902E1,-1.045527267E1,-3.951282501E-1
1.684878293E1,-1.810286331E1,-1.043498516E1,-3.878942966E0
1.686544886E1,-1.475899887E1,-1.133003616E1,-9.171673775E0
1.688211480E1,-7.936512947E0,-1.098712444E1,-1.128812408E1
1.689878074E1,-4.963822365E0,-7.964232445E0,-7.464333057E0
1.691544668E1,-6.346112251E0,-2.923100471E0,-1.615395546E0
1.693211261E1,-7.186194897E0,1.042189837E0,-1.936769485E-2
1.694877855E1,-4.344916821E0,2.517688513E0,-2.156812191E0
1.696544449E1,1.065867901E0,1.634272099E0,-4.982741356E0
1.698211043E1,5.335769176E0,3.378629684E-1,-5.138675690E0
1.699877636E1,6.850604534E0,-5.107927322E-2,-3.443783283E0
1.701544230E1,4.949728012E0,8.930950165E-1,-3.509875298E0
1.703210824E1,7.960824966E-1,2.652923107E0,-4.371892452E0
1.704877418E1,-1.004697323E0,2.416971207E0,-3.450289249E0
1.706544011E1,-3.148555756E-2,2.834067345E-1,6.154522896E-1
1.708210605E1,1.602587700E-1,-2.219997883E0,5.657026291E0
1.709877199E1,-1.690408707E0,-4.659261703E0,6.710190296E0
1.711543793E1,-3.776763439E0,-5.209869862E0,3.377592564E0
1.713210386E1,-4.260000229E0,-4.341084003E0,-1.521712780E0
1.714876980E1,-5.648152828E0,-3.950721741E0,-4.903644562E0
1.716543574E1,-1.137011337E1,-4.840591908E0,-3.877846479E0
1.718210168E1,-1.855293465E1,-6.056165695E0,-1.420640945E-1
1.719876761E1,-2.103746986E1,-6.786328793E0,1.796133041E0
1.721543355E1,-1.693883133E1,-5.847378731E0,-1.025791168E-1
1.723209949E1,-1.041237640E1,-3.736085892E0,-6.181785583E0
1.724876543E1,-5.707808018E0,-9.435694218E-1,-1.180967903E1
1.726543136E1,-4.494268417E0,4.525265694E-1,-1.256123924E1
1.728209730E1,-6.005501270E0,1.761299849E0,-9.884641647E0
1.729876324E1,-9.342244148E0,4.016061783E0,-4.591083050E0
1.731542918E1,-1.359540367E1,7.004512310E0,2.583226204E0
1.733209511E1,-1.560657883E1,8.952106476E0,6.593316078E0
1.734876105E1,-1.305933380E1,9.475401878E0,4.993574142E0
1.736542699E1,-7.645557404E0,9.045416832E0,1.213225365E0
1.738209293E1,-3.291289806E0,7.862313747E0,-4.658203125E-1
1.739875886E1,-2.026774406E0,6.781416893E0,1.935758591E-1
1.741542480E1,-2.915268421E0,6.273552418E0,1.170697212E0
1.743209074E1,-3.299153328E0,7.248767853E0,8.319063187E-1
1.744875668E1,-2.855292320E0,8.096131325E0,-1.319445133E0
1.746542261E1,-1.840742588E0,7.567327976E0,-3.812783718E0
1.748208855E1,-8.724226952E-1,6.461411476E0,-4.811015129E0
1.749875449E1,-1.756028652E0,5.503219604E0,-3.911201000E0
1.751542043E1,-2.971746445E0,3.929934978E0,-2.417223930E0
1.753208636E1,-1.996094227E0,1.906520128E0,-2.097737789E0
1.754875230E1,6.233544350E-1,3.272991180E-1,-2.678448200E0
1.756541824E1,1.608635187E0,-5.920410156E-2,-5.510096550E0
1.758208418E1,-7.383179665E-1,4.738488197E-1,-8.111364365E0
1.759875011E1,-5.860039711E0,1.860082150E-1,-6.428485870E0
1.761541605E1,-9.442605019E0,-1.851703048E0,-1.168204784E0
1.763208199E1,-7.991612434E0,-3.842901707E0,4.848138809E0
1.764874793E1,-4.121600151E0,-4.447379112E0,6.608515739E0
1.766541386E1,-1.700351238E0,-5.361051559E0,3.992155075E0
1.768207980E1,-6.587119102E-1,-7.904689789E0,-7.995386124E-1
1.769874574E1,7.319722176E-1,-1.035444832E1,-6.410353661E0
1.771541168E1,2.213295937E0,-1.144678307E1,-9.677019119E0
1.773207761E1,1.939254761E0,-1.179095364E1,-9.259556770E0
1.774874355E1,-2.963261604E-1,-1.051544380E1,-7.224090099E0
1.776540949E1,-5.236618042E0,-6.506938934E0,-5.147130013E0
1.778207543E1,-1.009437752E1,-2.102753639E0,-3.689532995E0
1.779874136E1,-1.083566475E1,-1.381031275E-1,-2.089478254E0
1.781540730E1,-8.836829185E0,1.333694696E0,3.962297440E-1
1.783207324E1,-8.983217239E0,5.222104073E0,3.178938389E0
1.784873918E1,-1.117261314E1,8.532455444E0,4.210264206E0
1.786540511E1,-1.226656437E1,8.893715858E0,5.805375099E0
1.788207105E1,-9.556571960E0,7.834820271E0,8.582160950E0
1.789873699E1,-3.964553833E0,6.745544910E0,9.877599716E0
1.791540293E1,1.160316467E0,6.503844261E0,9.580343246E0
1.793206886E1,4.784824848E0,7.680043221E0,8.067689896E0
1.794873480E1,7.473263264E0,8.988973618E0,4.929881096E0
1.796540074E1,9.053762436E0,9.203564644E0,3.280979872E0
1.798206668E1,9.970528603E0,8.952028275E0,3.534078121E0
1.799873261E1,1.106491947E1,8.498726845E0,4.145629406E0
1.801539855E1,1.166493034E1,8.090835571E0,3.721971989E0
1.803206449E1,1.076580524E1,7.860960007E0,1.578681469E0
1.804873043E1,8.376195908E0,7.299748898E0,6.933212280E-3
1.806539636E1,4.640149593E0,7.093417168E0,1.724381924E0
1.808206230E1,-4.109802246E-1,7.505892277E0,4.901612759E0
1.809872824E1,-4.961266041E0,6.840631008E0,4.548059464E0
1.811539418E1,-5.744901180E0,4.131490707E0,1.057844162E-1
1.813206011E1,-4.100749016E0,1.586934090E0,-3.499815464E0
1.814872605E1,-3.013115883E0,5.768289566E-1,-2.521068573E0
1.816539199E1,-3.560371876E0,-7.039833069E-1,1.134277821E0
1.818205793E1,-5.843420029E0,-2.630568981E0,4.725119591E0
1.819872386E1,-7.737193584E0,-5.200068474E0,5.078834534E0
1.821538980E1,-7.805154800E0,-7.111489773E0,1.184183359E0
1.823205574E1,-5.786493778E0,-9.687899590E0,-2.808022499E0
1.824872168E1,-2.223533630E0,-1.229781342E1,-3.574095249E0
1.826538761E1,1.114710331E0,-1.390583897E1,-1.738732696E0
1.828205355E1,2.621791840E0,-1.427748394E1,9.648667574E-1
1.829871949E1,2.481885433E0,-1.411480904E1,2.550102472E0
1.831538543E1,5.037870407E-1,-1.290128708E1,1.570803881E0
1.833205136E1,-1.248616695E0,-1.083564568E1,-1.218421578E0
1.834871730E1,-4.530997276E-1,-9.342782974E0,-3.102252007E0
1.836538324E1,1.724662304E0,-9.089445114E0,-3.183943748E0
1.838204918E1,2.323260307E0,-9.501847267E0,-2.602063894E0
1.839871511E1,8.273172379E-1,-9.362501144E0,-2.207753897E0
1.841538105E1,-1.926417351E0,-7.820979595E0,-2.916382074E0
1.843204699E1,-5.911058426E0,-5.323001862E0,-5.336149693E0
1.844871293E1,-1.015555954E1,-2.357858181E0,-7.306042671E0
1.846537886E1,-1.429829884E1,1.266545773E0,-4.377807140E0
1.848204480E1,-1.893381691E1,5.419298172E0,1.165110111E0
1.849871074E1,-2.197719574E1,7.131633759E0,5.138667107E0
1.851537668E1,-2.105129051E1,7.100675106E0,7.390187263E0
1.853204261E1,-1.556268024E1,6.601206303E0,8.871460915E0
1.854870855E1,-8.725731850E0,5.405303955E0,9.465865135E0
1.856537449E1,-3.326564789E0,4.214622498E0,7.768318176E0
1.858204043E1,7.933263779E-1,3.163041830E0,3.959265947E0
1.859870636E1,4.206783295E0,1.893060684E0,5.540080070E-1
1.861537230E1,7.011313438E0,1.278975725E0,-1.148904562E0
1.863203824E1,8.949136734E0,1.319178581E0,-1.176247358E0
1.864870418E1,1.025371647E1,1.649313450E0,-4.645689130E-1
1.866537011E1,1.136878967E1,2.992595196E0,2.549560666E-1
1.868203605E1,1.232543182E1,4.678944588E0,1.316516161E0
1.869870199E1,1.278762627E1,5.497784615E0,2.597921848E0
1.871536793E1,1.236831760E1,5.814300060E0,3.447569847E0
1.873203386E1,1.165442085E1,5.303691864E0,3.640376806E0
1.874869980E1,1.143074703E1,4.555774212E0,2.976300240E0
1.876536574E1,1.114598846E1,4.349606514E0,2.129817486E0
1.878203168E1,9.438092232E0,5.063666344E0,2.946048737E0
1.879869761E1,5.825174809E0,5.840309143E0,4.771527767E0
1.881536355E1,9.543452263E-1,6.689928532E0,5.262691498E0
1.883202949E1,-4.482903957E0,8.246859550E0,4.594209671E0
1.884869543E1,-9.123346329E0,1.049279690E1,7.239098072E0
1.886536136E1,-1.420263290E1,1.220966625E1,1.160052967E1
1.888202730E1,-2.026714134E1,1.214293289E1,1.274285221E1
1.889869324E1,-2.450286865E1,1.025113297E1,9.744041443E0
1.891535918E1,-2.535119820E1,6.783158302E0,6.715217590E0
1.893202511E1,-2.186355782E1,9.808025360E-1,5.100992203E0
1.894869105E1,-1.477722073E1,-5.222530365E0,3.678786278E0
1.896535699E1,-6.993947983E0,-1.043941021E1,2.927952290E0
1.898202293E1,-9.300129414E-1,-1.405052090E1,2.966792583E0
1.899868886E1,3.017541170E0,-1.671744347E1,2.694046974E0
1.901535480E1,5.505632401E0,-1.881714630E1,1.069912076E0
1.903202074E1,6.037085056E0,-1.975084686E1,-7.355058193E-1
1.904868668E1,5.215492249E0,-1.962703323E1,-1.794757128E0
1.906535261E1,4.784023762E0,-1.867259026E1,-2.559490204E0
1.908201855E1,5.541921616E0,-1.728841782E1,-3.233350992E0
1.909868449E1,6.756993294E0,-1.643594360E1,-3.477914333E0
1.911535043E1,7.187879562E0,-1.642283821E1,-3.537062168E0
1.913201636E1,7.042553425E0,-1.663405609E1,-3.605348825E0
1.914868230E1,6.505094051E0,-1.602790070E1,-3.414800406E0
1.916534824E1,4.192415237E0,-1.408330250E1,-3.377180099E0
1.918201418E1,-1.330027580E-1,-1.137554646E1,-3.814230442E0
1.919868011E1,-4.886826515E0,-8.288116455E0,-3.901420116E0
1.921534605E1,-8.958092690E0,-4.806957722E0,-2.161598206E0
1.923201199E1,-1.337839890E1,-5.657994747E-1,1.809175968E0
1.924867793E1,-1.974602890E1,4.965417862E0,7.346450329E0
1.926534386E1,-2.445387077E1,9.625501633E0,1.176288128E1
1.928200980E1,-2.541606522E1,1.234314346E1,1.250304031E1
1.929867574E1,-2.354091835E1,1.208652687E1,1.293591309E1
1.931534168E1,-1.851860809E1,1.043910599E1,1.360409927E1
1.933200761E1,-1.156706333E1,7.987879753E0,1.213423729E1
1.934867355E1,-4.805953026E0,5.420499802E0,8.279965401E0
1.936533949E1,6.373701096E-1,3.456878424E0,4.148097038E0
1.938200543E1,4.602099419E0,2.404234886E0,1.260509968E0
1.939867136E1,7.217435837E0,2.044619322E0,-2.017648220E-1
1.941533730E1,9.055352211E0,1.747184515E0,-7.606240511E-1
1.943200324E1,1.047161102E1,1.233568668E0,-6.145712137E-1
1.944866918E1,1.141920185E1,6.174459457E-1,-1.338763237E-1
1.946533511E1,1.208956146E1,-4.592323303E-2,4.435416460E-1
1.948200105E1,1.268286133E1,-8.184888363E-1,9.835102558E-1
1.949866699E1,1.310877228E1,-1.439836502E0,8.945825100E-1
1.951533293E1,1.282982922E1,-1.337721109E0,4.853903055E-1
1.953199886E1,1.171694183E1,-6.669158936E-1,9.975410700E-1
1.954866480E1,1.068197632E1,-1.171507835E-1,1.693692446E0
1.956533074E1,9.919715881E0,4.292836189E-1,2.394438028E0
1.958199668E1,8.693634987E0,8.288283348E-1,3.093649149E0
1.959866261E1,6.610132217E0,2.442745209E0,2.592636347E0
1.961532855E1,3.622830868E0,6.077806473E0,2.650648594E0
1.963199449E1,-1.776309490E0,1.157346535E1,9.243240356E0
1.964866043E1,-1.123379707E1,1.542694759E1,1.781501389E1
1.966532636E1,-2.078380585E1,1.607047081E1,1.991994095E1
1.968199230E1,-2.441018867E1,1.383639431E1,1.659554672E1
1.969865824E1,-2.327896690E1,8.977677345E0,1.211210251E1
1.971532418E1,-1.897074318E1,2.665228844E0,8.549112320E0
1.973199011E1,-1.278727531E1,-3.524032116E0,5.792403221E0
1.974865605E1,-7.053053856E0,-8.212901115E0,3.824736357E0
1.976532199E1,-3.142056942E0,-1.128643417E1,2.098851919E0
1.978198793E1,-7.877333164E-1,-1.359189224E1,5.817284584E-1
1.979865386E1,7.252185345E-1,-1.538653183E1,-6.940402985E-1
1.981531980E1,1.518496513E0,-1.621216965E1,-1.830855012E0
1.983198574E1,1.916924238E0,-1.658843613E1,-2.205295563E0
1.984865168E1,2.585286856E0,-1.709481812E1,-2.212887764E0
1.986531761E1,3.502595425E0,-1.784400940E1,-2.456326008E0
1.988198355E1,4.950758934E0,-1.840625954E1,-3.081063986E0
1.989864949E1,6.325847149E0,-1.834135246E1,-3.751541138E0
1.991531543E1,6.691164017E0,-1.808264923E1,-4.130228043E0
1.993198136E1,5.957007408E0,-1.769139671E1,-4.374219894E0
1.994864730E1,4.247934341E0,-1.669802856E1,-4.375200272E0
1.996531324E1,1.966756344E0,-1.497682381E1,-4.515537262E0
1.998197918E1,-9.395141602E-1,-1.191263580E1,-4.794672489E0
1.999864511E1,-4.196716785E0,-8.031111717E0,-5.631188393E0
2.001531105E1,-7.757628918E0,-3.647892952E0,-5.245345116E0
2.003197699E1,-1.265685844E1,1.873987198E0,-3.988156319E-1
2.004864293E1,-2.087052536E1,8.570999146E0,8.628869057E0
2.006530886E1,-2.766905212E1,1.397548580E1,1.590612793E1
2.008197480E1,-2.844797897E1,1.634192848E1,2.042553329E1
2.009864074E1,-2.388907242E1,1.563168907E1,2.066362572E1
2.011530668E1,-1.687495422E1,1.273258114E1,1.674874687E1
2.013197261E1,-9.199354172E0,9.207860947E0,1.099831200E1
2.014863855E1,-2.448543549E0,5.892533779E0,5.291961670E0
2.016530449E1,2.579678059E0,3.004920006E0,1.457767963E0
2.018197043E1,6.389687538E0,6.602592468E-1,-1.244211197E-2
2.019863636E1,9.397950172E0,-1.012043238E0,1.203432083E-1
2.021530230E1,1.144403458E1,-1.872644663E0,2.036833763E-1
2.023196824E1,1.232219601E1,-2.271604538E0,3.756175041E-1
2.024863418E1,1.245888805E1,-2.450980902E0,7.316877842E-1
2.026530011E1,1.200068092E1,-1.976631641E0,6.746987104E-1
2.028196605E1,1.137602615E1,-1.302403212E0,-1.102399826E-2
2.029863199E1,1.109323215E1,-1.242379189E0,-7.810407877E-1
2.031529793E1,1.119992161E1,-1.386638641E0,-1.111974955E0
2.033196386E1,1.086324883E1,-8.921566010E-1,-1.865676641E-1
2.034862980E1,9.076373100E0,3.404359818E-1,1.003330708E0
2.036529574E1,6.580523968E0,1.730517387E0,9.166448116E-1
2.038196168E1,4.741937160E0,3.564713001E0,2.387635708E0
2.039862761E1,2.676448584E0,5.271364212E0,6.975887775E0
2.041529355E1,-3.827361107E0,6.696805954E0,1.226061821E1
2.043195949E1,-1.410837841E1,8.636999130E0,1.629924774E1
2.044862543E1,-2.131119919E1,9.333492279E0,1.639502716E1
2.046529136E1,-2.301646996E1,7.336743832E0,1.383830452E1
2.048195730E1,-2.007782364E1,3.476938248E0,1.108392715E1
2.049862324E1,-1.407791519E1,-9.653086662E-1,7.819669724E0
2.051528918E1,-8.082970619E0,-4.860740662E0,4.506626129E0
2.053195511E1,-3.797149181E0,-7.443332672E0,1.729015350E0
2.054862105E1,-1.198378086E0,-9.101397514E0,-4.679663181E-1
2.056528699E1,2.189264297E-1,-1.052695560E1,-2.394423485E0
2.058195292E1,7.466530800E-1,-1.143780231E1,-3.985253096E0
2.059861886E1,9.854016304E-1,-1.180934238E1,-5.085669041E0
2.061528480E1,1.631706715E0,-1.207745934E1,-5.740845680E0
2.063195074E1,3.049846888E0,-1.238264847E1,-6.199846268E0
2.064861668E1,4.767980576E0,-1.292680168E1,-6.802480698E0
2.066528261E1,5.670756340E0,-1.359021950E1,-7.487054825E0
2.068194855E1,5.723329544E0,-1.402245712E1,-7.935828209E0
2.069861449E1,5.274302483E0,-1.369396019E1,-7.663849354E0
2.071528042E1,4.008501053E0,-1.281922722E1,-6.745405197E0
2.073194636E1,2.391525745E0,-1.206094551E1,-5.937053204E0
2.074861230E1,1.355842590E0,-1.078580475E1,-5.116716862E0
2.076527824E1,5.570483208E-1,-8.881662369E0,-4.578380585E0
2.078194418E1,-2.099070072E0,-5.517100811E0,-3.557626247E0
2.079861011E1,-8.525579453E0,2.435684204E-3,2.366678715E-1
2.081527605E1,-1.611095810E1,5.199150562E0,5.782876968E0
2.083194199E1,-2.129073143E1,8.007785797E0,1.078420925E1
2.084860792E1,-2.190537643E1,8.928851128E0,1.243175220E1
2.086527386E1,-1.874934769E1,8.703969955E0,1.109164524E1
2.088193980E1,-1.348106956E1,7.038903236E0,9.040340424E0
2.089860574E1,-6.744486809E0,4.893269062E0,6.476421833E0
2.091527168E1,-3.201913834E-1,2.982156754E0,3.833426237E0
2.093193761E1,3.989863396E0,1.753924847E0,1.978828669E0
2.094860355E1,6.154261589E0,1.265961647E0,8.293073177E-1
2.096526949E1,7.106173515E0,1.173408985E0,-2.182030678E-2
2.098193542E1,7.786628723E0,1.210143089E0,-5.939228535E-1
2.099860136E1,8.205471039E0,1.113258362E0,-6.453945637E-1
2.101526730E1,8.627528191E0,7.852573395E-1,-1.431369781E-1
2.103193324E1,9.256372452E0,5.101613998E-1,2.611842155E-1
2.104859918E1,9.822065353E0,2.483997345E-1,3.263573647E-1
2.106526511E1,9.971068382E0,-2.032542229E-1,2.952218056E-2
2.108193105E1,9.528636932E0,-1.037011147E-1,1.107745171E-1
2.109859699E1,8.307632446E0,4.294567108E-1,1.981325626E0
2.111526292E1,6.755340099E0,3.110489845E-1,3.829135180E0
2.113192886E1,5.090515137E0,5.758996010E-1,3.561038733E0
2.114859480E1,4.232622147E0,2.230132580E0,3.696331024E0
2.116526074E1,4.683694839E0,4.212846756E0,5.514450550E0
2.118192668E1,3.500695705E0,4.135593414E0,8.200696945E0
2.119859261E1,-1.596112728E0,3.065773010E0,1.260463524E1
2.121525855E1,-8.181880951E0,1.964279175E0,1.774806976E1
2.123192449E1,-1.299539566E1,4.991965294E-1,1.944092560E1
2.124859042E1,-1.431339836E1,-1.472825527E0,1.799918747E1
2.126525636E1,-1.283585548E1,-3.310132742E0,1.409168434E1
2.128192230E1,-1.030508423E1,-4.038266182E0,9.526206970E0
2.129858824E1,-7.686140060E0,-4.900663853E0,5.250942230E0
2.131525418E1,-5.266656876E0,-5.764174461E0,2.213494301E0
2.133192011E1,-3.566396475E0,-6.181385040E0,1.765356064E-1
2.134858605E1,-2.821027517E0,-6.427430630E0,-1.580627441E0
2.136525199E1,-2.122542381E0,-6.447851181E0,-3.498231411E0
2.138191792E1,-1.551920891E0,-5.777840137E0,-5.011419296E0
2.139858386E1,-1.789228916E0,-5.099360943E0,-6.262378693E0
2.141524980E1,-2.241453171E0,-4.549919128E0,-7.906197071E0
2.143191574E1,-1.858107924E0,-4.203648567E0,-8.888493538E0
2.144858168E1,-1.051842690E0,-4.517281055E0,-7.721751690E0
2.146524761E1,-6.253100634E-1,-5.299678802E0,-5.068451881E0
2.148191355E1,-6.715066433E-1,-5.298506260E0,-4.089776516E0
2.149857949E1,-1.756101966E0,-4.629918098E0,-4.528438568E0
2.151524542E1,-3.047679186E0,-4.050493717E0,-5.091254234E0
2.153191136E1,-2.231496572E0,-3.588490963E0,-3.563178539E0
2.154857730E1,5.650492907E-1,-3.696281910E0,-2.088589668E-1
2.156524324E1,1.885483861E0,-3.349511862E0,3.445312500E0
2.158190918E1,-1.112864375E0,-1.156933784E0,4.495316982E0
2.159857511E1,-4.339073181E0,1.972119808E0,4.872559071E0
2.161524105E1,-5.195878029E0,3.278616428E0,7.023612022E0
2.163190699E1,-4.908575058E0,2.566760063E0,9.045401573E0
2.164857292E1,-3.887012243E0,1.495222569E0,8.929452896E0
2.166523886E1,-2.316256046E0,6.992125511E-1,6.708252907E0
2.168190480E1,-6.266298294E-1,3.629441261E-1,2.826199532E0
2.169857074E1,1.209339023E0,-2.238078117E-1,-1.394531727E0
2.171523668E1,2.358185291E0,-9.293084145E-1,-2.789955139E0
2.173190261E1,2.385119915E0,-1.295501947E0,-7.106585503E-1
2.174856855E1,1.811132431E0,-1.872650385E0,9.424629211E-1
2.176523449E1,1.577757597E0,-2.197481155E0,2.543716431E-1
2.178190042E1,1.647934079E0,-2.372031689E0,-1.846541882E0
2.179856636E1,2.015627861E0,-2.585803270E0,-3.992327213E0
2.181523230E1,2.531299829E0,-2.896672964E0,-4.974304199E0
2.183189824E1,2.542220592E0,-3.252420425E0,-4.302625656E0
2.184856418E1,2.081461430E0,-3.580414772E0,-3.109713078E0
2.186523011E1,1.629485607E0,-3.644666672E0,-2.392377377E0
2.188189605E1,1.487276793E0,-3.565853119E0,-2.664237022E0
2.189856199E1,1.508356452E0,-3.127681732E0,-3.053689003E0
2.191522792E1,1.446087360E0,-2.523175240E0,-2.877977848E0
2.193189386E1,1.331067085E0,-2.511670113E0,-1.256651878E0
2.194855980E1,1.766566992E0,-2.474401712E0,1.188738823E0
2.196522574E1,3.452943802E0,-2.115767479E0,1.025205612E0
2.198189168E1,4.109207630E0,-8.966832161E-1,-1.256089687E0
2.199855761E1,2.141299486E0,1.651231766E0,-5.288629532E-1
2.201522355E1,-2.582963467E0,4.222753048E0,8.244768143E0
2.203188949E1,-3.920647860E0,2.971567154E0,1.243056488E1
2.204855542E1,-1.740860701E0,6.142864227E-1,9.827689171E0
2.206522136E1,-2.074882984E-1,7.902750969E-1,5.351037979E0
2.208188730E1,-2.177327871E-1,1.256652832E0,3.155631065E0
2.209855324E1,5.499124527E-4,1.306793213E0,2.232371807E0
2.211521918E1,1.176297069E0,1.894965172E-1,1.714416027E0
2.213188511E1,2.149362087E0,-1.016551018E0,1.401936531E0
2.214855105E1,2.261242867E0,-1.545442581E0,1.227481365E0
2.216521699E1,1.589713454E0,-1.104179859E0,4.508743286E-1
2.218188292E1,6.354609728E-1,-3.476638794E-1,-3.122534752E-1
2.219854886E1,1.245361567E-1,-3.194804192E-1,-1.011950970E0
2.221521480E1,2.814887762E-1,-9.281115532E-1,-1.992394447E0
2.223188074E1,6.976269484E-1,-1.345805883E0,-2.944598675E0
2.224854668E1,7.215828896E-1,-1.495941877E0,-3.257684231E0
2.226521261E1,3.927596807E-1,-1.346284628E0,-3.203360558E0
2.228187855E1,5.560803413E-2,-1.139927387E0,-3.397615910E0
2.229854449E1,1.190556288E-1,-1.111100912E0,-3.564894199E0
2.231521042E1,3.714627028E-1,-1.260477304E0,-3.509877205E0
2.233187636E1,4.402884245E-1,-1.213822842E0,-3.015009403E0
2.234854230E1,1.421198845E-1,-8.587422371E-1,-2.293901920E0
2.236520824E1,-4.076368809E-1,-4.461913109E-1,-1.562443256E0
2.238187418E1,-4.725787640E-1,-9.848499298E-2,-1.117784977E0
2.239854011E1,-2.072381973E-1,-9.386539459E-2,-4.488158226E-1
2.241520605E1,-7.886099815E-2,-7.589530945E-2,8.514461517E-1
2.243187199E1,-5.279922485E-1,3.370776176E-1,2.412149429E0
2.244853792E1,-1.112449169E0,9.568214417E-1,3.173439026E0
2.246520386E1,-1.063163996E0,1.199801922E0,2.429755688E0
2.248186980E1,-9.261772633E-1,1.463324070E0,1.816899776E0
2.249853574E1,-9.062483311E-1,1.061145306E0,2.014952660E0
2.251520168E1,-1.102475405E0,1.150732040E-1,3.169535637E0
2.253186761E1,-1.576487303E0,-6.106181145E-1,4.536746025E0
2.254853355E1,-1.835891485E0,-6.978754997E-1,4.723228931E0
2.256519949E1,-1.639744043E0,-4.764094353E-1,3.236548424E0
2.258186542E1,-8.770432472E-1,-2.838644981E-1,7.398171425E-1
2.259853136E1,-5.502653122E-2,1.394557953E-1,-1.272107601E0
2.261519730E1,4.963195324E-1,3.772306442E-1,-1.399623871E0
2.263186324E1,9.663493633E-1,4.867248535E-1,-6.617836952E-1
2.264852918E1,1.302172184E0,6.084589958E-1,-2.339673042E-1
2.266519511E1,1.703092575E0,4.438619614E-1,-9.420251846E-2
2.268186105E1,1.995563865E0,1.443610191E-1,3.425340652E-1
2.269852699E1,1.724524498E0,7.203245163E-2,9.222908020E-1
2.271519292E1,1.055482626E0,1.823649406E-1,1.452015400E0
2.273185886E1,3.717806339E-1,2.055344582E-1,1.617269993E0
2.274852480E1,2.851252556E-1,3.754615784E-2,1.207071781E0
2.276519074E1,6.709301472E-1,-2.988295555E-1,6.737112999E-1
2.278185668E1,1.059070349E0,-6.259393692E-1,-4.349184036E-2
2.279852261E1,1.192848921E0,-7.672166824E-1,-8.907766342E-1
2.281518855E1,8.787300587E-1,-6.103491783E-1,-1.233430386E0
2.283185449E1,3.247883320E-1,-3.546857834E-1,-1.676633358E0
2.284852042E1,-1.025295258E-2,-1.594634056E-1,-1.206781864E0
2.286518636E1,2.785444260E-2,-3.164787292E-1,-9.845714569E-1
2.288185230E1,7.795095444E-3,-4.077701569E-1,-8.613944054E-1
