"Time (s)","Acceleration x (m/s^2)","Acceleration y (m/s^2)","Acceleration z (m/s^2)"
1.445318900E-2,3.518346548E0,3.978067636E-1,9.215956688E0
3.111912700E-2,3.558426380E0,4.677968323E-1,9.034700394E0
4.778506400E-2,3.758526087E0,4.513461590E-1,9.101998329E0
6.445100200E-2,3.846761465E0,4.713860750E-1,9.315856934E0
8.111693900E-2,3.827618837E0,5.015954375E-1,9.355937004E0
9.778287700E-2,3.569792271E0,5.425725579E-1,9.472287178E0
1.144488140E-1,3.476771355E0,5.614160299E-1,9.548857689E0
1.311147520E-1,3.591925859E0,4.902295470E-1,9.549755096E0
1.477806890E-1,3.649353743E0,4.788636267E-1,9.621838570E0
1.644466270E-1,3.687040567E0,5.135595798E-1,9.386445045E0
1.811125640E-1,3.572484255E0,6.206383705E-1,9.098110199E0
1.977785020E-1,3.448655605E0,6.140581369E-1,9.362217903E0
2.144444390E-1,3.379562855E0,4.671986103E-1,9.609874725E0
2.311103770E-1,3.251846075E0,4.501497746E-1,9.636196136E0
2.477763140E-1,3.125325441E0,5.192425251E-1,9.590433121E0
2.644422520E-1,3.107977629E0,6.568298340E-1,9.168398857E0
2.811081890E-1,3.024827003E0,8.264211416E-1,8.731410027E0
2.977741270E-1,2.961417198E0,7.836494446E-1,8.888139725E0
3.144400640E-1,3.049054146E0,5.051847100E-1,9.223732948E0
3.311060020E-1,3.089433193E0,3.879363835E-1,9.614959717E0
3.477719390E-1,3.032603502E0,3.379862010E-1,9.873085022E0
3.644378770E-1,3.110669374E0,4.286143482E-1,9.559326172E0
3.811038140E-1,3.067598581E0,5.937191248E-1,9.209974289E0
3.977697520E-1,2.855235577E0,7.217351198E-1,9.108877182E0
4.144356890E-1,2.767000198E0,7.247261405E-1,9.098110199E0
4.311016270E-1,2.778665304E0,6.903293133E-1,9.197412491E0
4.477675640E-1,2.685943365E0,6.263213158E-1,9.425029755E0
4.644335020E-1,2.638984203E0,5.955137610E-1,9.476774216E0
4.810994390E-1,2.658426046E0,6.236293912E-1,9.489934921E0
4.977653770E-1,2.611466885E0,5.829514265E-1,9.548857689E0
5.144313140E-1,2.562413931E0,6.167500615E-1,9.647860527E0
5.310972520E-1,2.627618313E0,6.158527136E-1,9.598808289E0
5.477631890E-1,2.747558594E0,5.973083377E-1,9.442676544E0
5.644291270E-1,2.670988321E0,6.640082598E-1,9.511769295E0
5.810950640E-1,2.623729944E0,6.358926296E-1,9.645169258E0
5.977610020E-1,2.708675146E0,6.388836503E-1,9.639186859E0
6.144269390E-1,2.791227579E0,7.097710371E-1,9.514460564E0
6.310928770E-1,2.807080030E0,7.734799385E-1,9.413962364E0
6.477588140E-1,2.894418001E0,7.396813035E-1,9.228817940E0
6.644247520E-1,2.834298372E0,8.180462122E-1,9.211171150E0
6.810906890E-1,2.749951363E0,8.195417523E-1,9.262317657E0
6.977566270E-1,2.644068956E0,7.651050687E-1,9.421140671E0
7.144225640E-1,2.638386011E0,8.066803217E-1,9.427721024E0
7.310885020E-1,2.676372051E0,7.980063558E-1,9.386744499E0
7.477544390E-1,2.661417007E0,7.465606928E-1,9.503693581E0
7.644203770E-1,2.573779821E0,7.357929349E-1,9.605089188E0
7.810863140E-1,2.579163790E0,6.960122585E-1,9.547960281E0
7.977522520E-1,2.636292458E0,7.094719410E-1,9.642177582E0
8.144181890E-1,2.624029160E0,7.109674215E-1,9.665208817E0
8.310841270E-1,2.682354212E0,7.298108935E-1,9.527621269E0
8.477500640E-1,2.765504837E0,7.719843984E-1,9.577571869E0
8.644160020E-1,2.781656265E0,8.647062778E-1,9.509974480E0
8.810819390E-1,2.778067112E0,9.323035479E-1,9.261420250E0
8.977478770E-1,2.812463999E0,1.004387259E0,9.269495964E0
9.144138140E-1,2.926721096E0,9.646066427E-1,9.308379173E0
9.310797520E-1,2.927319288E0,9.014959335E-1,9.464211464E0
9.477456890E-1,2.839383125E0,8.398807645E-1,9.641579628E0
9.644116270E-1,2.808874607E0,7.740781307E-1,9.718449593E0
9.810775640E-1,2.758326292E0,7.331010103E-1,9.725926399E0
9.977435020E-1,2.855833769E0,7.555337548E-1,9.615258217E0
1.014409439E0,2.924627542E0,7.441678643E-1,9.541679382E0
1.031075377E0,2.819343328E0,7.965108156E-1,9.462417603E0
1.047741314E0,2.754737139E0,8.359923959E-1,9.385248184E0
1.064407252E0,2.734996319E0,8.117650747E-1,9.393324852E0
1.081073189E0,2.618944407E0,8.497511148E-1,9.483952522E0
1.097739127E0,2.606082916E0,8.264211416E-1,9.528818130E0
1.114405064E0,2.620140791E0,8.072785139E-1,9.535099030E0
1.131071002E0,2.621636391E0,8.401798606E-1,9.439984322E0
1.147736939E0,2.653341293E0,8.506484628E-1,9.436694145E0
1.164402877E0,2.636890650E0,8.937192559E-1,9.428020477E0
1.181068814E0,2.679064035E0,8.919246197E-1,9.445367813E0
1.197734752E0,2.660818815E0,8.461619020E-1,9.644570351E0
1.214400689E0,2.728715181E0,8.512466550E-1,9.635298729E0
1.231066627E0,2.819044113E0,8.673982024E-1,9.495318413E0
1.247732564E0,2.863610506E0,8.733802438E-1,9.525228500E0
1.264398502E0,2.883650303E0,7.740781307E-1,9.600901604E0
1.281064439E0,2.834597588E0,7.223333120E-1,9.763314247E0
1.297730377E0,2.746661186E0,6.622136831E-1,9.846764565E0
1.314396314E0,2.638685226E0,6.948158741E-1,9.801301003E0
1.331062252E0,2.723032236E0,7.435696125E-1,9.626625061E0
1.347728189E0,2.809772015E0,8.072785139E-1,9.440582275E0
1.364394127E0,2.729313374E0,8.937192559E-1,9.322437286E0
1.381060064E0,2.591127872E0,9.197412133E-1,9.322137833E0
1.397726002E0,2.575873613E0,9.275178909E-1,9.339486122E0
1.414391939E0,2.647359133E0,9.191430211E-1,9.387042999E0
1.431057877E0,2.641676188E0,9.296116233E-1,9.349057198E0
1.447723814E0,2.650649309E0,9.448658228E-1,9.360722542E0
1.464389752E0,2.647359133E0,8.970093727E-1,9.475577354E0
1.481055689E0,2.683550596E0,8.644071817E-1,9.652347565E0
1.497721627E0,2.732902527E0,8.422735929E-1,9.630811691E0
1.514387564E0,2.675773859E0,8.736793399E-1,9.597013474E0
1.531053502E0,2.642872572E0,9.257232547E-1,9.484550476E0
1.547719439E0,2.740978241E0,9.616156220E-1,9.413364410E0
1.564385377E0,2.728116989E0,9.834501147E-1,9.460622787E0
1.581051314E0,2.584547520E0,9.729815125E-1,9.558428764E0
1.597717252E0,2.623430967E0,9.661021233E-1,9.552745819E0
1.614383189E0,2.732304335E0,9.897312522E-1,9.501599312E0
1.631049127E0,2.727518797E0,1.054935694E0,9.385547638E0
1.647715064E0,2.674278498E0,1.075573802E0,9.347561836E0
1.664381002E0,2.625225544E0,1.031306505E0,9.512367249E0
1.681046939E0,2.593819857E0,1.001396298E0,9.676874161E0
1.697712877E0,2.706282377E0,9.819545746E-1,9.623035431E0
1.714378814E0,2.753839731E0,1.011266708E0,9.508179665E0
1.731044752E0,2.702992201E0,1.054337502E0,9.452547073E0
1.747710689E0,2.706581593E0,1.027119160E0,9.480961800E0
1.764376627E0,2.686242580E0,1.028315544E0,9.570094109E0
1.781042564E0,2.665903568E0,9.729815125E-1,9.611370087E0
1.797708502E0,2.639881611E0,9.954141974E-1,9.554242134E0
1.814374439E0,2.677269459E0,1.040578723E0,9.438488960E0
1.831040377E0,2.740978241E0,1.010369420E0,9.416953087E0
1.847706314E0,2.746362209E0,9.819545746E-1,9.568299294E0
1.864372252E0,2.764308453E0,9.768698215E-1,9.512067795E0
1.881038189E0,2.705385208E0,1.087537885E0,9.359525681E0
1.897704127E0,2.632104874E0,1.161416292E0,9.212367058E0
1.914370064E0,2.745764017E0,1.149751306E0,9.136096001E0
1.931036002E0,2.771785975E0,1.161715388E0,9.169296265E0
1.947701939E0,2.677867651E0,1.132702470E0,9.359525681E0
1.964367877E0,2.788535595E0,1.046261668E0,9.477970123E0
1.981033814E0,2.834298372E0,1.004686356E0,9.624231339E0
1.997699752E0,2.769393206E0,1.012163997E0,9.661320686E0
2.014365689E0,2.714657307E0,1.019641519E0,9.474679947E0
2.031031627E0,2.736491680E0,1.089033365E0,9.317950249E0
2.047697564E0,2.744866610E0,1.049252748E0,9.586544991E0
2.064363502E0,2.808276415E0,9.658030272E-1,9.706784248E0
2.081029439E0,2.737090111E0,1.025025368E0,9.607182503E0
2.097695377E0,2.612962246E0,1.066600680E0,9.618847847E0
2.114361314E0,2.703590393E0,1.056132078E0,9.599705696E0
2.131027252E0,2.688635349E0,1.131805062E0,9.456435204E0
2.147693189E0,2.626721144E0,1.157527924E0,9.366405487E0
2.164359127E0,2.746062994E0,1.099202871E0,9.436694145E0
2.181025064E0,2.737688303E0,1.060917735E0,9.513862610E0
2.197691002E0,2.609971285E0,1.063908815E0,9.588339806E0
2.214356939E0,2.679662228E0,1.048355460E0,9.596714020E0
2.231022877E0,2.712264538E0,1.077966571E0,9.513564110E0
2.247688814E0,2.721237659E0,1.082453132E0,9.470493317E0
2.264354752E0,2.761616468E0,1.084846020E0,9.388837814E0
2.281020689E0,2.632404089E0,1.110568762E0,9.334401131E0
2.297686627E0,2.579462767E0,1.054636598E0,9.504590988E0
2.314352564E0,2.695813894E0,1.007378340E0,9.605388641E0
2.331018502E0,2.744268417E0,1.077966571E0,9.413364410E0
2.347684439E0,2.734398127E0,1.133001566E0,9.253344536E0
2.364350377E0,2.638386011E0,1.076770186E0,9.419346809E0
2.381016314E0,2.621935368E0,1.036690354E0,9.591928482E0
2.397682252E0,2.735893488E0,1.090528965E0,9.461520195E0
2.414348189E0,2.641975403E0,1.185045362E0,9.323334694E0
2.431014127E0,2.546860695E0,1.173679471E0,9.355039597E0
2.447680064E0,2.643470764E0,1.138684511E0,9.464211464E0
2.464346002E0,2.609373093E0,1.126720309E0,9.506086349E0
2.481011939E0,2.629412889E0,1.112961650E0,9.456734657E0
2.497677877E0,2.723331213E0,1.089631557E0,9.522537231E0
2.514343814E0,2.766103029E0,1.048654556E0,9.625128746E0
2.531009752E0,2.660818815E0,1.037886858E0,9.681061745E0
2.547675689E0,2.636890650E0,1.061515927E0,9.632008553E0
2.564341627E0,2.716152906E0,1.084546804E0,9.545567513E0
2.581007564E0,2.704188585E0,1.145563841E0,9.478569031E0
2.597673502E0,2.717050076E0,1.174576759E0,9.375976562E0
2.614339439E0,2.686541557E0,1.156331539E0,9.408279419E0
2.631005377E0,2.744567633E0,1.126421213E0,9.507282257E0
2.647671314E0,2.787040234E0,1.108175993E0,9.567103386E0
2.664337252E0,2.697608471E0,1.123430252E0,9.518349648E0
2.681003189E0,2.680858612E0,1.103091240E0,9.452845573E0
2.697669127E0,2.736192703E0,1.081854939E0,9.598209381E0
2.714335064E0,2.680260420E0,1.006780148E0,9.743574142E0
2.731001002E0,2.678765059E0,1.031605721E0,9.662218094E0
2.747666939E0,2.693121910E0,1.075872898E0,9.454939842E0
2.764332877E0,2.713460922E0,1.116850019E0,9.404391289E0
2.780998814E0,2.765504837E0,1.092622638E0,9.485149384E0
2.797664752E0,2.746960402E0,1.098903775E0,9.427422523E0
2.814330689E0,2.711367130E0,1.111167073E0,9.397212982E0
2.830996627E0,2.700898647E0,1.083051324E0,9.361918449E0
2.847662564E0,2.679662228E0,1.061216831E0,9.361619949E0
2.864328502E0,2.710469961E0,1.056730270E0,9.295816422E0
2.880994439E0,2.745165825E0,1.037886858E0,9.410672188E0
2.897660377E0,2.810370207E0,1.035194874E0,9.504590988E0
2.914326314E0,2.731407166E0,1.112662554E0,9.477072716E0
2.930992252E0,2.682054996E0,1.166800141E0,9.387342453E0
2.947658189E0,2.664707184E0,1.227517962E0,9.350852013E0
2.964324127E0,2.653939486E0,1.246959686E0,9.323035240E0
2.980990064E0,2.672483683E0,1.283749342E0,9.415757179E0
2.997656002E0,2.724228621E0,1.285543919E0,9.486943245E0
3.014321939E0,2.770589590E0,1.227817178E0,9.503992081E0
3.030987877E0,2.775375128E0,1.206580877E0,9.512367249E0
3.047653814E0,2.801995277E0,1.188634634E0,9.522537231E0
3.064319752E0,2.867797852E0,1.246959686E0,9.477072716E0
3.080985689E0,2.849851847E0,1.240080357E0,9.447162628E0
3.097651627E0,2.755335331E0,1.192822099E0,9.487242699E0
3.114317564E0,2.765504837E0,1.153938770E0,9.480961800E0
3.130983502E0,2.949453115E0,1.179960608E0,9.457332611E0
3.147649439E0,2.971287489E0,1.156929731E0,9.341579437E0
3.164315377E0,2.938086987E0,1.227817178E0,9.288339615E0
3.180981314E0,2.905185699E0,1.465005636E0,9.312267303E0
3.197647252E0,2.859722137E0,1.373480201E0,9.312865257E0
3.214313189E0,2.949153900E0,1.427019596E0,9.384949684E0
3.230979127E0,3.200101137E0,1.460519075E0,9.139386177E0
3.247645064E0,3.347558975E0,1.536192179E0,8.935696602E0
3.264311002E0,3.320340633E0,1.610668778E0,9.008079529E0
3.280976939E0,3.158525944E0,1.535893083E0,9.319745064E0
3.297642877E0,3.103790045E0,1.444068432E0,9.501898766E0
3.314308814E0,3.230011463E0,1.395613790E0,9.515059471E0
3.330974752E0,3.239283562E0,1.433001637E0,9.496215820E0
3.347640689E0,3.209971666E0,1.404287815E0,9.454042435E0
3.364306627E0,3.169891834E0,1.451246977E0,9.381360054E0
3.380972564E0,3.088835001E0,1.473679662E0,9.319745064E0
3.397638502E0,3.166003466E0,1.459920883E0,9.312865257E0
3.414304439E0,3.209971666E0,1.366301775E0,9.470493317E0
3.430970377E0,3.118146896E0,1.363011599E0,9.623932838E0
3.447636314E0,3.092125177E0,1.429711580E0,9.369396210E0
3.464302252E0,3.163909674E0,1.498804331E0,9.051449776E0
3.480968189E0,3.128914595E0,1.456929922E0,9.051749229E0
3.497634127E0,3.043371201E0,1.380359530E0,9.238089561E0
3.514300064E0,3.006880760E0,1.318445325E0,9.431609154E0
3.530966002E0,2.927319288E0,1.234397411E0,9.724132538E0
3.547631939E0,3.009273529E0,1.133898854E0,9.868000984E0
3.564297877E0,3.417848110E0,1.207478166E0,9.403793335E0
3.580963814E0,3.423830032E0,1.354038477E0,9.001200676E0
3.597629752E0,3.250051260E0,1.517647743E0,8.871688843E0
3.614295689E0,3.260818958E0,1.523330688E0,9.144171715E0
3.630961627E0,3.285046339E0,1.478166223E0,9.428618431E0
3.647627564E0,3.272484064E0,1.434198022E0,9.521340370E0
3.664293502E0,3.334099293E0,1.460818172E0,9.508777618E0
3.680959439E0,3.230908871E0,1.572383523E0,9.314959526E0
3.697625377E0,3.072085142E0,1.635494232E0,8.987142563E0
3.714291314E0,3.112763166E0,1.489532113E0,8.737391472E0
3.730957252E0,3.608077526E0,7.779664397E-1,8.648259163E0
3.747623189E0,3.483351469E0,1.775773525E0,9.897911072E0
3.764289127E0,3.538685560E0,1.445863128E0,9.383154869E0
3.780955064E0,3.595814228E0,1.459023595E0,9.095717430E0
3.797621002E0,3.564109325E0,1.600200176E0,9.027522087E0
3.814286939E0,3.411267757E0,1.558624864E0,8.877969742E0
3.830952877E0,3.382853031E0,1.555334687E0,8.792427063E0
3.847618814E0,3.492623806E0,1.633400559E0,8.817850113E0
3.864284752E0,3.581158161E0,1.496411443E0,8.776873589E0
3.880950689E0,3.521337509E0,1.616949916E0,8.881259918E0
3.897616627E0,3.498306751E0,1.524527073E0,8.910273552E0
3.914282564E0,3.455834150E0,1.566700578E0,9.074181557E0
3.930948502E0,3.240479946E0,1.468594909E0,9.069695473E0
3.947614439E0,3.107379198E0,1.542473316E0,9.101100922E0
3.964280377E0,3.096312523E0,1.563410521E0,9.092725754E0
3.980946314E0,2.999104023E0,1.676770449E0,9.160622597E0
3.997612252E0,3.061018467E0,1.707877159E0,9.128020287E0
4.014278189E0,3.175275564E0,1.649552107E0,9.232406616E0
4.030944127E0,3.354438305E0,1.595713615E0,9.546165466E0
4.047610064E0,3.403790236E0,1.610070586E0,9.592227936E0
4.064276002E0,3.265903711E0,1.684846282E0,9.575777054E0
4.080941939E0,3.315854073E0,1.699801445E0,9.427721024E0
4.097607877E0,3.327219963E0,1.746760488E0,9.468399048E0
4.114273814E0,3.388236761E0,1.861316919E0,9.475577354E0
4.130939752E0,3.442374468E0,1.974377751E0,9.118149757E0
4.147605689E0,3.360121250E0,2.069791555E0,8.957531929E0
4.164271627E0,3.278466225E0,2.173281193E0,9.050253868E0
4.180937564E0,3.249453068E0,2.109273195E0,8.987740517E0
4.197603502E0,3.166302681E0,2.043171406E0,9.032606125E0
4.214269439E0,3.141477108E0,2.010868311E0,9.062516212E0
4.230935377E0,3.194418192E0,1.943271041E0,8.974580765E0
4.247601314E0,3.069393158E0,1.972583175E0,9.026624680E0
4.264267252E0,2.785544634E0,1.984846354E0,8.960223198E0
4.280933189E0,2.679961443E0,2.047358990E0,8.741280556E0
4.297599127E0,2.657528639E0,2.062912226E0,8.489136696E0
4.314265064E0,2.534597397E0,2.154138565E0,8.590831757E0
4.330931002E0,2.281556368E0,2.335394859E0,8.572586060E0
4.347596939E0,2.136192322E0,2.507079840E0,8.405985832E0
4.364262877E0,2.206481695E0,2.575873613E0,8.519644737E0
4.380928814E0,2.469691992E0,2.359921217E0,9.003892899E0
4.397594752E0,3.009572744E0,2.133799553E0,9.655338287E0
4.414260689E0,3.588635683E0,1.858325839E0,1.042074299E1
4.430926627E0,4.056432724E0,1.598405480E0,1.109791183E1
4.447592564E0,4.334897518E0,1.410868049E0,1.171884918E1
4.464258502E0,4.372584343E0,1.344168067E0,1.227188969E1
4.480924439E0,4.232006073E0,1.469492197E0,1.208554935E1
4.497590377E0,4.047160625E0,1.806581140E0,1.134676456E1
4.514256314E0,3.775574923E0,2.239681959E0,1.049671459E1
4.530922252E0,3.480958700E0,2.719442844E0,9.767801285E0
4.547588189E0,3.017050266E0,2.995813847E0,9.389435768E0
4.564254127E0,2.640180588E0,2.975774050E0,9.301499367E0
4.580920064E0,2.413460732E0,2.825624466E0,9.399306297E0
4.597586002E0,2.362613201E0,2.871387243E0,9.254241943E0
4.614251939E0,2.288435698E0,3.182753325E0,8.394021988E0
4.630917877E0,1.826022744E0,3.626322746E0,7.497311592E0
4.647583814E0,1.230209947E0,3.738187075E0,7.016952515E0
4.664249752E0,1.181157112E0,3.526422262E0,7.199106216E0
4.680915689E0,1.282552958E0,3.093022346E0,7.554440022E0
4.697581627E0,1.123131156E0,2.920140982E0,7.676474094E0
4.714247564E0,7.184450030E-1,2.916850805E0,7.255337238E0
4.730913502E0,4.905286431E-1,2.873181820E0,6.680162430E0
4.747579439E0,4.839483798E-1,2.778067112E0,6.110671043E0
4.764245377E0,3.595215976E-1,2.599203587E0,5.634798050E0
4.780911314E0,1.525424421E-2,2.245065928E0,5.153841019E0
4.797577252E0,-1.992024779E-1,1.780858278E0,4.800899506E0
4.814243189E0,-9.002995491E-2,1.189531922E0,4.227818489E0
4.830909127E0,5.009972453E-1,6.870391965E-1,3.652643681E0
4.847575064E0,7.896314859E-1,1.716850251E-1,3.116053343E0
4.864241002E0,8.225327730E-1,-1.588236094E-1,2.519941330E0
4.880906939E0,8.739784956E-1,-5.913262963E-1,1.720738530E0
4.897572877E0,1.225125194E0,-9.448658228E-1,7.067800164E-1
4.914238814E0,2.574976206E0,-1.765903115E0,3.355933726E-1
4.930904752E0,4.842474937E0,-3.095714331E0,1.326221943E0
4.947570689E0,6.485446453E0,-4.334897518E0,2.693720102E0
4.964236627E0,7.324729443E0,-5.258227825E0,3.900899172E0
4.980902564E0,9.148657799E0,-5.842973709E0,5.431408405E0
4.997568502E0,1.333819199E1,-6.348158360E0,6.673881531E0
5.014234439E0,1.889043808E1,-6.735795975E0,9.488738060E0
5.030900377E0,2.346760750E1,-7.372884750E0,1.649223137E1
5.047566314E0,2.460120773E1,-7.628019333E0,2.364078903E1
5.064232252E0,2.201516533E1,-5.994319916E0,2.677149773E1
5.080898189E0,1.763420486E1,-2.688336134E0,2.475524521E1
5.097564127E0,1.419781303E1,9.990034699E-1,2.188475609E1
5.114230064E0,1.182174015E1,2.481057882E0,2.319662094E1
5.130896002E0,9.845567703E0,2.091326952E0,2.655135918E1
5.147561939E0,8.725427628E0,2.171785593E0,2.572852707E1
5.164227877E0,7.424629688E0,3.931108475E0,2.096980095E1
5.180893814E0,5.626722336E0,6.481857300E0,1.455224991E1
5.197559752E0,3.730111361E0,8.841778755E0,9.574581146E0
5.214225689E0,8.153542876E-1,1.015932655E1,7.062715054E0
5.230891627E0,-1.782054663E0,9.393025398E0,8.596813202E0
5.247557564E0,-2.641676188E0,8.596514702E0,1.074018478E1
5.264223502E0,-2.782254457E0,8.452646255E0,1.021077251E1
5.280889439E0,-2.214856386E0,8.725727081E0,7.414460182E0
5.297555377E0,2.709871531E-1,9.312267303E0,4.670191765E0
5.314221314E0,3.372982502E0,9.964012146E0,4.048057556E0
5.330887252E0,6.536593437E0,9.936494827E0,6.240182400E0
5.347553189E0,9.560223579E0,9.711569786E0,1.423280811E1
5.364219127E0,1.397019577E1,9.047860146E0,2.540429878E1
5.380885064E0,2.255743790E1,7.109674454E0,3.108276558E1
5.397551002E0,3.047379303E1,3.996312857E0,3.204827118E1
5.414216939E0,3.062783051E1,-8.018946648E-1,3.290310669E1
5.430882877E0,2.622623444E1,-5.710172176E0,3.221905899E1
5.447548814E0,2.210130692E1,-9.942477226E0,2.666651344E1
5.464214752E0,1.729113388E1,-1.031994534E1,1.546451378E1
5.480880689E0,1.213071346E1,-8.018049240E0,4.483850479E0
5.497546627E0,7.083353043E0,-6.791429043E0,-1.199701428E0
5.514212564E0,3.293720484E0,-6.955636501E0,-1.554736495E0
5.530878502E0,2.287538528E0,-8.492725372E0,9.487541914E-1
5.547544439E0,2.977867842E0,-1.051226807E1,7.881359458E-1
5.564210377E0,3.268296719E0,-1.192642593E1,-2.641975403E0
5.580876314E0,3.160021305E0,-1.246630669E1,-6.928717136E0
5.597542252E0,1.521536112E0,-1.245075321E1,-9.777072906E0
5.614208189E0,-1.520339727E0,-1.230449200E1,-1.091605663E1
5.630874127E0,-4.446761608E0,-1.188514996E1,-1.053380394E1
5.647540064E0,-4.284647942E0,-1.250249863E1,-8.510971069E0
5.664206002E0,6.750751138E-1,-1.458724499E1,-6.547659874E0
5.680871939E0,5.450850010E0,-1.529791355E1,-6.102594852E0
5.697537877E0,7.801498890E0,-1.376411438E1,-5.416453362E0
5.714203814E0,1.089990520E1,-1.148136139E1,-3.215654612E0
5.730869752E0,1.910489464E1,-8.443971634E0,4.112663865E-1
5.747535689E0,3.176262665E1,-7.428517818E0,6.585646152E0
5.764201627E0,3.967150497E1,-7.833203793E0,1.827847290E1
5.780867564E0,3.859622955E1,-5.473880768E0,2.805883598E1
5.797533502E0,3.212633514E1,-1.806581140E0,3.107439041E1
5.814199439E0,2.313710022E1,2.943470955E0,2.827837753E1
5.830865377E0,1.719392586E1,6.343671799E0,2.383729935E1
5.847531314E0,1.260449219E1,7.923532963E0,1.926581192E1
5.864197252E0,7.569993496E0,8.527122498E0,1.454028606E1
5.880863189E0,5.076074123E0,8.282156944E0,1.136830044E1
5.897529127E0,4.326522350E0,7.571488857E0,9.383752823E0
5.914195064E0,4.201497555E0,7.400701523E0,7.319345474E0
5.930861002E0,2.746062994E0,8.462815285E0,5.862415314E0
5.947526939E0,-1.480858088E0,1.024636555E1,5.518447399E0
5.964192877E0,-6.174080849E0,1.203948689E1,6.460920334E0
5.980858814E0,-6.690930367E0,1.360947800E1,8.496614456E0
5.997524752E0,-6.825526357E-1,1.407727432E1,1.056849957E1
6.014190689E0,8.554939270E0,1.429771328E1,1.117687416E1
6.030856627E0,1.185404301E1,1.449362564E1,1.143589783E1
6.047522564E0,9.752845764E0,1.376680565E1,1.679911041E1
6.064188502E0,1.135394382E1,1.095075321E1,2.518146706E1
6.080854439E0,1.899033737E1,8.055437088E0,2.887449074E1
6.097520377E0,3.018097115E1,5.860022545E0,2.816083145E1
6.114186314E0,3.853730774E1,1.115653515E0,2.925435066E1
6.130852252E0,3.960091400E1,-5.425127029E0,3.213052368E1
6.147518189E0,3.805305862E1,-1.257039452E1,2.989772034E1
6.164184127E0,3.184517860E1,-1.517797279E1,1.870260048E1
6.180850064E0,2.318346024E1,-1.298166084E1,4.874179840E0
6.197516002E0,1.410718536E1,-1.126929760E1,-2.200499535E0
6.214181939E0,6.877570629E0,-1.178016472E1,-1.643869162E0
6.230847877E0,2.010270119E0,-1.284796238E1,9.628120065E-1
6.247513814E0,-5.213362575E-1,-1.415205002E1,2.333002165E-2
6.264179752E0,-3.500699520E0,-1.452563000E1,-5.472684383E0
6.280845689E0,-6.245865345E0,-1.446850109E1,-1.129741287E1
6.297511627E0,-8.958129883E0,-1.449033546E1,-1.383649731E1
6.314177564E0,-1.256231880E1,-1.390947819E1,-1.274955750E1
6.330843502E0,-1.334387493E1,-1.396929836E1,-1.009771156E1
6.347509439E0,-7.772187233E0,-1.601396561E1,-7.843672752E0
6.364175377E0,1.438385487E0,-1.807897186E1,-6.393322945E0
6.380841314E0,6.907181740E0,-1.747568130E1,-6.043372631E0
6.397507252E0,8.919844627E0,-1.579472351E1,-7.216155052E0
6.414173189E0,1.159831047E1,-1.447388554E1,-5.707180977E0
6.430839127E0,2.160539436E1,-1.298255825E1,-8.255238086E-2
6.447505064E0,3.395206070E1,-1.127797127E1,5.508875847E0
6.464171002E0,4.258207321E1,-8.520841599E0,1.020598698E1
6.480836939E0,4.584408951E1,-6.181259155E0,1.598674679E1
6.497502877E0,4.357928085E1,-5.106881618E0,2.140140533E1
6.514168814E0,3.392962646E1,-2.314457655E0,2.503879547E1
6.530834752E0,2.406581306E1,1.071984529E0,2.522663116E1
6.547500689E0,1.768654823E1,4.038486481E0,2.226970100E1
6.564166627E0,1.243998623E1,5.962615013E0,1.778166389E1
6.580832564E0,6.617650032E0,7.258328438E0,1.354995632E1
6.597498502E0,1.974377751E0,7.940581799E0,1.033519936E1
6.614164439E0,-4.118646085E-1,7.939086437E0,8.200502396E0
6.630830377E0,-1.781755567E0,8.982954979E0,6.818048954E0
6.647496314E0,-3.279363394E0,1.053081226E1,6.410072803E0
6.664162252E0,-4.411467552E0,1.275703526E1,6.441777706E0
6.680828189E0,-6.714858532E0,1.453221035E1,6.381059647E0
6.697494127E0,-7.252346516E0,1.477448368E1,7.712964535E0
6.714160064E0,-3.646063566E0,1.336630726E1,1.036869907E1
6.730826002E0,2.781058073E0,1.281236839E1,1.255932808E1
6.747491939E0,9.842875481E0,1.328584862E1,1.331815147E1
6.764157877E0,1.779213142E1,1.288535023E1,1.617757416E1
6.780823814E0,2.641736031E1,1.064536858E1,2.484228516E1
6.797489752E0,3.611965942E1,4.993820667E0,3.541287613E1
6.814155689E0,4.359752655E1,-5.075475693E0,3.938436508E1
6.830821627E0,4.298915100E1,-1.277557945E1,3.294587708E1
6.847487564E0,3.547778320E1,-1.686281967E1,2.257179451E1
6.864153502E0,2.488385963E1,-1.717687798E1,1.423011589E1
6.880819439E0,1.689093590E1,-1.575883102E1,6.390032768E0
6.897485377E0,1.073928738E1,-1.338694572E1,1.226321608E-2
6.914151314E0,6.144170284E0,-1.246780205E1,-2.710469961E0
6.930817252E0,1.534098387E0,-1.261585808E1,-3.074178934E0
6.947483189E0,-2.205285072E0,-1.344437313E1,-3.698705673E0
6.964149127E0,-5.257031441E0,-1.401655674E1,-6.137889385E0
6.980815064E0,-7.011867523E0,-1.432014656E1,-9.067302704E0
6.997481002E0,-8.629117012E0,-1.457228947E1,-1.004955578E1
7.014146939E0,-1.111406326E1,-1.465005684E1,-9.566803932E0
7.030812877E0,-1.120947647E1,-1.545673656E1,-8.233403206E0
7.047478814E0,-5.917749405E0,-1.747448540E1,-7.425826073E0
7.064144752E0,1.096511006E0,-1.871187401E1,-7.936394691E0
7.080810689E0,3.512065411E0,-1.803769493E1,-9.589835167E0
7.097476627E0,3.661916018E0,-1.775354767E1,-1.022094154E1
7.114142564E0,8.508578300E0,-1.800987816E1,-9.501599312E0
7.130808502E0,1.949911118E1,-1.884288025E1,-5.249254704E0
7.147474439E0,2.968625450E1,-1.800090599E1,3.496512175E-1
7.164140377E0,3.876851273E1,-1.597388554E1,7.501199722E0
7.180806314E0,4.698486710E1,-1.612852287E1,1.714487267E1
7.197472252E0,4.790700150E1,-1.457079411E1,2.418126678E1
7.214138189E0,3.905505371E1,-8.463413239E0,2.665723991E1
7.230804127E0,2.840130997E1,-2.468196630E0,2.454946327E1
7.247470064E0,2.144118690E1,1.611266971E0,2.179083824E1
7.264136002E0,1.656999779E1,3.600599766E0,1.947607994E1
7.280801939E0,9.733105659E0,5.869893074E0,1.694716644E1
7.297467877E0,4.125226021E0,8.201399803E0,1.344347572E1
7.314133814E0,1.239482164E0,9.666106224E0,1.134855938E1
7.330799752E0,-1.316351533E0,1.124357414E1,1.098006535E1
7.347465689E0,-3.596711636E0,1.319252872E1,1.001186943E1
7.364131627E0,-6.054738522E0,1.550040627E1,8.215158463E0
7.380797564E0,-8.211568832E0,1.678415489E1,7.249056339E0
7.397463502E0,-6.569195271E0,1.617099380E1,8.551948547E0
7.414129439E0,-3.185445070E-1,1.433001614E1,1.182832050E1
7.430795377E0,7.369893551E0,1.378056431E1,1.680210114E1
7.447461314E0,1.408654690E1,1.363639736E1,2.035634041E1
7.464127252E0,2.206601143E1,1.223061371E1,2.413819695E1
7.480793189E0,3.233241653E1,6.763612270E0,3.273471069E1
7.497459127E0,3.950609970E1,-2.681456804E0,4.025714874E1
7.514125064E0,4.092264938E1,-1.246959686E1,3.941218185E1
7.530791002E0,3.871407700E1,-1.968485451E1,3.089732170E1
7.547456939E0,3.452723312E1,-2.352982140E1,2.149442673E1
7.564122877E0,2.796461868E1,-2.386272240E1,1.305524063E1
7.580788814E0,1.807328796E1,-1.977338982E1,6.247061729E0
7.597454752E0,1.020867825E1,-1.667049599E1,1.372882009E0
7.614120689E0,5.463711262E0,-1.590748501E1,-5.165506005E-1
7.630786627E0,1.592124343E0,-1.671775436E1,-8.509475589E-1
7.647452564E0,-2.389831543E0,-1.829223251E1,-2.283650160E0
7.664118502E0,-6.651747704E0,-1.856591034E1,-7.843672752E0
7.680784439E0,-1.184297657E1,-1.776521301E1,-1.312074375E1
7.697450377E0,-1.756571198E1,-1.728036690E1,-1.403151226E1
7.714116314E0,-2.030549240E1,-1.816182327E1,-1.195573807E1
7.730782252E0,-1.703300858E1,-2.131765747E1,-9.194122314E0
7.747448189E0,-8.914461136E0,-2.487069893E1,-6.758527756E0
7.764114127E0,-2.943171859E-1,-2.655973244E1,-5.617749214E0
7.780780064E0,2.991925716E0,-2.494966316E1,-7.330112934E0
7.797446002E0,5.806184292E0,-2.424677086E1,-1.062173939E1
7.814111939E0,1.416281796E1,-2.596661186E1,-1.046321487E1
7.830777877E0,2.574228477E1,-2.811357307E1,-5.824130535E0
7.847443814E0,3.461397552E1,-2.832533646E1,3.131606579E0
7.864109752E0,4.764199448E1,-2.920858765E1,1.578425503E1
7.880775689E0,5.890291977E1,-2.781267548E1,2.643919563E1
7.897441627E0,5.648706436E1,-2.066262245E1,2.791586494E1
7.914107564E0,4.164707947E1,-1.035284615E1,2.307010078E1
7.930773502E0,2.890081024E1,-2.508874655E0,1.821925163E1
7.947439439E0,2.074308014E1,2.060519457E0,1.660080528E1
7.964105377E0,1.458455276E1,4.557130814E0,1.618535233E1
7.980771314E0,8.378169060E0,7.941778183E0,1.682692719E1
7.997437252E0,4.467998028E0,1.211157131E1,1.728844261E1
8.014103189E0,1.349252820E0,1.605464363E1,1.727917099E1
8.030769127E0,-1.800599098E0,1.866940117E1,1.700668716E1
8.047435064E0,-4.220041752E0,2.006680870E1,1.585334778E1
8.064101002E0,-4.805984497E0,1.949462509E1,1.593829250E1
8.080766939E0,-2.368894368E-1,1.639173317E1,1.804008865E1
8.097432877E0,7.837391376E0,1.301695538E1,1.909203339E1
8.114098814E0,1.456541061E1,1.078744221E1,1.564427471E1
8.130764752E0,1.658076477E1,9.252147675E0,1.370429325E1
8.147430689E0,1.881237221E1,6.096612930E0,2.153630066E1
8.164096627E0,2.537229538E1,-4.501497746E-1,3.474019623E1
8.180762564E0,3.504228973E1,-1.077787113E1,4.130310822E1
8.197428502E0,4.154508591E1,-2.178664970E1,3.526751328E1
8.214094439E0,4.163900375E1,-2.787309456E1,2.697099876E1
8.230760377E0,3.751018524E1,-3.060390282E1,1.966541290E1
8.247426314E0,2.783032227E1,-2.946880722E1,1.182114220E1
8.264092252E0,1.518156242E1,-2.554607391E1,4.273581028E0
8.280758189E0,4.513162613E0,-2.181147575E1,-9.759725332E-1
8.297424127E0,-2.777468920E0,-1.942942047E1,-3.967599154E0
8.314090064E0,-6.770192623E0,-1.842892265E1,-6.357729912E0
8.330756002E0,-8.825029373E0,-1.862602997E1,-9.011968613E0
8.347421939E0,-1.236850071E1,-1.888924026E1,-1.129352474E1
8.364087877E0,-1.836730576E1,-1.907169342E1,-1.357298756E1
8.380753814E0,-2.542045021E1,-1.943809509E1,-1.503021622E1
8.397419752E0,-2.347508621E1,-2.049632072E1,-1.515045547E1
8.414085689E0,-1.385892963E1,-2.295973206E1,-1.304985619E1
8.430751627E0,-5.463412285E0,-2.428056908E1,-9.843772888E0
8.447417564E0,-2.036591291E0,-2.533909416E1,-6.523432732E0
8.464083502E0,4.766203403E0,-2.684537697E1,-3.853940010E0
8.480749439E0,1.407577896E1,-2.733710098E1,-3.713062525E0
8.497415377E0,3.048904610E1,-3.007299423E1,2.342573404E0
8.514081314E0,5.184678268E1,-3.255106354E1,1.691815376E1
8.530747252E0,6.942385864E1,-3.086621475E1,3.572095490E1
8.547413189E0,6.569435120E1,-2.453749847E1,4.476552582E1
8.564079127E0,4.418526459E1,-9.143872261E0,3.129542732E1
8.580745064E0,2.398415947E1,4.643571377E0,4.870889664E0
8.597411002E0,1.565444374E1,1.425374508E1,-7.525726318E0
8.614076939E0,1.516750431E1,1.646441460E1,-1.741077542E0
8.630742877E0,1.563350677E1,1.561944866E1,1.307528019E1
8.647408814E0,1.397707558E1,1.507807255E1,2.327917290E1
8.664074752E0,9.059525490E0,1.731984901E1,2.090609169E1
8.680740689E0,7.369893551E0,1.857488441E1,1.473649693E1
8.697406627E0,7.445267677E0,1.467308712E1,1.447209072E1
8.714072564E0,8.322536469E0,6.961917400E0,1.862662888E1
8.730738502E0,9.934401512E0,-4.662714005E0,2.045235252E1
8.747404439E0,8.158029556E0,-1.841845322E1,1.684188271E1
8.764070377E0,4.801796913E0,-2.484138680E1,1.231974602E1
8.780736314E0,1.206132126E1,-2.916461945E1,1.286590862E1
8.797402252E0,1.630289841E1,-3.018186760E1,1.497278881E1
8.814068189E0,1.091216850E1,-2.700928497E1,8.510073662E0
8.830734127E0,6.219544411E0,-1.905464554E1,-1.562513232E0
8.847400064E0,4.904388905E0,-1.293619728E1,-9.895518303E0
8.864066002E0,3.776472330E0,-9.096315384E0,-1.181964684E1
8.880731939E0,4.599902630E0,-3.562314808E-1,-1.374945831E1
8.897397877E0,4.397110939E0,1.229641628E1,-1.782832336E1
8.914063814E0,5.085047245E0,2.233610153E1,-2.375624275E1
8.930729752E0,1.015543842E1,2.621965408E1,-2.310389900E1
8.947395689E0,1.799731636E1,2.156710815E1,-9.310771942E0
8.964061627E0,1.698395538E1,1.837538147E1,4.736891747E0
8.980727564E0,9.226723671E0,1.550429440E1,1.312074375E1
8.997393502E0,3.504886866E0,1.504277897E1,1.369023609E1
9.014059439E0,7.803592682E-1,1.512054539E1,1.139701462E1
9.030725377E0,-2.549851656E0,1.166471100E1,9.610772133E0
9.047391314E0,-9.547062874E0,9.611370087E0,1.164168072E1
9.064057252E0,-3.301796198E0,2.105684042E0,6.086443424E0
9.080723189E0,1.922513390E1,-4.560719967E0,2.021037817E0
9.097389127E0,2.492663193E1,-5.304289818E0,2.114956141E0
9.114055064E0,2.098116684E1,-1.258415318E1,-1.170688510E0
9.130721002E0,1.810947990E1,-1.644915962E1,4.502694130E0
9.147386939E0,1.897747612E1,-1.682961845E1,1.215165043E1
9.164052877E0,2.437987137E1,-1.582313824E1,1.070040417E1
9.180718814E0,2.178096771E1,-1.313091373E1,5.322834015E0
9.197384752E0,1.520249939E1,-1.174816132E1,1.256231904E0
9.214050689E0,1.350239944E1,-1.056102180E1,3.498007536E0
9.230716627E0,1.523001671E1,-8.887242317E0,5.682355404E0
9.247382564E0,1.578365612E1,-6.847660065E0,7.842476368E-1
9.264048502E0,1.312044430E1,-5.323731422E0,-6.318846226E0
9.280714439E0,1.219143105E1,-5.264808178E0,-9.418747902E0
9.297380377E0,1.865863228E1,-9.684949875E0,-2.935395241E0
9.314046314E0,3.039482880E1,-1.740509224E1,1.186331558E1
9.330712252E0,3.535754395E1,-2.008744621E1,2.560738945E1
9.347378189E0,3.354408264E1,-1.836102486E1,3.120270729E1
9.364044127E0,2.864597511E1,-1.465215015E1,2.956541824E1
9.380710064E0,2.529183578E1,-1.000169945E1,2.725305367E1
9.397376002E0,2.461376953E1,-7.386942387E0,2.799871635E1
9.414041939E0,1.955085564E1,-5.773581982E0,3.275056458E1
9.430707877E0,1.155942726E1,-1.566700578E0,3.440340424E1
9.447373814E0,4.684847832E0,2.880659342E0,2.866691208E1
9.464039752E0,1.054038405E0,6.014359951E0,1.811546135E1
9.480705689E0,-5.768796444E0,9.979565620E0,9.255139351E0
9.497371627E0,-1.010249710E1,1.118674469E1,8.146663666E0
9.514037564E0,-1.198923779E1,1.178524971E1,1.485314751E1
9.530703502E0,-1.113679504E1,1.475085449E1,1.862632942E1
9.547369439E0,-5.796912193E0,1.696451378E1,1.481695557E1
9.564035377E0,-2.567498684E0,2.007159424E1,6.543771744E0
9.580701314E0,-9.511470199E-1,1.977907181E1,7.444071293E0
9.597367252E0,1.122024441E1,1.842473412E1,2.050379753E1
9.614033189E0,3.080041313E1,1.430459309E1,3.694189072E1
9.630699127E0,5.080261612E1,7.832605839E0,5.184080124E1
9.647365064E0,5.413880920E1,-2.021636009E0,7.033672333E1
9.664031002E0,5.247190857E1,-1.228953743E1,7.244868469E1
9.680696939E0,4.772484589E1,-2.147438622E1,5.095396042E1
9.697362877E0,3.603202057E1,-2.426142693E1,2.201725769E1
9.714028814E0,2.185933304E1,-2.223440742E1,3.081058264E0
9.730694752E0,1.001186943E1,-2.030579185E1,-3.114557743E0
9.747360689E0,-2.111965179E0,-2.145285225E1,-2.767598391E0
9.764026627E0,-1.709043694E1,-2.364048958E1,-2.332104683E0
9.780692564E0,-2.436042976E1,-2.500260353E1,-6.413064003E0
9.797358502E0,-1.708295822E1,-3.287319565E1,-1.028016472E1
9.814024439E0,-9.193822861E0,-3.702982712E1,-6.923632145E0
9.830690377E0,-5.473880768E0,-3.733251953E1,-4.600799561E0
9.847356314E0,-9.152546525E-1,-3.602155304E1,-5.832804203E0
9.864022252E0,4.805685043E0,-3.436601639E1,-6.758826733E0
9.880688189E0,6.085546017E0,-3.310948563E1,-8.072785378E0
9.897354127E0,5.615954876E0,-3.303949738E1,-8.374280930E0
9.914020064E0,1.072463131E1,-3.580111313E1,-2.523829699E0
9.930686002E0,2.585325241E1,-3.949712753E1,8.757730484E0
9.947351939E0,4.331786728E1,-4.048057556E1,1.880638885E1
9.964017877E0,5.243093109E1,-3.679802322E1,2.230290222E1
9.980683814E0,4.967051315E1,-3.219483185E1,2.170768738E1
9.997349752E0,4.381826401E1,-3.093441200E1,3.063650513E1
1.001401569E1,4.500719833E1,-2.989981461E1,4.629902267E1
1.003068163E1,4.819294357E1,-2.387139702E1,4.953741074E1
1.004734756E1,4.869124985E1,-1.418854141E1,4.088137436E1
1.006401350E1,4.806253433E1,-4.800002098E0,3.565365601E1
1.008067944E1,4.283092880E1,1.678565025E0,3.656442261E1
1.009734538E1,3.068465996E1,6.657430649E0,3.453680420E1
1.011401131E1,1.747388649E1,1.201974678E1,2.981247711E1
1.013067725E1,6.073582172E0,1.765992928E1,2.443251419E1
1.014734319E1,9.993025661E-1,2.162962151E1,2.322832489E1
1.016400913E1,6.311069429E-2,2.343171501E1,2.485215569E1
1.018067506E1,1.040279627E0,2.211775780E1,2.498017120E1
1.019734100E1,1.782951951E0,1.975245094E1,2.028664970E1
1.021400694E1,2.198405743E0,1.726690674E1,1.260538960E1
1.023067288E1,4.958526611E0,1.591316795E1,8.356634140E0
1.024733881E1,1.009472084E1,1.463240910E1,7.089634418E0
1.026400475E1,1.615992737E1,1.215194988E1,8.996115685E0
1.028067069E1,2.323101807E1,7.953742504E0,1.491655731E1
1.029733663E1,2.734218597E1,5.155336380E0,2.216501617E1
1.031400256E1,3.239522934E1,3.123530865E0,2.952145004E1
1.033066850E1,4.753970337E1,-3.558127165E0,3.727868271E1
1.034733444E1,6.044000626E1,-1.502573013E1,4.085654831E1
1.036400038E1,5.847729492E1,-2.501426888E1,3.392693329E1
1.038066631E1,4.676921463E1,-3.044178963E1,1.889821434E1
1.039733225E1,3.254478073E1,-2.758415985E1,5.835795403E0
1.041399819E1,1.820638847E1,-2.303929329E1,2.350948304E-1
1.043066413E1,8.227720261E0,-2.009731674E1,1.031904742E-1
1.044733006E1,2.022533417E0,-1.978445625E1,1.163509965E0
1.046399600E1,-3.246462107E0,-2.025195312E1,6.939185858E-1
1.048066194E1,-6.591628075E0,-2.036322021E1,-3.800101519E0
1.049732788E1,-8.863314629E0,-1.999921227E1,-9.145966530E0
1.051399381E1,-1.062802124E1,-1.991187286E1,-1.178704453E1
1.053065975E1,-1.306720448E1,-1.965853310E1,-1.095045376E1
1.054732569E1,-1.603131294E1,-1.909233093E1,-9.231210709E0
1.056399163E1,-1.572921944E1,-2.010748672E1,-7.112665176E0
1.058065756E1,-1.028405285E1,-2.253769684E1,-5.667699337E0
1.059732350E1,-3.503690481E0,-2.478545570E1,-5.175376415E0
1.061398944E1,1.723729610E0,-2.581406975E1,-5.190929413E0
1.063065538E1,5.683551788E0,-2.688007164E1,-6.116951942E0
1.064732131E1,1.134556866E1,-2.761137962E1,-8.126324654E0
1.066398725E1,2.011436653E1,-2.932434082E1,-8.918647766E0
1.068065319E1,2.771905518E1,-3.101307487E1,-3.513859987E0
1.069731913E1,3.981537247E1,-3.112912750E1,8.145467758E0
1.071398506E1,5.987051773E1,-3.177967644E1,2.336082840E1
1.073065100E1,6.898657227E1,-2.658366203E1,3.408575821E1
1.074731694E1,5.777260971E1,-1.483849144E1,3.284747314E1
1.076398288E1,3.840988922E1,-3.709473372E0,2.434218407E1
1.078064881E1,2.555564499E1,3.133102179E0,2.007817459E1
1.079731475E1,2.033779526E1,5.933003902E0,1.836192322E1
1.081398069E1,1.454178143E1,8.568697929E0,1.497129345E1
1.083064663E1,8.852845192E0,1.226590824E1,1.184387398E1
1.084731256E1,5.724229813E0,1.538255978E1,1.092712402E1
1.086397850E1,2.383550406E0,1.827099609E1,1.104467106E1
1.088064444E1,-1.281356573E0,1.985444641E1,1.086132145E1
1.089731038E1,-4.172185421E0,2.077358818E1,1.229821110E1
1.091397631E1,-3.370290756E0,1.947667885E1,1.619940948E1
1.093064225E1,3.298206806E0,1.608156204E1,1.956790543E1
1.094730819E1,1.344257832E1,1.217677498E1,1.917069626E1
1.096397413E1,1.807956886E1,9.633803368E0,1.533320713E1
1.098064006E1,1.756361771E1,8.673383713E0,1.714427567E1
1.099730600E1,2.272523499E1,6.122036934E0,2.674816704E1
1.101397194E1,3.561836243E1,5.682953633E-3,3.795704651E1
1.103063788E1,4.848696136E1,-9.126524925E0,4.211906052E1
1.104730381E1,5.217549896E1,-1.711346817E1,3.682135391E1
1.106396975E1,4.760909653E1,-2.250329971E1,2.709482765E1
1.108063569E1,3.594498062E1,-2.501636314E1,1.685623932E1
1.109730163E1,2.034048843E1,-2.154018974E1,6.230012894E0
1.111396756E1,8.443074226E0,-1.715145302E1,-1.286142170E-1
1.113063350E1,2.602493763E0,-1.696182251E1,-1.358225942E0
1.114729944E1,-3.427718580E-1,-2.006949997E1,-1.931007862E0
1.116396538E1,-5.778068542E0,-2.303839493E1,-3.154637575E0
1.118063131E1,-1.262572861E1,-2.360370064E1,-5.370092392E0
1.119729725E1,-1.512114334E1,-2.461347008E1,-8.160123825E0
1.121396319E1,-1.401117325E1,-2.507618332E1,-9.513862610E0
1.123062913E1,-1.340758324E1,-2.479891396E1,-9.190832138E0
1.124729506E1,-1.170927715E1,-2.613650322E1,-7.260122776E0
1.126396100E1,-5.748756409E0,-2.949004364E1,-4.023531437E0
1.128062694E1,1.898405671E0,-3.205903625E1,-1.896910191E0
1.129729288E1,7.467401028E0,-3.228097153E1,-4.374079704E0
1.131395881E1,1.157587814E1,-3.265963745E1,-9.733105659E0
1.133062475E1,1.848216248E1,-3.556003571E1,-9.138189316E0
1.134729069E1,2.808874702E1,-3.844248962E1,5.318048596E-1
1.136395663E1,3.916960907E1,-3.815235901E1,1.363400459E1
1.138062256E1,5.745645905E1,-3.755595016E1,2.501307297E1
1.139728850E1,7.026882935E1,-3.267040253E1,3.259921646E1
1.141395444E1,6.564320374E1,-2.174657059E1,3.476801300E1
1.143062038E1,4.698666000E1,-9.342776299E0,3.004278564E1
1.144728631E1,3.091078186E1,-2.515454888E-1,2.465594292E1
1.146395225E1,2.517518616E1,3.733102322E0,2.406671143E1
1.148061819E1,2.117289162E1,5.608776093E0,2.293311119E1
1.149728413E1,1.460937881E1,8.254639626E0,1.887936974E1
1.151395006E1,7.283154011E0,1.211216927E1,1.401715469E1
1.153061600E1,2.025524378E0,1.650030708E1,1.061157036E1
1.154728194E1,-1.194317579E0,2.072423744E1,9.239884377E0
1.156394788E1,-3.726821184E0,2.342513466E1,9.274281502E0
1.158061381E1,-4.375276089E0,2.368774796E1,1.065135098E1
1.159727975E1,-1.358225942E0,2.161646080E1,1.231525993E1
1.161394569E1,3.972085476E0,1.841187286E1,1.249532032E1
1.163061163E1,7.523931503E0,1.652004814E1,1.125374413E1
1.164727756E1,8.971888542E0,1.493450356E1,1.105872917E1
1.166394350E1,1.164945698E1,1.289761353E1,1.491266918E1
1.168060944E1,1.895235252E1,9.868000984E0,2.150728798E1
1.169727538E1,2.869622421E1,5.709274769E0,2.976132965E1
1.171394131E1,3.997569275E1,-6.326025128E-1,3.927429581E1
1.173060725E1,5.201757050E1,-9.642177582E0,4.685176468E1
1.174727319E1,5.745645905E1,-2.041586113E1,4.232664108E1
1.176393913E1,5.099912643E1,-2.627020073E1,2.569742012E1
1.178060506E1,3.584627914E1,-2.638086891E1,1.334836102E1
1.179727100E1,1.894756699E1,-2.272224426E1,6.458826542E0
1.181393694E1,7.218248844E0,-1.937049675E1,3.599403381E0
1.183060288E1,2.226521492E0,-1.909173393E1,1.312762380E0
1.184726881E1,-5.530411601E-1,-2.114238358E1,-9.822536707E-1
1.186393475E1,-4.382155418E0,-2.403919411E1,-3.395116329E0
1.188060069E1,-9.621838570E0,-2.534238434E1,-6.679863453E0
1.189726663E1,-1.574925995E1,-2.551257324E1,-9.987043381E0
1.191393256E1,-2.143969154E1,-2.553141785E1,-1.169013500E1
1.193059850E1,-2.421476746E1,-2.668206596E1,-1.012582684E1
1.194726444E1,-1.962503433E1,-3.028236771E1,-6.052046776E0
1.196393038E1,-8.731410027E0,-3.444408417E1,-3.500101328E0
1.198059631E1,-1.513460279E-1,-3.598775482E1,-5.176871777E0
1.199726225E1,6.232106686E0,-3.662454224E1,-9.432506561E0
1.201392819E1,1.403450298E1,-3.846372604E1,-1.099771214E1
1.203059413E1,2.187548447E1,-4.123940277E1,-5.712564945E0
1.204726006E1,2.662613487E1,-4.345306015E1,8.991031051E-1
1.206392600E1,3.484966660E1,-4.539752960E1,1.158574772E1
1.208059194E1,5.321876907E1,-4.873132706E1,2.829034233E1
1.209725788E1,6.398766708E1,-4.180350876E1,4.008277130E1
1.211392381E1,6.003741455E1,-2.861606598E1,3.465794373E1
1.213058975E1,4.673302078E1,-1.326401424E1,2.264746857E1
1.214725569E1,3.474528122E1,-4.648656368E0,1.601067543E1
1.216392163E1,2.773640442E1,-2.198106766E0,1.558535099E1
1.218058756E1,2.040838432E1,8.150551915E-1,1.480439377E1
1.219725350E1,1.509033585E1,6.586244106E0,1.317099285E1
1.221391944E1,1.497577953E1,1.309860992E1,1.334866047E1
1.223058538E1,1.639532089E1,1.832423592E1,1.244895935E1
1.224725131E1,1.780768585E1,2.399343109E1,8.191229820E0
1.226391725E1,2.080858421E1,2.667728043E1,6.190531254E0
1.228058319E1,2.202204323E1,2.312364006E1,1.163210869E1
1.229724913E1,2.162812614E1,1.514955807E1,1.970489502E1
1.231391506E1,1.945305061E1,7.339385033E0,2.185065842E1
1.233058100E1,2.003809547E1,1.395314693E0,1.860838318E1
1.234724694E1,2.100030899E1,-6.939484596E0,1.563769436E1
1.236391288E1,1.749153328E1,-1.703510284E1,1.318206024E1
1.238057881E1,1.125823021E1,-2.077149582E1,1.189262772E1
1.239724475E1,6.737889290E0,-2.461676025E1,1.918595123E1
1.241391069E1,9.783653259E0,-3.186551857E1,2.505016136E1
1.243057663E1,1.536012650E1,-3.751617050E1,1.423579884E1
1.244724256E1,1.425793266E1,-3.917379761E1,-6.523731709E0
1.246390850E1,1.069561768E1,-3.442464066E1,-2.489522552E1
1.248057444E1,3.619144201E0,-2.884906578E1,-2.618465805E1
1.249724038E1,-1.141974568E0,-2.562234497E1,-1.436740494E1
1.251390631E1,-6.622136831E-1,-1.908156395E1,-9.750452995E0
1.253057225E1,-3.708875179E-2,-1.220279694E1,-1.880848312E1
1.254723819E1,7.136593461E-1,-7.989335537E0,-2.492065048E1
1.256390413E1,2.602194548E0,-5.120939732E0,-2.079153442E1
1.258057006E1,6.405586243E0,-2.089831591E0,-1.214836025E1
1.259723600E1,1.147478104E1,-6.756733060E-1,-8.612666130E0
1.261390194E1,1.652573013E1,6.284150481E-1,-3.627519131E0
1.263056788E1,1.956521416E1,-1.587338686E0,1.399980736E1
1.264723381E1,2.049632072E1,-2.434098721E0,3.333171844E1
1.266389975E1,1.951167488E1,2.665305376E0,3.850500107E1
1.268056569E1,1.867448616E1,9.049654961E0,2.549403000E1
1.269723163E1,2.155035973E1,1.569422436E1,1.111974621E1
1.271389756E1,2.803311348E1,1.787259102E1,1.503589988E0
1.273056350E1,3.184069252E1,1.506730461E1,-3.904488325E0
1.274722944E1,2.813121986E1,7.721339703E0,-3.200699329E0
1.276389538E1,2.193620110E1,-4.030410767E0,4.129114628E0
1.278056131E1,1.871426582E1,-1.463480282E1,1.360947800E1
1.279722725E1,1.514178181E1,-2.138704872E1,1.636780357E1
1.281389319E1,1.013180923E1,-2.206750679E1,1.364267826E1
1.283055913E1,4.763212681E0,-1.953380775E1,1.010788059E1
1.284722506E1,-1.833500415E-1,-1.407518101E1,9.852148056E0
1.286389100E1,1.574477315E0,-9.287740707E0,9.458230019E0
1.288055694E1,8.830712318E0,-9.061320305E0,4.357329845E0
1.289722288E1,9.439086914E0,-4.068396568E0,-1.043091202E1
1.291388881E1,-7.925028801E0,3.453740358E0,-3.626502228E1
1.293055475E1,-2.548027039E1,6.565905571E0,-4.954698181E1
1.294722069E1,-2.748665237E1,8.837591171E0,-5.928427505E1
1.296388663E1,-1.579831219E1,1.395075417E1,-4.787768936E1
1.298055256E1,-9.142974854E0,2.025943184E1,-8.745766640E0
1.299721850E1,5.787639618E-1,1.461685658E1,4.034059525E1
1.301388444E1,8.925527573E0,1.046052361E1,6.674509430E1
1.303055038E1,2.161466599E1,6.048158169E0,5.661747360E1
1.304721631E1,3.509553146E1,1.403091431E0,4.617699051E1
1.306388225E1,3.728346634E1,-8.835497499E-1,3.945345688E1
1.308054819E1,3.339094162E1,-1.698006749E0,2.708256531E1
1.309721413E1,2.678106880E1,-1.774876237E0,1.782353783E1
1.311388006E1,2.184437752E1,-5.802595019E-1,1.129681492E1
1.313054600E1,1.835324860E1,7.827520967E-1,7.494918823E0
1.314721194E1,1.698904037E1,1.425524116E0,4.147658825E0
1.316387788E1,1.590120411E1,6.726822853E-1,5.148158073E0
1.318054381E1,1.536999702E1,-1.294217944E0,1.096002483E1
1.319720975E1,1.644616890E1,-4.279263973E0,1.751067543E1
1.321387569E1,2.013051796E1,-6.804290295E0,2.022413635E1
1.323054163E1,2.146840477E1,-8.324929237E0,1.799701691E1
1.324720756E1,1.882523346E1,-8.487641335E0,1.237597752E1
1.326387350E1,1.795544243E1,-8.190631866E0,7.502994537E0
1.328053944E1,2.071317101E1,-8.592626572E0,3.795315742E0
1.329720538E1,2.279731941E1,-9.936794281E0,1.046261668E0
1.331387131E1,2.324657059E1,-1.247767258E1,4.965106845E-1
1.333053725E1,2.410948181E1,-1.488216019E1,3.260519981E0
1.334720319E1,2.685225487E1,-1.474487209E1,4.792225361E0
1.336386913E1,2.679542542E1,-1.374706554E1,5.691328526E0
1.338053506E1,2.080290031E1,-1.219980621E1,9.925128937E0
1.339720100E1,1.486092377E1,-8.199007034E0,1.183131123E1
1.341386694E1,1.199043465E1,-2.195713997E0,7.988737583E0
1.343053288E1,9.802198410E0,4.571188450E0,3.004188776E0
1.344719881E1,6.940680981E0,9.908977509E0,1.099202871E0
1.346386475E1,5.481358528E0,1.183520031E1,3.980460405E0
1.348053069E1,2.348256350E0,1.047876835E1,1.150020504E1
1.349719663E1,-7.031907439E-1,7.529614449E0,2.155335045E1
1.351386256E1,-1.381555915E0,5.057230473E0,3.034368324E1
1.353052850E1,1.840379715E0,5.293222904E0,3.348306656E1
1.354719444E1,4.815256596E0,8.346464157E0,2.979752159E1
1.356386038E1,6.540780544E0,1.105274677E1,2.219013977E1
1.358052631E1,7.247859955E0,1.271127224E1,1.485883045E1
1.359719225E1,4.883152962E0,1.492852116E1,1.079761219E1
1.361385819E1,3.201297522E0,1.664357758E1,1.423908901E1
1.363052413E1,5.894120216E0,1.717538261E1,1.879562187E1
1.364719006E1,9.584152222E0,1.470778370E1,1.442303753E1
1.366385600E1,9.530911446E0,1.075813103E1,5.411368370E0
1.368052194E1,5.829813480E0,6.181558132E0,7.001997232E-1
1.369718788E1,2.711666346E0,1.954038739E0,3.042474031E0
1.371385381E1,3.133999348E0,1.828415632E0,7.592426300E0
1.373051975E1,9.363115311E0,4.198207378E0,1.046231747E1
1.374718569E1,1.747328758E1,4.111168385E0,9.960423470E0
1.376385163E1,1.834906197E1,8.285447121E0,9.975976944E0
1.378051756E1,1.542862129E1,1.160698414E1,1.022572803E1
1.379718350E1,1.057866859E1,1.259432316E1,1.185314560E1
1.381384944E1,2.417349100E0,1.214297676E1,1.078594685E1
1.383051538E1,-6.714559555E0,1.046979523E1,3.986143351E0
1.384718131E1,-1.513131332E1,7.936693668E0,-2.231905222E0
1.386384725E1,-2.110529327E1,2.944368362E0,-6.113661766E0
1.388051319E1,-1.751187325E1,-6.402595043E0,-1.361217022E1
1.389717913E1,-3.574577808E0,-1.711466408E1,-2.252633095E1
1.391384506E1,5.704489231E0,-2.826850700E1,-2.090968132E1
1.393051100E1,8.284251213E0,-3.774887085E1,-1.039472103E1
1.394717694E1,7.087241650E0,-4.286113739E1,3.183351517E0
1.396384288E1,1.557129383E1,-4.525037003E1,1.103629589E1
1.398050881E1,2.245065880E1,-4.115744781E1,1.071685410E1
1.399717475E1,1.347667599E1,-3.491965866E1,3.197409153E0
1.401384069E1,8.175377846E0,-3.217868042E1,2.221436739E0
1.403050663E1,1.210558891E1,-3.236920929E1,9.875477791E0
1.404717256E1,2.380529594E1,-3.708695602E1,2.038714790E1
1.406383850E1,3.735525131E1,-3.937838364E1,3.037269592E1
1.408050444E1,4.520101929E1,-3.598147202E1,3.848107529E1
1.409717038E1,4.861467743E1,-3.111686325E1,5.310720444E1
1.411383631E1,4.590361023E1,-2.268366051E1,6.291538239E1
1.413050225E1,3.908555984E1,-1.062024403E1,5.533073425E1
1.414716819E1,3.458017731E1,1.545464277E0,4.426721954E1
1.416383413E1,2.769991302E1,9.054141998E0,3.901168442E1
1.418050006E1,1.404676628E1,1.553390503E1,3.695684814E1
1.419716600E1,1.577169180E0,2.152912331E1,3.702474213E1
1.421383194E1,-3.455534935E0,2.663092041E1,3.710789490E1
1.423049788E1,-6.907480717E0,2.558286285E1,3.495345688E1
1.424716381E1,-1.177747345E1,2.410050964E1,2.853500748E1
1.426382975E1,-8.735896111E0,2.066172409E1,2.293221474E1
1.428049569E1,-6.759724021E-1,1.594995785E1,1.694955826E1
1.429716163E1,2.319841623E0,1.368694592E1,1.246271801E1
1.431382756E1,6.344270229E0,1.322782230E1,9.758230209E0
1.433049350E1,1.472902012E1,1.278844070E1,1.606271935E1
1.434715944E1,2.622922516E1,1.231944752E1,3.020041275E1
1.436382538E1,3.992873383E1,1.156361485E1,4.298885345E1
1.438049131E1,5.599354553E1,5.518147945E0,5.416094208E1
1.439715725E1,6.619564056E1,-9.243474007E0,6.221578217E1
1.441382319E1,6.289295197E1,-2.499602318E1,5.343471909E1
1.443048913E1,4.956702042E1,-3.280470276E1,3.252085114E1
1.444715506E1,3.382763290E1,-3.421945572E1,1.347338581E1
1.446382100E1,1.626521111E1,-3.642803192E1,-6.904190540E0
1.448048694E1,-7.977670670E0,-3.437319565E1,-1.149272728E1
1.449715288E1,-1.813968849E1,-3.597369385E1,-8.047660828E0
1.451381881E1,-2.256162643E1,-4.079762650E1,-7.761120319E0
1.453048475E1,-2.186471558E1,-4.185854340E1,-1.325683594E1
1.454715069E1,-1.477478218E1,-4.184209442E1,-1.540678692E1
1.456381663E1,-4.671388149E0,-4.347938156E1,-1.100249767E1
1.458048256E1,-4.741377831E0,-4.243162537E1,-9.077172279E0
1.459714850E1,-2.025225163E0,-4.337020874E1,-8.326125145E0
1.461381444E1,1.373001671E1,-4.728277206E1,-3.373580933E0
1.463048038E1,3.131008339E1,-4.708745956E1,3.989134550E0
1.464714631E1,3.944568253E1,-4.342524338E1,1.044347477E1
1.466381225E1,5.089922714E1,-4.031038666E1,1.847677803E1
1.468047819E1,6.673791504E1,-3.507369614E1,2.506750870E1
1.469714413E1,6.547241211E1,-2.724647331E1,2.308565331E1
1.471381006E1,5.434429169E1,-2.044158554E1,2.036680984E1
1.473047600E1,5.181747055E1,-1.813131523E1,2.551197624E1
1.474714194E1,4.990949631E1,-1.331605816E1,3.162294579E1
1.476380788E1,4.005764389E1,-5.005186558E0,3.012832832E1
1.478047381E1,2.958964539E1,2.655135870E0,2.670778847E1
1.479713975E1,2.533430862E1,7.455138206E0,2.584846687E1
1.481380569E1,2.004138565E1,1.198624706E1,2.530410004E1
1.483047163E1,1.034148026E1,1.815643883E1,2.490090942E1
1.484713756E1,3.294916868E0,2.366501617E1,2.529991150E1
1.486380350E1,9.511470050E-2,2.680709076E1,2.295045853E1
1.488046944E1,-2.033301115E0,2.878685188E1,1.608485222E1
1.489713538E1,-5.886343718E-1,2.899712181E1,9.200701714E0
1.491380131E1,5.700900078E0,2.541357040E1,7.941479206E0
1.493046725E1,1.373450279E1,1.965315056E1,1.431326675E1
1.494713319E1,1.992952156E1,1.354935837E1,2.311227417E1
1.496379913E1,2.582902527E1,8.481958389E0,2.852633476E1
1.498046506E1,3.187538910E1,4.255036831E0,2.984448051E1
1.499713100E1,3.886452484E1,-1.022034407E0,3.620460129E1
1.501379694E1,5.113970566E1,-1.189920807E1,4.908965302E1
1.503046288E1,6.214698792E1,-2.530559540E1,5.419922638E1
1.504712881E1,6.638108826E1,-3.653840256E1,4.464109802E1
1.506379475E1,5.644219971E1,-4.208496475E1,2.743700218E1
1.508046069E1,4.049732590E1,-4.172933197E1,1.625863075E1
1.509712663E1,2.295195389E1,-3.640410614E1,7.332206726E0
1.511379256E1,8.579465866E0,-3.138994408E1,2.254039049E0
1.513045850E1,-5.808576941E-1,-3.098376274E1,2.305783749E0
1.514712444E1,-6.505187511E0,-3.436183167E1,2.757129908E0
1.516379038E1,-1.290538979E1,-3.533092499E1,-1.670489311E0
1.518045631E1,-2.095484543E1,-3.414737320E1,-1.031456089E1
1.519712225E1,-2.644158745E1,-3.199114227E1,-1.496800327E1
1.521378819E1,-2.682982254E1,-3.021985435E1,-1.660648918E1
1.523045413E1,-2.115015984E1,-3.063859749E1,-1.548874092E1
1.524712006E1,-9.298808098E0,-3.502703476E1,-1.010040379E1
1.526378600E1,3.220141172E0,-3.777967834E1,-4.561617374E0
1.528045194E1,1.196441269E1,-3.924229050E1,-3.547658682E0
1.529711788E1,2.099342918E1,-3.985784531E1,-1.337587833E0
1.531378381E1,3.569194031E1,-3.946302795E1,7.965108395E0
1.533044975E1,5.338985443E1,-3.740340805E1,1.926850319E1
1.534711569E1,6.298387909E1,-2.985315514E1,2.507827759E1
1.536378163E1,6.082076645E1,-2.173670006E1,2.658455849E1
1.538044756E1,5.315386200E1,-1.427258873E1,2.623431015E1
1.539711350E1,4.167220306E1,-7.487142086E0,2.436282349E1
1.541377944E1,2.786262512E1,-1.893021822E0,1.988315964E1
1.543044538E1,2.145524406E1,6.828517914E-1,1.896940041E1
1.544711131E1,1.941566277E1,2.224726915E0,1.947578239E1
1.546377725E1,1.506640816E1,2.950350285E0,1.768535233E1
1.548044319E1,7.933104515E0,5.164608479E0,1.433869076E1
1.549710913E1,8.973084688E-1,8.572885513E0,1.335583878E1
1.551377506E1,-5.408377171E0,1.448136234E1,1.631964874E1
1.553044100E1,-9.337990761E0,2.178904343E1,1.916202354E1
1.554710694E1,-9.420842171E0,2.804956436E1,2.130449677E1
1.556377288E1,-4.810770035E0,2.892862701E1,2.329921341E1
1.558043881E1,6.248258352E-1,2.621666145E1,2.350200462E1
1.559710475E1,3.300599813E0,2.194966125E1,2.102603149E1
1.561377069E1,4.687539577E0,1.659033585E1,2.116750717E1
1.563043663E1,1.164586735E1,1.052034378E1,2.821616554E1
1.564710256E1,2.543271446E1,2.217847586E0,3.744109344E1
1.566376850E1,3.820261002E1,-7.236793041E0,4.263591385E1
1.568043444E1,5.086483002E1,-2.239801598E1,4.486901474E1
1.569710038E1,6.016393661E1,-3.317169952E1,4.027299881E1
1.571376631E1,5.215007401E1,-3.496362686E1,2.359173584E1
1.573043225E1,3.384169006E1,-3.290310669E1,8.464310646E0
1.574709819E1,1.679402542E1,-2.844826889E1,3.282055378E0
1.576376413E1,6.510272026E0,-2.754109001E1,2.265105724E0
1.578043006E1,1.722832322E-1,-2.946701241E1,-3.401995659E0
1.579709600E1,-7.485945702E0,-2.974637413E1,-1.556860161E1
1.581376194E1,-2.400748825E1,-2.572762871E1,-2.739123917E1
1.583042788E1,-3.452932739E1,-2.454736900E1,-3.227588654E1
1.584709381E1,-3.262314606E1,-2.589004135E1,-2.908206749E1
1.586375975E1,-1.972912216E1,-2.988994408E1,-2.310030937E1
1.588042569E1,-3.785146236E0,-3.288964462E1,-1.649611855E1
1.589709163E1,1.007079220E1,-3.297429276E1,-9.272486687E0
1.591375756E1,2.414836693E1,-2.894358253E1,-8.231309652E-1
1.593042350E1,4.500600433E1,-2.087498474E1,8.558229446E0
1.594708944E1,6.199504471E1,-1.148614693E1,1.205623722E1
1.596375538E1,6.726912689E1,-5.531907082E0,9.887741089E0
1.598042131E1,6.167530441E1,-4.422235489E0,1.771915054E1
1.599708725E1,4.339742661E1,8.482556343E-1,3.564587784E1
1.601375319E1,2.782643318E1,9.829416275E0,3.836113358E1
1.603041913E1,1.583510208E1,1.767847252E1,2.122164536E1
1.604708506E1,1.017936707E1,2.223769760E1,6.210870266E0
1.606375100E1,8.746963501E0,2.079183388E1,1.420708561E1
1.608041694E1,5.956034660E0,1.556202126E1,2.822274399E1
1.609708288E1,2.192423791E-1,1.273340607E1,3.032244682E1
1.611374881E1,-2.795714140E0,1.134048367E1,2.256670952E1
1.613041475E1,-1.987239242E0,9.766305923E0,1.579861164E1
1.614708069E1,1.685145378E0,6.199205399E0,1.088495064E1
1.616374663E1,5.641677380E0,1.889731646E0,8.909674644E0
1.618041256E1,1.017099190E1,-5.285446167E0,1.221117210E1
1.619707850E1,1.747478294E1,-1.342971706E1,1.619641876E1
1.621374444E1,2.264417839E1,-1.940908241E1,1.505593872E1
1.623041038E1,1.885963058E1,-2.234507561E1,1.025952625E1
1.624707631E1,8.697312355E0,-2.047358894E1,5.604289532E0
1.626374225E1,-9.747761488E-1,-1.506610870E1,1.378864050E0
1.628040819E1,-6.789634228E0,-1.069202900E1,-3.592225075E0
1.629707413E1,-4.952245712E0,-5.229813099E0,-7.405786037E0
1.631374006E1,-4.800600410E-1,-8.733802438E-1,-1.303639698E1
1.633040600E1,1.819143414E0,4.023531437E0,-2.262294197E1
1.634707194E1,1.267597795E0,1.223719406E1,-2.539502716E1
1.636373788E1,3.161516786E-1,1.386221981E1,-1.973689842E1
1.638040381E1,6.090631008E0,1.081376362E1,-4.688735962E0
1.639706975E1,1.583599949E1,7.036394119E0,5.422136307E0
1.641373569E1,2.347418785E1,5.582156181E0,4.704588413E0
1.643040163E1,2.133949089E1,6.347859383E0,2.414058924E0
1.644706756E1,1.386730480E1,8.551349640E0,4.727021217E0
1.646373350E1,8.248956680E0,1.033011436E1,7.019644260E0
1.648039944E1,7.474878788E0,9.752247810E0,4.794618607E0
1.649706538E1,6.890431881E0,6.480361938E0,2.840579510E0
1.651373131E1,5.895616055E0,2.885145903E0,7.064808607E-1
1.653039725E1,7.174579620E0,3.047857881E-1,-2.152942181E0
1.654706319E1,9.555737495E0,9.900303930E-2,-7.797610760E-1
1.656372913E1,7.599006653E0,1.136590764E-1,3.200400174E-1
1.658039506E1,5.319842815E0,-7.019943595E-1,1.925025821E0
1.659706100E1,5.541179180E0,-1.674377680E0,5.285446167E0
1.661372694E1,6.406184196E0,-1.660618901E0,5.983253002E0
1.663039288E1,1.021107197E1,-2.632104874E0,4.396811485E0
1.664705881E1,1.505743504E1,-3.887738705E0,5.513063431E0
1.666372475E1,1.693161392E1,-4.743771076E0,7.507182121E0
1.668039069E1,1.803260994E1,-5.559125423E0,6.411867142E0
1.669705663E1,2.053221321E1,-6.850651264E0,3.498605728E0
1.671372256E1,2.614128876E1,-1.008275604E1,5.630012512E0
1.673038850E1,2.562174606E1,-1.279023552E1,1.096002483E1
1.674705444E1,1.999023819E1,-1.258176041E1,1.030528927E1
1.676372038E1,1.402164173E1,-9.691230774E0,9.102895737E0
1.678038631E1,1.059033394E1,-6.735496521E0,9.018249512E0
1.679705225E1,9.381958008E0,-6.790531635E0,9.436993599E0
1.681371819E1,1.263470173E1,-8.788239479E0,1.079970551E1
1.683038413E1,1.777448463E1,-1.320718479E1,1.348146152E1
1.684705006E1,2.039043808E1,-1.744337845E1,1.631964874E1
1.686371600E1,1.953500366E1,-2.050290108E1,1.765663910E1
1.688038194E1,1.568734550E1,-2.217428780E1,2.085643959E1
1.689704788E1,1.269123173E1,-2.452972221E1,2.816322327E1
1.691371381E1,1.051286602E1,-2.627408981E1,3.649921799E1
1.693037975E1,9.577571869E0,-2.387707901E1,4.083650970E1
1.694704569E1,1.031904793E1,-1.958645058E1,3.733311844E1
1.696371163E1,1.436411476E1,-1.497787380E1,3.127807999E1
1.698037756E1,1.696331787E1,-1.138654518E1,2.700210571E1
1.699704350E1,1.445982742E1,-3.904787540E0,2.456591415E1
1.701370944E1,1.153340530E1,6.960721016E0,2.249432755E1
1.703037538E1,1.446551037E1,1.516391563E1,1.432313728E1
1.704704131E1,1.403360558E1,1.717298889E1,4.537090778E0
1.706370725E1,6.647560596E0,1.592632866E1,9.098110199E0
1.708037319E1,2.714358091E0,1.830329895E1,1.605643845E1
1.709703913E1,7.147062302E0,1.820908165E1,1.474128342E1
1.711370506E1,9.319147110E0,1.752802467E1,7.625626564E0
1.713037100E1,7.311269760E0,1.621645737E1,-1.833799481E0
1.714703694E1,4.752145767E0,1.224197960E1,-6.690631390E0
1.716370288E1,4.859523773E0,6.154040813E0,-1.382453322E0
1.718036881E1,9.654740334E0,1.722832322E-1,8.098807335E0
1.719703475E1,1.884796524E1,-1.983051777E0,1.535025597E1
1.721370069E1,2.730270386E1,-1.367498159E0,1.973510361E1
1.723036663E1,3.309752274E1,-6.340979934E-1,2.492992210E1
1.724703256E1,3.534647751E1,-4.187439680E-1,3.308795166E1
1.726369850E1,3.484278870E1,-4.501497746E-1,3.461786270E1
1.728036444E1,3.081327438E1,-3.652045429E-1,2.313680077E1
1.729703038E1,2.275514603E1,-1.610967875E0,6.517151356E0
1.731369631E1,8.062616348E0,-3.486342669E0,-1.023828983E1
1.733036225E1,-1.172423267E1,-2.530110836E0,-2.232114601E1
1.734702819E1,-2.664976311E1,-1.680957913E0,-2.475434875E1
1.736369413E1,-3.286183167E1,-5.802894115E0,-1.769522285E1
1.738036006E1,-2.947867775E1,-1.342403412E1,-1.086580753E1
1.739702600E1,-1.308305645E1,-2.111366844E1,-9.104091644E0
1.741369194E1,-3.622135162E0,-2.841656303E1,-8.318946838E0
1.743035788E1,5.278566837E0,-3.323361588E1,-2.433500528E0
1.744702381E1,1.575344658E1,-3.470280838E1,2.386840582E0
1.746368975E1,2.558376122E1,-3.334817123E1,5.572285652E0
1.748035569E1,2.212762833E1,-3.121048355E1,4.604688168E0
1.749702163E1,1.564128304E1,-3.293062210E1,6.094818592E0
1.751368756E1,1.363699532E1,-3.440729523E1,1.030917740E1
1.753035350E1,1.596162224E1,-3.551666641E1,1.700130463E1
1.754701944E1,2.531815720E1,-3.743331909E1,2.499572372E1
1.756368538E1,3.228127289E1,-3.550350571E1,2.760120964E1
1.758035131E1,3.336910629E1,-3.323870087E1,2.528734970E1
1.759701725E1,2.984148979E1,-3.435614777E1,3.179014397E1
1.761368319E1,3.756970978E1,-3.696073532E1,5.008386993E1
1.763034913E1,5.209743118E1,-3.385096359E1,5.880600739E1
1.764701506E1,5.798975754E1,-2.193829536E1,4.433003235E1
1.766368100E1,4.732075882E1,-8.726624489E0,2.822543716E1
1.768034694E1,3.756671906E1,-2.132603168E0,3.175066185E1
1.769701288E1,3.355395508E1,9.960124493E-1,3.944777679E1
1.771367881E1,2.469392967E1,8.750552177E0,3.405136108E1
1.773034475E1,1.735753632E1,1.682184219E1,2.954148865E1
1.774701069E1,1.382213974E1,2.024537277E1,2.799213600E1
1.776367663E1,6.554240227E0,2.037548256E1,3.321207809E1
1.778034256E1,2.404786825E0,2.167508507E1,3.779523087E1
1.779700850E1,5.819045544E0,2.021456528E1,3.158047295E1
1.781367444E1,9.431011200E0,1.764706612E1,1.831556129E1
1.783034038E1,9.135796547E0,1.621765518E1,5.912365437E0
1.784700631E1,8.977272034E0,1.681586075E1,5.814558864E-1
1.786367225E1,1.297029495E1,1.595384598E1,3.610470295E0
1.788033819E1,1.975215340E1,1.275553894E1,8.526823044E0
1.789700413E1,2.771546555E1,9.699306488E0,9.210871696E0
1.791367006E1,2.696083069E1,8.120343208E0,1.370190048E1
1.793033600E1,3.098615646E1,4.680660248E0,2.720280457E1
1.794700194E1,4.239334106E1,-5.109573841E0,3.890699768E1
1.796366788E1,5.002584457E1,-1.588505268E1,3.793012619E1
1.798033381E1,4.739942551E1,-2.266601181E1,2.871267509E1
1.799699975E1,4.194588089E1,-2.485305214E1,1.775713730E1
1.801366569E1,3.387488937E1,-2.292294121E1,7.250551701E0
1.803033163E1,2.118306160E1,-1.984248161E1,5.997011662E-1
1.804699756E1,8.988937378E0,-1.741107559E1,-1.825424552E0
1.806366350E1,-3.119642437E-1,-1.541246986E1,-1.717149377E0
1.808032944E1,-5.458028316E0,-1.487557983E1,-2.764906645E0
1.809699538E1,-8.609375954E0,-1.425045490E1,-5.385944843E0
1.811366131E1,-9.614959717E0,-1.360409451E1,-7.219145775E0
1.813032725E1,-9.344570160E0,-1.352632713E1,-7.550850868E0
1.814699319E1,-7.498806953E0,-1.404527092E1,-6.623931408E0
1.816365913E1,-4.970490932E0,-1.495873070E1,-5.995815277E0
1.818032506E1,-3.252145052E0,-1.533171177E1,-6.705586433E0
1.819699100E1,-2.757129908E0,-1.541755486E1,-7.512565613E0
1.821365694E1,-7.390831113E-1,-1.585394573E1,-6.953243732E0
1.823032288E1,3.349353552E0,-1.612523270E1,-5.729613781E0
1.824698881E1,7.131807804E0,-1.623410606E1,-4.313960075E0
1.826365475E1,1.160758305E1,-1.517408466E1,-3.516252756E0
1.828032069E1,1.336451244E1,-1.358076382E1,-1.947159410E0
1.829698663E1,1.470509148E1,-1.094118118E1,-8.991031051E-1
1.831365256E1,1.952393723E1,-1.033609676E1,1.859223247E0
1.833031850E1,3.004009438E1,-1.003908730E1,8.018648148E0
1.834698444E1,4.169373703E1,-1.016441154E1,1.597837257E1
1.836365038E1,4.436711884E1,-1.018564796E1,2.143460655E1
1.838031631E1,3.707289886E1,-6.368796349E0,2.240758705E1
1.839698225E1,2.891935539E1,-3.162414312E0,1.870738602E1
1.841364819E1,2.085643959E1,6.640082598E-2,1.360798264E1
1.843031413E1,1.422622776E1,2.626721144E0,8.353941917E0
1.844698006E1,1.035135078E1,4.100400925E0,3.871587038E0
1.846364600E1,8.088338852E0,5.209773064E0,9.008977413E-1
1.848031194E1,6.471687794E0,5.296513081E0,-2.817548811E-1
1.849697788E1,5.199603558E0,4.845765114E0,6.128616929E-1
1.851364381E1,4.311567307E0,4.757828712E0,2.959323406E0
1.853030975E1,4.102195263E0,5.818746567E0,6.876074791E0
1.854697569E1,2.189133644E0,8.638986588E0,1.017607689E1
1.856364163E1,-2.452643216E-1,1.183520031E1,1.110239792E1
1.858030756E1,-2.310569286E0,1.440509129E1,1.222612762E1
1.859697350E1,-2.077269077E0,1.578515148E1,1.456571007E1
1.861363944E1,2.027318954E0,1.471197128E1,1.681945038E1
1.863030538E1,7.805088520E0,1.311087322E1,1.828475380E1
1.864697131E1,1.201974678E1,1.041446114E1,1.904986000E1
1.866363725E1,1.386730480E1,6.789933205E0,2.316670990E1
1.868030319E1,1.586680698E1,1.990828395E0,2.769004250E1
1.869696913E1,1.799821281E1,-2.949153900E0,2.854906654E1
1.871363506E1,1.955205345E1,-7.328019142E0,2.572074890E1
1.873030100E1,2.530170631E1,-1.219741344E1,2.136700821E1
1.874696694E1,2.619183731E1,-1.208614731E1,1.794108582E1
1.876363288E1,2.158116722E1,-1.204068375E1,1.551775360E1
1.878029881E1,1.618564987E1,-1.267687511E1,1.378206062E1
1.879696475E1,1.207956696E1,-1.172991562E1,1.080808067E1
1.881363069E1,1.029362392E1,-9.418449402E0,5.795117378E0
1.883029663E1,9.435498238E0,-7.580163002E0,1.635793328E0
1.884696256E1,8.304290771E0,-5.910272121E0,-9.966106415E-1
1.886362850E1,7.121638298E0,-4.860421181E0,-2.737090111E0
1.888029444E1,5.967101574E0,-4.267300129E0,-3.822833300E0
1.889696038E1,5.065904617E0,-4.765605450E0,-4.116253376E0
1.891362631E1,4.826622486E0,-5.898307800E0,-3.394218922E0
1.893029225E1,5.121238708E0,-7.367500782E0,-2.882154942E0
1.894695819E1,5.097908497E0,-8.448458672E0,-2.784647465E0
1.896362413E1,4.467998028E0,-8.871688843E0,-3.067299604E0
1.898029006E1,4.112364769E0,-8.689535141E0,-4.642973423E0
1.899695600E1,3.746263027E0,-8.041080475E0,-6.274280071E0
1.901362194E1,2.658725023E0,-7.345666409E0,-6.645167351E0
1.903028788E1,1.810768485E0,-7.107879639E0,-5.075775146E0
1.904695381E1,2.369791746E0,-6.815656185E0,-1.271486163E0
1.906361975E1,4.339982033E0,-4.887340069E0,2.609373093E0
1.908028569E1,6.718148708E0,-1.215852976E0,3.453740358E0
1.909695163E1,9.643972397E0,2.169093609E0,1.208973646E0
1.911361756E1,1.604237938E1,2.985046148E0,3.279961586E0
1.913028350E1,2.439931297E1,3.795614839E-1,1.257817173E1
1.914694944E1,2.895973396E1,-1.532004714E0,2.322324181E1
1.916361538E1,2.653580475E1,-1.362413406E0,3.095385361E1
1.918028131E1,2.303779793E1,1.444068432E0,3.189961624E1
1.919694725E1,2.020230293E1,4.802095890E0,2.564926338E1
1.921361319E1,1.549083424E1,7.987242222E0,1.565205097E1
1.923027913E1,1.059990501E1,1.043809032E1,5.915356636E0
1.924694506E1,7.275676250E0,1.086670494E1,9.945169091E-1
1.926361100E1,5.797211170E0,9.386744499E0,1.330409408E0
1.928027694E1,3.478864908E0,6.867999077E0,2.746661186E0
1.929694288E1,1.088136077E0,4.830510616E0,4.820640087E0
1.931360881E1,-6.215356588E-1,3.244368315E0,6.230910301E0
1.933027475E1,-1.783849239E0,2.830111027E0,6.052644730E0
1.934694069E1,-2.777169704E0,2.984447956E0,5.379962444E0
1.936360663E1,-4.106681824E0,3.648157120E0,4.557130814E0
1.938027256E1,-5.356931686E0,4.602893353E0,4.201497555E0
1.939693850E1,-5.749952793E0,5.155635357E0,4.867898464E0
1.941360444E1,-5.021936417E0,5.452046394E0,6.736992359E0
1.943027038E1,-2.688934565E0,5.540879726E0,8.292626381E0
1.944693631E1,4.926223755E-1,5.674279690E0,9.293423653E0
1.946360225E1,3.706482172E0,6.406483650E0,1.095164967E1
1.948026819E1,6.448657036E0,7.236793041E0,1.471675682E1
1.949693413E1,1.023051357E1,5.279763222E0,1.980030823E1
1.951360006E1,1.436710548E1,2.397010088E0,2.267947197E1
1.953026600E1,1.829223251E1,-4.486542568E-2,2.117947197E1
1.954693194E1,1.916920090E1,-1.244267747E-1,1.664925957E1
1.956359788E1,1.835474396E1,1.181456149E-1,1.335763359E1
1.958026381E1,1.656042671E1,-7.911269665E-1,1.198654556E1
1.959692975E1,1.414905930E1,-1.959422588E0,1.027836990E1
1.961359569E1,1.155823040E1,-2.190928221E0,7.558328629E0
1.963026163E1,9.314062119E0,-1.716252089E0,4.962714195E0
1.964692756E1,7.311269760E0,-1.056730270E0,3.151347399E0
1.966359350E1,5.577968597E0,-8.407780528E-1,2.275873423E0
1.968025944E1,4.490729809E0,-1.142871857E0,2.022234201E0
1.969692538E1,3.873680830E0,-1.637288928E0,1.981257200E0
1.971359131E1,3.540181160E0,-2.248056889E0,1.851446509E0
1.973025725E1,3.345165968E0,-2.631207705E0,1.482951880E0
1.974692319E1,3.764209032E0,-2.987738132E0,7.232306600E-1
1.976358913E1,4.295714855E0,-3.416950703E0,1.836491376E-1
1.978025506E1,4.738686085E0,-3.592823267E0,2.126621157E-1
1.979692100E1,4.895416260E0,-3.646362543E0,4.046861231E-1
1.981358694E1,5.247459888E0,-3.453740358E0,4.555336237E-1
1.983025288E1,6.030212402E0,-3.239582777E0,-1.148554832E-1
1.984691881E1,6.893423080E0,-2.582154751E0,2.338984162E-1
1.986358475E1,7.608278751E0,-1.960319996E0,1.150349498E0
1.988025069E1,8.596514702E0,-1.277767301E0,2.015055656E0
1.989691663E1,9.009874344E0,-8.042874932E-1,2.312064886E0
1.991358256E1,8.883054733E0,3.810569942E-1,3.480360508E0
1.993024850E1,9.266205788E0,1.031605721E0,6.230610847E0
1.994691444E1,1.140180016E1,6.556333899E-1,1.165753269E1
1.996358038E1,1.429292774E1,-3.493520916E-1,1.699233055E1
1.998024631E1,1.593350697E1,-1.898704767E0,2.096352005E1
1.999691225E1,1.593619919E1,-2.877369165E0,2.276740837E1
2.001357819E1,1.519920921E1,-2.289033890E0,2.124676895E1
2.003024413E1,1.360110283E1,-9.466604590E-1,1.665942955E1
2.004691006E1,1.084666538E1,7.465606928E-1,1.157916832E1
2.006357600E1,8.105687141E0,2.353640079E0,7.416254520E0
2.008024194E1,6.076872349E0,3.085843801E0,5.196313381E0
2.009690788E1,4.954937458E0,3.302992582E0,4.523033142E0
2.011357381E1,4.359124660E0,3.166601658E0,4.463511467E0
2.013023975E1,3.976871252E0,2.913859844E0,4.607978344E0
2.014690569E1,3.719642878E0,2.749054193E0,4.688436985E0
2.016357163E1,3.821935892E0,2.705385208E0,4.392025948E0
2.018023756E1,3.823431492E0,2.867199659E0,4.260121822E0
2.019690350E1,3.759722471E0,2.832503796E0,4.357928276E0
2.021356944E1,3.544966698E0,2.749951363E0,4.925326347E0
2.023023538E1,3.421138287E0,2.522633314E0,5.820540905E0
2.024690131E1,3.138485909E0,2.245963097E0,6.792026997E0
2.026356725E1,2.653640270E0,2.022533417E0,7.377371311E0
2.028023319E1,2.757728100E0,1.827518344E0,7.733603001E0
2.029689913E1,3.099602699E0,2.267797709E0,8.177172661E0
2.031356506E1,3.253341436E0,3.059522867E0,8.453543663E0
2.033023100E1,4.029812336E0,2.772683144E0,8.993423462E0
2.034689694E1,6.848557472E0,1.690529227E0,1.083440208E1
2.036356288E1,1.016710377E1,5.973083377E-1,1.299272823E1
2.038022881E1,1.189352512E1,-6.619145870E-1,1.395613766E1
2.039689475E1,1.171914768E1,-1.371685624E0,1.332832146E1
2.041356069E1,9.832406998E0,-1.406680584E0,1.231675529E1
2.043022663E1,8.172386169E0,-9.640084505E-1,1.097468090E1
2.044689256E1,7.743473053E0,-5.033900738E-1,9.913165092E0
2.046355850E1,7.856235027E0,-3.161516786E-1,9.243174553E0
2.048022444E1,7.482356548E0,-2.428714931E-1,9.050851822E0
2.049689038E1,6.801897526E0,-1.471585929E-1,8.695816994E0
2.051355631E1,6.004489422E0,7.387840003E-2,8.135597229E0
2.053022225E1,5.301597595E0,1.441675574E-1,7.983054638E0
2.054688819E1,4.745565414E0,6.789634377E-2,8.064709663E0
2.056355413E1,4.572384834E0,3.529413417E-2,7.846364498E0
2.058022006E1,4.363012791E0,1.133599728E-1,7.320840836E0
2.059688600E1,3.959523201E0,2.557329237E-1,6.763014317E0
2.061355194E1,3.283550978E0,4.677968323E-1,6.504888535E0
2.063021788E1,2.848057270E0,5.102694035E-1,6.827022076E0
2.064688381E1,2.916551590E0,3.966103494E-1,7.694420338E0
2.066354975E1,3.240779161E0,2.775674164E-1,8.346165657E0
2.068021569E1,3.347259760E0,4.402793646E-1,8.649456024E0
2.069688163E1,3.388535976E0,6.460621357E-1,8.451748848E0
2.071354756E1,3.100799084E0,1.198505044E0,8.487341881E0
2.073021350E1,3.024827003E0,1.355534077E0,8.842376709E0
2.074687944E1,3.732803345E0,1.516451359E0,9.254241943E0
2.076354538E1,4.463810444E0,1.597807288E0,9.324830055E0
2.078021131E1,4.722534657E0,1.231406331E0,9.460323334E0
2.079687725E1,4.960620403E0,9.747761488E-1,9.353244781E0
2.081354319E1,4.552345276E0,8.051848412E-1,9.235098839E0
2.083020913E1,3.654139280E0,5.823532343E-1,9.399007797E0
2.084687506E1,3.015853882E0,2.222333997E-1,1.007527924E1
2.086354100E1,3.394218922E0,-2.823530734E-1,1.134227848E1
2.088020694E1,4.153042793E0,-4.118646085E-1,1.192403316E1
2.089687288E1,4.995017052E0,-4.483551383E-1,1.149781227E1
2.091353881E1,5.574977875E0,-6.969095767E-2,1.053978539E1
2.093020475E1,5.898906231E0,3.711866140E-1,9.487242699E0
2.094687069E1,6.062814236E0,6.326025128E-1,9.078069687E0
2.096353663E1,5.860620975E0,8.970093727E-1,9.198308945E0
2.098020256E1,6.036194324E0,1.148554921E0,9.343972206E0
2.099686850E1,6.389733791E0,1.395314693E0,9.290432930E0
2.101353444E1,6.632904530E0,1.673779488E0,9.243772507E0
2.103020038E1,6.313163280E0,1.908874273E0,9.145069122E0
2.104686631E1,5.697011471E0,2.078465462E0,8.857631683E0
2.106353225E1,5.015356064E0,2.233999014E0,8.968000412E0
2.108019819E1,4.791627407E0,2.277369022E0,9.526125908E0
2.109686413E1,4.864608288E0,2.434996128E0,9.849157333E0
2.111353006E1,5.050650597E0,2.453540564E0,9.859027863E0
2.113019600E1,5.367400169E0,2.529811859E0,9.461818695E0
2.114686194E1,5.254040241E0,2.469991207E0,8.854939461E0
2.116352788E1,5.034199715E0,2.413759947E0,8.670990944E0
2.118019381E1,4.592424870E0,2.392822742E0,8.645866394E0
2.119685975E1,4.034897327E0,2.428714991E0,8.603992462E0
2.121352569E1,3.841676712E0,2.604587555E0,8.141878128E0
2.123019163E1,3.962514400E0,2.807080030E0,7.692326546E0
2.124685756E1,3.889533281E0,3.103790045E0,7.196712971E0
2.126352350E1,3.623929977E0,3.460918903E0,6.828816891E0
2.128018944E1,3.474976778E0,3.784249067E0,6.743871689E0
2.129685538E1,3.399602890E0,3.907479286E0,7.104589462E0
2.131352131E1,3.562314749E0,3.851248026E0,7.820342541E0
2.133018725E1,3.702893019E0,3.760919094E0,8.278866768E0
2.134685319E1,3.686741590E0,3.510869026E0,8.844769478E0
2.136351913E1,3.568894863E0,3.224926710E0,9.312865257E0
2.138018506E1,3.648755312E0,2.780459881E0,9.845567703E0
2.139685100E1,3.736093521E0,2.439781904E0,1.030319500E1
2.141351694E1,3.656831264E0,2.124527454E0,1.060528946E1
2.143018288E1,3.575475216E0,1.911865234E0,1.069711399E1
2.144684881E1,3.455834150E0,1.659123421E0,1.073958588E1
2.146351475E1,3.352643728E0,1.420140266E0,1.093968582E1
2.148018069E1,3.068495989E0,1.383051515E0,1.093998528E1
2.149684663E1,2.721536636E0,1.596610904E0,1.061456108E1
2.151351256E1,2.529213428E0,1.731805444E0,1.018056297E1
2.153017850E1,2.624029160E0,1.797308922E0,9.783055305E0
2.154684444E1,2.558226585E0,1.820040703E0,9.398708344E0
2.156351038E1,2.295913219E0,1.821835399E0,9.217152596E0
2.158017631E1,2.014158487E0,1.708176255E0,9.109476089E0
2.159684225E1,1.790429592E0,1.707578063E0,9.029315948E0
2.161350819E1,1.590030670E0,1.632802367E0,8.868997574E0
2.163017413E1,1.421635747E0,1.667498231E0,8.689535141E0
2.164684006E1,1.132702470E0,1.746760488E0,8.326724052E0
2.166350600E1,9.017950296E-1,2.014457464E0,8.019246101E0
2.168017194E1,5.297111273E-1,2.239981174E0,8.095517159E0
2.169683788E1,2.395813614E-1,2.431107759E0,8.617751122E0
2.171350381E1,3.200400174E-1,2.586043119E0,9.075378418E0
2.173016975E1,6.403791308E-1,2.698804855E0,9.337391853E0
2.174683569E1,9.756734371E-1,2.680858612E0,9.448359489E0
2.176350163E1,1.388734460E0,2.708974361E0,9.266505241E0
2.178016756E1,1.511366606E0,2.842075109E0,9.116654396E0
2.179683350E1,1.478764415E0,2.896212816E0,9.049654961E0
2.181349944E1,1.308874011E0,2.921935558E0,8.983553886E0
2.183016538E1,1.246361494E0,2.934497833E0,9.025128365E0
2.184683131E1,1.319940805E0,2.893221617E0,8.892625809E0
2.186349725E1,1.515254974E0,2.779263496E0,8.743074417E0
2.188016319E1,1.423430324E0,2.548655272E0,8.963513374E0
2.189682913E1,1.120439172E0,2.348854542E0,9.436096191E0
2.191349506E1,8.279166222E-1,2.190330029E0,9.561718941E0
2.193016100E1,8.102695942E-1,2.118545294E0,9.469894409E0
2.194682694E1,7.585247755E-1,2.075773716E0,9.467501640E0
2.196349288E1,5.000999570E-1,2.040479422E0,9.319445610E0
2.198015881E1,2.928216755E-1,1.963909149E0,9.478269577E0
2.199682475E1,4.504488707E-1,1.942373753E0,9.547362328E0
2.201349069E1,7.055835724E-1,1.795215130E0,9.413962364E0
2.203015663E1,9.900303483E-1,1.771286964E0,9.479764938E0
2.204682256E1,1.106680512E0,1.639083505E0,9.760921478E0
2.206348850E1,1.261017561E0,1.523928881E0,1.013689423E1
2.208015444E1,1.178465128E0,1.417448282E0,1.025234795E1
2.209682038E1,8.877372146E-1,1.374377489E0,1.019791126E1
2.211348631E1,9.002995491E-1,1.421336651E0,1.006899738E1
2.213015225E1,1.218544960E0,1.344766378E0,9.976874352E0
2.214681819E1,1.494616866E0,1.332802176E0,1.005643559E1
2.216348413E1,1.649253011E0,1.220339537E0,1.017787075E1
2.218015006E1,1.582553029E0,1.195813060E0,1.013928699E1
2.219681600E1,1.529910922E0,1.351346612E0,1.008006477E1
2.221348194E1,1.567597985E0,1.394417405E0,9.867103577E0
2.223014788E1,1.578664780E0,1.405783296E0,9.611968994E0
2.224681381E1,1.714158297E0,1.366600871E0,9.365208626E0
2.226347975E1,1.709073544E0,1.421336651E0,9.323334694E0
2.228014569E1,1.484148264E0,1.471885085E0,9.481260300E0
2.229681163E1,1.274178028E0,1.571486235E0,9.351449966E0
2.231347756E1,1.275673628E0,1.777867198E0,9.022137642E0
2.233014350E1,1.635793328E0,1.910967946E0,8.808279037E0
2.234680944E1,1.927119493E0,2.077568293E0,8.849555016E0
2.236347538E1,2.081456661E0,2.126322031E0,8.819944382E0
2.238014131E1,2.348256350E0,2.052144527E0,8.650353432E0
2.239680725E1,2.601596355E0,1.955833435E0,8.841180801E0
2.241347319E1,2.488834620E0,1.658226132E0,9.410074234E0
2.243013913E1,2.166102648E0,1.446760416E0,9.907781601E0
2.244680506E1,1.660319805E0,1.403988719E0,1.019222832E1
2.246347100E1,1.372582912E0,1.439880967E0,1.009442139E1
2.248013694E1,1.278664589E0,1.527518153E0,9.866504669E0
2.249680288E1,1.395015597E0,1.645364642E0,9.565009117E0
2.251346881E1,1.375274777E0,1.738385677E0,9.441181183E0
2.253013475E1,1.374078393E0,1.706979871E0,9.584750175E0
2.254680069E1,1.267298698E0,1.708774447E0,9.820143700E0
2.256346663E1,1.060020447E0,1.685444474E0,1.000917721E1
2.258013256E1,1.104885817E0,1.587637782E0,1.006032372E1
2.259679850E1,1.341476202E0,1.557129383E0,9.992726326E0
2.261346444E1,1.569392562E0,1.610967875E0,9.815657616E0
2.263013038E1,1.475773335E0,1.740479350E0,9.643673897E0
2.264679631E1,1.138983607E0,1.768594980E0,9.335597992E0
2.266346225E1,9.451649189E-1,1.789233088E0,9.110671997E0
2.268012819E1,8.784649968E-1,1.742872238E0,9.271888733E0
2.269679413E1,1.019641519E0,1.731506228E0,9.513264656E0
2.271346006E1,1.092024446E0,1.704886079E0,9.562616348E0
2.273012600E1,1.103390336E0,1.700100541E0,9.542876244E0
2.274679194E1,1.693819284E0,1.583450437E0,9.487840652E0
2.276345788E1,1.720738530E0,1.450349569E0,9.741479874E0
2.278012381E1,2.102992058E0,1.198505044E0,9.918548584E0
2.279678975E1,2.447558403E0,1.258923769E0,1.023410225E1
2.281345569E1,2.654238462E0,1.126122117E0,1.022512913E1
2.283012163E1,2.656930447E0,1.040578723E0,1.025623608E1
2.284678756E1,2.673979282E0,1.048953652E0,1.035404301E1
2.286345350E1,2.856431961E0,1.122233868E0,1.013300610E1
2.288011944E1,2.946761131E0,1.262812138E0,9.736096382E0
2.289678538E1,2.930908680E0,1.466202021E0,9.426225662E0
2.291345131E1,2.920739174E0,1.575374603E0,9.269794464E0
2.293011725E1,2.828316450E0,1.631605983E0,9.400503159E0
2.294678319E1,2.837289333E0,1.693221092E0,9.416953087E0
2.296344913E1,2.836990356E0,1.777568102E0,9.265008926E0
2.298011506E1,2.852842808E0,1.744068623E0,9.086444855E0
2.299678100E1,2.761616468E0,1.719841242E0,9.078069687E0
2.301344694E1,2.544467688E0,1.682453394E0,9.308678627E0
2.303011288E1,2.447259426E0,1.679462433E0,9.398110390E0
2.304677881E1,2.358724833E0,1.663609982E0,9.374181747E0
2.306344475E1,2.374577284E0,1.667797327E0,9.357432365E0
2.308011069E1,2.334198475E0,1.689332843E0,9.413364410E0
2.309677663E1,2.280659199E0,1.672882080E0,9.476176262E0
2.311344256E1,2.347358942E0,1.706680775E0,9.397511482E0
2.313010850E1,2.308774710E0,1.677069545E0,9.478569031E0
2.314677444E1,2.268096685E0,1.665703654E0,9.626026154E0
2.316344038E1,2.296511650E0,1.658226132E0,9.653842926E0
2.318010631E1,2.347658157E0,1.703091502E0,9.444769859E0
2.319677225E1,2.260320187E0,1.729113460E0,9.476176262E0
2.321343819E1,2.126022816E0,1.706082582E0,9.567401886E0
2.323010413E1,2.031805515E0,1.724028707E0,9.664012909E0
2.324677006E1,1.956431627E0,1.741974831E0,9.554242134E0
2.326343600E1,2.062014818E0,1.800299883E0,9.415159225E0
2.328010194E1,2.108675003E0,1.807478428E0,9.346066475E0
2.329676788E1,1.898405671E0,1.743470430E0,9.444471359E0
2.331343381E1,1.699502230E0,1.773081541E0,9.640682220E0
2.333009975E1,1.823629975E0,1.792822361E0,9.646664619E0
2.334676569E1,2.035394669E0,1.818545222E0,9.391530037E0
2.336343163E1,2.063211441E0,1.837687731E0,9.191430092E0
2.338009756E1,1.993221283E0,1.774876237E0,9.350552559E0
2.339676350E1,2.085644007E0,1.766800404E0,9.578469276E0
2.341342944E1,2.114357948E0,1.779063582E0,9.716654778E0
2.343009538E1,2.029711723E0,1.772184253E0,9.761520386E0
2.344676131E1,2.045265198E0,1.824228168E0,9.550951958E0
2.346342725E1,2.201695919E0,1.892722726E0,9.124132156E0
2.348009319E1,2.234896421E0,1.930110574E0,9.228817940E0
2.349675913E1,2.239382982E0,1.836491346E0,9.413962364E0
2.351342506E1,2.051845312E0,1.733600020E0,9.698110580E0
