"Time (s)","Gyroscope x (rad/s)","Gyroscope y (rad/s)","Gyroscope z (rad/s)"
3.111912700E-2,1.216384470E-1,-2.947422490E-2,2.893971838E-2
4.778506400E-2,7.498364896E-2,1.001054645E-1,8.399390429E-2
6.445100200E-2,3.443750367E-2,1.064431891E-1,6.123919412E-2
8.111693900E-2,1.534797717E-2,6.062832847E-2,1.550069358E-2
9.778287700E-2,7.788525894E-3,4.970912263E-2,-1.015562657E-2
1.144488140E-1,3.901898861E-2,4.841103405E-2,1.695149764E-2
1.311147520E-1,7.422006875E-2,5.642863363E-2,5.390881747E-2
1.477806890E-1,1.061377525E-1,9.720385820E-2,6.620246917E-2
1.644466270E-1,1.249982044E-1,1.550069451E-1,6.940951198E-2
1.811125640E-1,6.543888897E-2,3.346011937E-1,7.383827865E-2
1.977785020E-1,1.053741761E-2,4.929678738E-1,1.185077652E-1
2.144444390E-1,3.451386094E-2,4.853320718E-1,1.278998107E-1
2.311103770E-1,1.065959036E-1,4.253909588E-1,9.521854669E-2
2.477763140E-1,1.773035079E-1,2.846629918E-1,7.093667239E-2
2.644422520E-1,2.141844630E-1,1.346193254E-1,5.696314201E-2
2.811081890E-1,1.307250559E-1,1.381317973E-1,7.162389904E-2
2.977741270E-1,1.832594350E-2,2.653443813E-1,1.514944583E-1
3.144400640E-1,-1.992946304E-2,3.795761168E-1,2.141844630E-1
3.311060020E-1,3.359756200E-3,4.221839309E-1,2.004400045E-1
3.477719390E-1,9.239330143E-2,3.196350038E-1,1.807396114E-1
3.644378770E-1,1.782197952E-1,1.746309698E-1,1.441640854E-1
3.811038140E-1,1.710421443E-1,1.010981202E-1,7.704532146E-2
3.977697520E-1,1.197294965E-1,8.025235683E-2,4.360047355E-2
4.144356890E-1,7.765618712E-2,1.053741723E-1,5.856665969E-2
4.311016270E-1,3.711003438E-2,1.518762559E-1,6.139190868E-2
4.477675640E-1,3.077231348E-2,1.278998107E-1,4.276053607E-2
4.644335020E-1,3.993528336E-2,8.116865903E-2,2.099847607E-2
4.810994390E-1,3.733910993E-2,5.314523727E-2,1.198822167E-2
4.977653770E-1,4.176788032E-2,4.917461425E-2,1.130099874E-2
5.144313140E-1,7.078395784E-2,8.819360286E-2,4.024071619E-2
5.310972520E-1,9.697478265E-2,1.036942974E-1,7.284562290E-2
5.477631890E-1,9.407317638E-2,1.172096804E-1,8.590286225E-2
5.644291270E-1,6.108647957E-2,1.900553107E-1,9.697478265E-2
5.810950640E-1,5.955931544E-2,2.276998460E-1,1.285870373E-1
5.977610020E-1,8.361211419E-2,1.737910360E-1,1.343138963E-1
6.144269390E-1,8.849903196E-2,9.437860548E-2,8.834631741E-2
6.310928770E-1,8.009964228E-2,2.825249685E-3,4.459312931E-2
6.477588140E-1,5.910116807E-2,-5.917752534E-2,5.268708803E-3
6.644247520E-1,3.199404106E-2,-9.468403645E-3,-2.733619884E-2
6.810906890E-1,2.657261863E-2,5.566505343E-2,-8.857538924E-3
6.977566270E-1,2.054032870E-2,6.566796452E-2,8.704823442E-3
7.144225640E-1,2.787070535E-2,2.420551702E-2,1.214093715E-2
7.310885020E-1,1.198822167E-2,-4.214967042E-2,-7.254019380E-3
7.477544390E-1,-1.191186346E-2,-8.193223923E-2,-3.978256881E-2
7.644203770E-1,2.901607659E-3,-8.590286225E-2,-4.398226365E-2
7.810863140E-1,1.382081583E-2,-1.071304083E-1,-2.557996288E-2
7.977522520E-1,9.239329956E-3,-9.712749720E-2,-2.351829410E-2
8.144181890E-1,4.367683083E-2,-1.052978188E-1,-1.641699113E-2
8.310841270E-1,4.871646687E-2,-1.121700481E-1,-1.863137633E-2
8.477500640E-1,4.696023092E-2,-8.185587823E-2,-1.427896414E-2
8.644160020E-1,7.925970852E-2,-5.703949928E-2,-8.552107029E-3
8.810819390E-1,6.971494108E-2,-2.535088919E-2,-1.099556591E-2
8.977478770E-1,2.596175298E-2,-4.581485991E-4,-9.010255337E-3
9.144138140E-1,-1.970038936E-2,-2.031125315E-2,-1.748600416E-2
9.310797520E-1,-5.650499091E-2,-1.107192412E-2,-5.528326333E-2
9.477456890E-1,-4.459312931E-2,2.306014486E-2,-6.070468575E-2
9.644116270E-1,-1.847865991E-2,7.254019380E-3,-4.734202102E-2
9.810775640E-1,7.177661173E-3,-7.712167688E-3,-3.321577236E-2
9.977435020E-1,2.397644334E-2,-3.894262947E-3,-2.122755162E-2
1.014409439E0,1.351538301E-2,-8.781181648E-3,-2.596175298E-2
1.031075377E0,3.054323839E-3,1.290451828E-2,-4.993819445E-2
1.047741314E0,-8.933897130E-3,2.160934173E-2,-4.505127668E-2
1.064407252E0,-1.908952370E-2,1.458439697E-2,-3.779725730E-2
1.081073189E0,-7.254019380E-3,2.916879393E-2,-3.207040206E-2
1.097739127E0,6.643154658E-3,2.657261863E-2,-3.665188793E-3
1.114405064E0,1.656970754E-2,1.298087649E-2,5.803215317E-3
1.131071002E0,2.443459071E-2,1.504254527E-2,9.621120058E-3
1.147736939E0,1.107192412E-2,1.886045001E-2,1.038470119E-2
1.164402877E0,7.330377586E-3,3.054323979E-2,3.130682046E-3
1.181068814E0,-8.552107029E-3,3.344484791E-2,-4.581485991E-4
1.197734752E0,-2.290742937E-3,2.046396956E-2,-7.101302966E-3
1.214400689E0,1.863137633E-2,-1.855501719E-2,-1.351538301E-2
1.231066627E0,5.421424750E-3,-4.176788032E-2,-3.756818548E-2
1.247732564E0,-2.611446939E-2,-2.664897591E-2,-5.757400393E-2
1.264398502E0,-4.108065739E-2,6.108647678E-3,-7.284562290E-2
1.281064439E0,-3.779725730E-2,3.627009690E-2,-7.811433077E-2
1.297730377E0,1.527161920E-3,4.306596518E-2,-6.872228533E-2
1.314396314E0,4.673115537E-2,3.596466407E-2,-5.138900131E-2
1.331062252E0,7.673988491E-2,8.170315996E-3,-2.863428742E-2
1.347728189E0,8.200860023E-2,1.313359290E-2,-3.397935256E-2
1.364394127E0,7.170025259E-2,2.703076601E-2,-5.070177838E-2
1.381060064E0,5.177079141E-2,1.458439697E-2,-5.283980444E-2
1.397726002E0,3.993528336E-2,2.519817324E-3,-3.947713599E-2
1.414391939E0,3.130681813E-2,-1.076649129E-2,-3.138317913E-2
1.431057877E0,2.710712515E-2,-2.871064469E-2,-3.863719851E-2
1.447723814E0,-7.635809743E-5,-3.092502989E-2,-3.940077871E-2
1.464389752E0,-2.344193682E-2,-1.412624773E-2,-2.985601686E-2
1.481055689E0,-1.962403022E-2,-1.374445739E-3,-2.519817278E-2
1.497721627E0,6.108647678E-3,-9.544761851E-3,-1.450803876E-2
1.514387564E0,2.886336111E-2,-1.061377581E-2,-1.611155830E-2
1.531053502E0,3.810269013E-2,-1.687514037E-2,7.635809743E-5
1.547719439E0,2.718348242E-2,-6.872228812E-3,2.596175298E-3
1.564385377E0,5.421424750E-3,6.719512399E-3,-2.306014486E-2
1.581051314E0,1.634063199E-2,-1.374445762E-2,-2.741255611E-2
1.597717252E0,3.703367710E-2,-4.001164436E-2,-1.099556591E-2
1.614383189E0,4.550942779E-2,-4.352411628E-2,-1.114828233E-2
1.631049127E0,3.520108387E-2,-1.664606482E-2,-2.000582218E-2
1.647715064E0,6.643154658E-3,2.244928107E-2,-1.763872057E-2
1.664381002E0,-9.239329956E-3,3.741546720E-2,-1.427896414E-2
1.681046939E0,1.473711245E-2,5.574141163E-3,-9.773836471E-3
1.697712877E0,3.863719851E-2,-3.985892609E-2,-9.010255337E-3
1.714378814E0,3.917170316E-2,-1.878409274E-2,-2.061668597E-2
1.731044752E0,2.008217946E-2,2.519817278E-2,-1.343902480E-2
1.747710689E0,2.367100911E-3,4.978547990E-2,-7.788525894E-3
1.764376627E0,2.443459118E-3,5.184714869E-2,-1.244636998E-2
1.781042564E0,1.863137633E-2,1.702785492E-2,-1.397353224E-2
1.797708502E0,3.924806044E-2,-3.970621154E-3,-1.099556591E-2
1.814374439E0,4.634936526E-2,1.488982886E-2,1.107192412E-2
1.831040377E0,2.619082667E-2,3.336848691E-2,1.588248461E-2
1.847706314E0,2.069304511E-2,2.306014486E-2,2.367100911E-3
1.864372252E0,4.314232618E-2,-1.091920771E-2,-3.817904799E-4
1.881038189E0,5.734493211E-2,3.130682046E-3,-7.177661173E-3
1.897704127E0,4.596757516E-2,5.955931731E-3,9.239329956E-3
1.914370064E0,4.581485875E-3,-1.061377581E-2,1.389717404E-2
1.931036002E0,-4.444041103E-2,1.832594397E-3,-1.496618707E-2
1.947701939E0,-6.635518372E-2,4.886918236E-3,-8.933897130E-3
1.964367877E0,-5.734493211E-2,5.345066893E-4,-3.436114406E-3
1.981033814E0,-3.008509055E-2,-4.886918236E-3,-2.138026804E-2
1.997699752E0,6.948587019E-3,-3.688096255E-2,-2.817613818E-2
2.014365689E0,3.222311661E-2,-4.963276163E-2,-2.496909723E-2
2.031031627E0,-4.428769462E-3,-1.046105940E-2,-1.924224012E-2
2.047697564E0,-3.504836559E-2,2.229656465E-2,-1.023198478E-2
2.064363502E0,-6.185005885E-3,8.933897130E-3,-1.366809942E-2
2.081029439E0,9.392046370E-3,2.932151034E-2,-2.893971838E-2
2.097695377E0,1.168278884E-2,4.390590638E-2,-7.712167688E-3
2.114361314E0,2.046396956E-2,1.527161989E-2,3.054323839E-3
2.131027252E0,2.947422490E-2,2.367101051E-2,-1.939495653E-2
2.147693189E0,8.857538924E-3,1.679878123E-2,-8.628465235E-3
2.164359127E0,-9.621120058E-3,-6.490438245E-3,-1.145371469E-3
2.181025064E0,-3.970621154E-3,2.412915789E-2,-2.031125315E-2
2.197691002E0,1.183550525E-2,4.825831577E-2,6.872228696E-4
2.214356939E0,2.649625950E-2,2.603811212E-2,2.031125315E-2
2.231022877E0,3.199404106E-2,1.397353224E-2,2.443459118E-3
2.247688814E0,2.496909723E-2,-9.621120058E-3,-8.017600514E-3
2.264354752E0,1.702785492E-2,-1.977674663E-2,-1.488982886E-2
2.281020689E0,1.527161920E-3,3.428478539E-2,-2.092211880E-2
2.297686627E0,-6.566796452E-3,5.245801434E-2,1.046105940E-2
2.314352564E0,1.809686981E-2,2.031125315E-2,1.748600416E-2
2.331018502E0,3.962985426E-2,-1.985310577E-2,-5.650499370E-3
2.347684439E0,3.588830587E-3,-1.565340906E-2,-2.023489587E-2
2.364350377E0,-2.725984156E-2,2.458730713E-2,-1.725693047E-2
2.381016314E0,-5.574141163E-3,3.504836559E-2,6.643154658E-3
2.397682252E0,2.351829410E-2,2.832885459E-2,1.298087649E-2
2.414348189E0,1.427896414E-2,3.092502989E-2,-9.392046370E-3
2.431014127E0,-1.695149764E-2,7.712167688E-3,-9.162971750E-3
2.447680064E0,-2.626718581E-2,-9.239329956E-3,-5.879573524E-3
2.464346002E0,-1.466075517E-2,-1.359174121E-2,-1.030834299E-2
2.481011939E0,-1.595884189E-2,-2.115119249E-2,-3.054323897E-4
2.497677877E0,-3.680460155E-2,-1.305723470E-2,1.450803829E-3
2.514343814E0,-3.703367710E-2,-3.741546767E-3,-2.138026757E-3
2.531009752E0,-1.550069358E-2,8.093958721E-3,1.298087649E-3
2.547675689E0,1.557705179E-2,-8.399390499E-4,2.328922041E-2
2.564341627E0,3.237583488E-2,-1.970038936E-2,2.649625950E-2
2.581007564E0,3.565923125E-2,-3.657552972E-2,1.817322709E-2
2.597673502E0,2.565632015E-2,-3.092502989E-2,1.611155830E-2
2.614339439E0,1.519526169E-2,-3.512472380E-3,2.634354308E-2
2.631005377E0,1.168278884E-2,-2.977965865E-3,2.932151034E-2
2.647671314E0,1.504254527E-2,-2.504545636E-2,6.566796452E-3
2.664337252E0,1.756236330E-2,-4.161516204E-2,-1.076649129E-2
2.681003189E0,4.734201822E-3,-2.214384824E-2,1.298087649E-3
2.697669127E0,-7.788525894E-3,1.412624773E-2,9.773836471E-3
2.714335064E0,2.015853859E-2,-4.428769462E-3,3.359756200E-3
2.731001002E0,5.016727000E-2,-5.650499091E-2,-7.254019380E-3
2.747666939E0,5.971203372E-2,-3.543015569E-2,-2.214384731E-3
2.764332877E0,3.543015569E-2,1.580612548E-2,1.206457894E-2
2.780998814E0,3.054323979E-2,2.993237413E-2,1.091920771E-2
2.797664752E0,4.711294547E-2,-4.046979360E-3,-1.572976820E-2
2.814330689E0,4.711294547E-2,-5.100720748E-2,-4.382954910E-2
2.830996627E0,4.764745384E-2,-7.956513762E-2,-5.031998456E-2
2.847662564E0,4.726566374E-2,-6.719512492E-2,-3.703367710E-2
2.864328502E0,2.962694131E-2,-1.611155830E-2,-2.115119249E-2
2.880994439E0,-2.672533505E-3,2.252563834E-2,-1.267544460E-2
2.897660377E0,9.926552884E-4,3.260490671E-2,-9.086613543E-3
2.914326314E0,2.977965772E-2,2.084576152E-2,-2.199113183E-2
2.930992252E0,5.268708616E-2,-5.345067009E-3,-4.054614902E-2
2.947658189E0,5.245801434E-2,-4.062250629E-2,-6.307178736E-2
2.964324127E0,2.596175298E-2,-7.422006875E-2,-8.452841640E-2
2.980990064E0,5.115992390E-3,-1.173623949E-1,-1.153770834E-1
2.997656002E0,1.679878100E-3,-1.848629564E-1,-1.246164143E-1
3.014321939E0,8.246674202E-3,-2.034943253E-1,-1.275943816E-1
3.030987877E0,1.718057133E-2,-1.454621702E-1,-1.054505333E-1
3.047653814E0,3.642281145E-2,-8.223766834E-2,-7.605266571E-2
3.064319752E0,3.084867075E-2,-6.154462695E-2,-6.795870513E-2
3.080985689E0,3.359756200E-3,-6.788235158E-2,-7.811433077E-2
3.097651627E0,-1.580612548E-2,-1.030834317E-1,-1.057559624E-1
3.114317564E0,1.450803829E-3,-1.551596522E-1,-1.393535286E-1
3.130983502E0,4.291325063E-2,-2.283870727E-1,-1.743255407E-1
3.147649439E0,7.918334752E-2,-2.780961990E-1,-2.160934210E-1
3.164315377E0,1.074358448E-1,-2.342666388E-1,-2.360228747E-1
3.180981314E0,1.366809905E-1,-1.912770271E-1,-2.036470473E-1
3.197647252E0,1.169806048E-1,-2.089921087E-1,-1.145371497E-1
3.214313189E0,1.052214578E-1,-2.252563834E-1,-5.772672221E-2
3.230979127E0,9.109520912E-2,-2.395353466E-1,-2.512181364E-2
3.247645064E0,2.122755162E-2,-1.595884264E-1,-3.016144782E-2
3.264311002E0,-6.352993846E-2,-7.338013500E-2,-5.314523727E-2
3.280976939E0,-1.149189398E-1,-1.114828233E-2,-4.940368980E-2
3.297642877E0,-9.659299254E-2,-3.894262947E-3,-1.473711245E-2
3.314308814E0,-6.108647957E-2,-6.948587019E-3,9.621120058E-3
3.330974752E0,-3.619373962E-2,-1.069013379E-3,-1.679878100E-3
3.347640689E0,-1.855501719E-2,-1.947131567E-2,-1.779143699E-2
3.364306627E0,-4.734201822E-3,-7.864884101E-3,-1.023198478E-2
3.380972564E0,2.519817324E-3,4.306596518E-2,1.863137633E-2
3.397638502E0,-1.809686981E-2,7.903063297E-2,3.955349326E-2
3.414304439E0,-3.680460155E-2,8.582650125E-2,2.993237413E-2
3.430970377E0,9.239329956E-3,5.253437161E-2,1.626427472E-2
3.447636314E0,6.001746282E-2,2.855792828E-2,2.359465137E-2
3.464302252E0,3.474293277E-2,6.223184988E-2,2.687804960E-2
3.480968189E0,-4.214967042E-2,1.347720474E-1,3.046688065E-2
3.497634127E0,-9.903645515E-2,1.876118481E-1,5.161807314E-2
3.514300064E0,-1.331685185E-1,1.436295807E-1,4.963276163E-2
3.530966002E0,-1.262962967E-1,-2.038761228E-2,1.519526169E-2
3.547631939E0,-2.756527252E-2,-2.428187430E-1,-1.740964688E-2
3.564297877E0,9.094249457E-2,-3.399462402E-1,-9.109520912E-2
3.580963814E0,7.460185885E-2,-2.672533393E-1,-1.734092385E-1
3.597629752E0,-6.795870606E-3,-1.517235339E-1,-1.866955459E-1
3.614295689E0,-9.743293375E-2,-1.191186309E-1,-1.723402292E-1
3.630961627E0,-1.186604798E-1,-2.042579055E-1,-1.683696061E-1
3.647627564E0,-7.414371520E-2,-3.235292733E-1,-1.882990748E-1
3.664293502E0,1.183550525E-2,-4.131736755E-1,-1.950185746E-1
3.680959439E0,1.327103674E-1,-4.267654121E-1,-1.429423541E-1
3.697625377E0,1.660024971E-1,-3.979783952E-1,-5.291616172E-2
3.714291314E0,7.490729541E-2,-3.507890999E-1,2.611446939E-2
3.730957252E0,1.931859925E-2,-1.662315726E-1,-4.886918236E-3
3.747623189E0,6.490438432E-2,-4.123337194E-2,-1.463784724E-1
3.764289127E0,1.003345400E-1,-2.955822051E-1,-1.220965981E-1
3.780955064E0,1.052978188E-1,-2.427423894E-1,-1.472184062E-1
3.797621002E0,9.384410083E-2,-1.372154951E-1,-1.298851222E-1
3.814286939E0,8.750637621E-2,-2.565632015E-2,-8.720094711E-2
3.830952877E0,4.963276163E-2,3.543015569E-2,-3.909534588E-2
3.847618814E0,-1.534797717E-2,7.292198390E-2,-8.857538924E-3
3.864284752E0,-5.650499091E-2,1.398880333E-1,-1.695149764E-2
3.880950689E0,-7.032580674E-2,2.118173689E-1,-2.306014486E-2
3.897616627E0,-8.147408813E-2,2.393826395E-1,-1.267544460E-2
3.914282564E0,-9.269873053E-2,2.527453005E-1,-3.733910993E-2
3.930948502E0,-8.468113095E-2,2.115119249E-1,-3.344484791E-2
3.947614439E0,-4.528035223E-2,1.824194938E-1,-7.635809598E-4
3.964280377E0,-8.704823442E-3,1.756999791E-1,3.283398226E-2
3.980946314E0,1.443168055E-2,1.413388401E-1,6.803506613E-2
3.997612252E0,4.886918236E-3,7.956513762E-2,8.781181276E-2
4.014278189E0,-3.947713599E-2,2.214384731E-3,9.483675659E-2
4.030944127E0,-4.696023092E-2,-5.352702737E-2,1.020907760E-1
4.047610064E0,-2.290742996E-4,-4.199695215E-2,1.174387559E-1
4.064276002E0,5.138900131E-2,4.046979360E-3,1.498909444E-1
4.080941939E0,7.017309219E-2,2.344193682E-2,1.657734364E-1
4.097607877E0,6.918043643E-2,2.993237413E-2,1.568395346E-1
4.114273814E0,1.020907760E-1,-9.850194678E-3,1.463021189E-1
4.130939752E0,1.254563481E-1,-5.001455545E-2,1.080467105E-1
4.147605689E0,1.020907760E-1,-2.397644334E-2,7.360920310E-2
4.164271627E0,9.277509153E-2,2.138026804E-2,9.964732081E-2
4.180937564E0,8.368847519E-2,9.147699922E-2,1.181259751E-1
4.197603502E0,5.108356848E-2,1.251509190E-1,1.092684343E-1
4.214269439E0,5.115992390E-3,1.069776937E-1,9.208786488E-2
4.230935377E0,-2.725984156E-2,5.199986324E-2,7.429642975E-2
4.247601314E0,-2.512181364E-2,2.672533318E-2,4.978547990E-2
4.264267252E0,3.008509055E-2,2.382372692E-2,4.802924395E-2
4.280933189E0,7.024945319E-2,2.657261863E-2,7.185296714E-2
4.297599127E0,6.612611562E-2,7.162389904E-2,9.560033679E-2
4.314265064E0,6.383536756E-2,1.601992846E-1,1.141553521E-1
4.330931002E0,1.101847365E-1,2.457203567E-1,1.527925581E-1
4.347596939E0,1.049160287E-1,2.715294063E-1,1.905134469E-1
4.364262877E0,1.756236190E-3,2.051742077E-1,2.157116234E-1
4.380928814E0,-1.277471036E-1,8.032871783E-2,2.225074917E-1
4.397594752E0,-2.302196622E-1,-7.322741300E-2,2.130390853E-1
4.414260689E0,-3.161225319E-1,-1.718057245E-1,1.689804643E-1
4.430926627E0,-3.643808365E-1,-1.727220118E-1,1.172860414E-1
4.447592564E0,-3.537670672E-1,-6.910407543E-2,8.231402934E-2
4.464258502E0,-1.961639524E-1,6.482802331E-2,8.284853399E-2
4.480924439E0,7.826705277E-2,1.575267613E-1,8.933897316E-2
4.497590377E0,3.006981909E-1,2.042579055E-1,6.734783947E-2
4.514256314E0,4.310414493E-1,2.229656428E-1,4.329504073E-2
4.530922252E0,5.048797131E-1,2.961930633E-1,1.183550525E-2
4.547588189E0,5.158752799E-1,3.115410507E-1,-2.664897591E-2
4.564254127E0,5.054142475E-1,2.538143098E-1,-4.001164436E-2
4.580920064E0,5.502364635E-1,1.472947747E-1,-5.451968312E-2
4.597586002E0,6.952404976E-1,2.871064469E-2,-8.536835015E-2
4.614251939E0,7.990111113E-1,-5.551233515E-2,-1.678351015E-1
4.630917877E0,7.031053901E-1,-8.483384550E-2,-2.522871494E-1
4.647583814E0,4.410443604E-1,-4.963276163E-2,-2.253327519E-1
4.664249752E0,1.482874304E-1,-4.780016840E-2,-1.130863428E-1
4.680915689E0,1.198822167E-2,-4.932733253E-2,-4.130972922E-2
4.697581627E0,7.040216774E-2,-3.336848691E-2,-2.626718581E-2
4.714247564E0,2.304487377E-1,2.328922041E-2,1.511890348E-2
4.730913502E0,3.678933084E-1,5.459604040E-2,5.742128938E-2
4.747579439E0,4.172970057E-1,3.084867075E-2,7.574722916E-2
4.764245377E0,4.100429714E-1,3.840812296E-2,9.010255337E-2
4.780911314E0,4.021017551E-1,3.520108387E-2,1.705839932E-1
4.797577252E0,4.387536347E-1,-7.941242307E-3,3.120755553E-1
4.814243189E0,4.881573021E-1,-9.514218569E-2,4.767799675E-1
4.830909127E0,4.615846872E-1,-2.967275679E-1,5.174788237E-1
4.847575064E0,3.885863721E-1,-6.938660145E-1,4.251618981E-1
4.864241002E0,2.547306120E-1,-1.256854296E0,3.304778337E-1
4.880906939E0,6.643154658E-3,-1.711795807E0,3.617083132E-1
4.897572877E0,-5.041161776E-1,-1.862679482E0,6.077340841E-1
4.914238814E0,-1.320918679E0,-1.701945662E0,9.792925715E-1
4.930904752E0,-2.176358461E0,-1.316719055E0,1.174616575E0
4.947570689E0,-2.790812016E0,-8.181006312E-1,1.135215878E0
4.964236627E0,-3.153512955E0,-2.356410921E-1,1.049847484E0
4.980902564E0,-3.369682789E0,1.311068535E-1,1.067486167E0
4.997568502E0,-3.573787928E0,1.256090701E-1,1.099251151E0
5.014234439E0,-4.180911064E0,-1.365282834E-1,9.661589861E-1
5.030900377E0,-5.024133682E0,-6.901245117E-1,4.212676287E-1
5.047566314E0,-4.948462963E0,-1.061148524E0,-2.168570012E-1
5.064232252E0,-3.851426125E0,-1.178587198E0,-5.380191803E-1
5.080898189E0,-2.736979723E0,-1.692248106E0,-5.188532472E-1
5.097564127E0,-2.643899202E0,-2.893208265E0,-4.514290690E-1
5.114230064E0,-3.251938581E0,-4.522079468E0,-5.600103140E-1
5.130896002E0,-3.151375055E0,-6.100706577E0,-5.769617558E-1
5.147561939E0,-2.052047491E0,-6.840539932E0,-3.685805500E-1
5.164227877E0,-7.376192212E-1,-6.328101158E0,-1.239291951E-1
5.180893814E0,-1.104901657E-1,-5.093008518E0,-5.940660089E-2
5.197559752E0,-3.478874862E-1,-3.598680735E0,-2.928332984E-1
5.214225689E0,-1.136055827E0,-1.959119678E0,-7.109702229E-1
5.230891627E0,-1.665751934E0,-3.064250350E-1,-8.897245526E-1
5.247557564E0,-1.147356749E0,1.013195634E0,-9.134719372E-1
5.264223502E0,9.819651395E-2,1.401247501E0,-1.141477227E0
5.280889439E0,1.091080904E0,8.530726433E-1,-1.598327637E0
5.297555377E0,1.347644091E0,4.739547074E-1,-2.046015263E0
5.314221314E0,9.691369534E-1,1.305341721E0,-2.273104191E0
5.330887252E0,5.304597020E-1,3.402975082E0,-2.016770124E0
5.347553189E0,5.478693247E-1,5.215487003E0,-1.706679821E0
5.364219127E0,1.344437003E0,4.180071354E0,-1.813810229E0
5.380885064E0,2.664057732E0,1.718057156E0,-2.350225925E0
5.397551002E0,3.617006779E0,1.651702046E0,-2.885877848E0
5.414216939E0,4.530860424E0,3.635332584E0,-2.937572479E0
5.430882877E0,5.843685150E0,4.273533821E0,-2.667722940E0
5.447548814E0,7.224545002E0,2.872820616E0,-2.661155939E0
5.464214752E0,8.022640228E0,9.957095981E-1,-2.577162027E0
5.480880689E0,7.308920860E0,1.637881249E-1,-2.261726856E0
5.497546627E0,5.564138412E0,3.407098353E-1,-1.683161497E0
5.514212564E0,3.775678873E0,7.233402729E-1,-8.825469017E-1
5.530878502E0,2.813414097E0,3.079521954E-1,-1.631008983E-1
5.547544439E0,2.687041521E0,-8.338304162E-1,-2.626718581E-2
5.564210377E0,2.696738958E0,-1.749974847E0,-2.242637277E-1
5.580876314E0,2.285779715E0,-1.607567072E0,-3.091739416E-1
5.597542252E0,1.264566422E0,-4.319577515E-1,-7.895427197E-2
5.614208189E0,2.458730713E-2,9.737184644E-1,4.610501826E-1
5.630874127E0,-1.333059669E0,1.800905704E0,1.215620875E0
5.647540064E0,-2.625649452E0,1.410563111E0,1.959196091E0
5.664206002E0,-3.411374331E0,5.989528894E-1,2.449414968E0
5.680871939E0,-3.849746227E0,3.159697950E-1,2.441397429E0
5.697537877E0,-4.252229691E0,3.859138191E-1,2.382983446E0
5.714203814E0,-4.784904003E0,-2.405280024E-1,2.651763916E0
5.730869752E0,-5.702957153E0,-1.856799841E0,3.131063700E0
5.747535689E0,-7.129097462E0,-2.332434416E0,3.507432938E0
5.764201627E0,-7.852819443E0,-1.142011762E0,3.119533777E0
5.780867564E0,-7.010207653E0,-6.553815603E-1,2.095571518E0
5.797533502E0,-5.418752193E0,-1.706221700E0,8.995747566E-1
5.814199439E0,-3.675573349E0,-2.877325773E0,3.014617562E-1
5.830865377E0,-2.524169683E0,-4.142350197E0,2.176969349E-1
5.847531314E0,-1.766010046E0,-4.999393940E0,2.681696415E-1
5.864197252E0,-1.271056890E0,-5.029631615E0,5.854375362E-1
5.880863189E0,-1.250592947E0,-4.506960392E0,1.029078126E0
5.897529127E0,-1.324507594E0,-3.561570644E0,1.210046768E0
5.914195064E0,-1.374293089E0,-2.039448500E0,1.021747708E0
5.930861002E0,-1.411555767E0,-3.796524704E-1,3.045161068E-1
5.947526939E0,-1.392695308E0,7.307469845E-1,-5.380955338E-1
5.964192877E0,-1.226540089E0,1.063820958E0,-8.841503859E-1
5.980858814E0,-9.259182811E-1,5.239692926E-1,-6.944769025E-1
5.997524752E0,-5.009090900E-1,3.145953640E-2,-4.847975671E-1
6.014190689E0,8.055779338E-2,1.031521559E0,-8.658244610E-1
6.030856627E0,4.763981700E-1,3.695273876E0,-1.767384529E0
6.047522564E0,7.557160854E-1,5.444485188E0,-2.128940105E0
6.064188502E0,1.882990718E0,4.638525486E0,-2.367406368E0
6.080854439E0,3.714745045E0,2.761948824E0,-2.780732870E0
6.097520377E0,4.707247734E0,2.205756426E0,-3.166493893E0
6.114186314E0,4.678078651E0,3.283703566E0,-3.321882725E0
6.130852252E0,5.165548801E0,4.334314823E0,-3.173977137E0
6.147518189E0,6.560076714E0,3.705047607E0,-3.205665588E0
6.164184127E0,7.843809128E0,2.061974049E0,-3.524842501E0
6.180850064E0,7.326635838E0,9.579123259E-1,-3.534998178E0
6.197516002E0,5.242212296E0,8.803325295E-1,-3.086776018E0
6.214181939E0,3.414428711E0,1.213940978E0,-2.214308500E0
6.230847877E0,2.883587122E0,9.024763703E-1,-1.429270864E0
6.247513814E0,3.289430380E0,-5.680279136E-1,-1.151556492E0
6.264179752E0,3.638845205E0,-2.054719925E0,-1.248073101E0
6.280845689E0,3.098840714E0,-2.109697819E0,-1.094364285E0
6.297511627E0,1.736917615E0,-9.104176164E-1,-3.696495593E-1
6.314177564E0,2.659552395E-1,5.618428588E-1,9.223294854E-1
6.330843502E0,-1.016631722E0,9.314160943E-1,2.577773094E0
6.347509439E0,-1.923613191E0,4.251618981E-1,4.004753113E0
6.364175377E0,-2.510348797E0,4.398226365E-2,4.575530052E0
6.380841314E0,-2.769355536E0,2.547306120E-1,4.357145786E0
6.397507252E0,-3.199938774E0,7.318923473E-1,4.057287693E0
6.414173189E0,-4.083631039E0,5.634464025E-1,4.143953800E0
6.430839127E0,-4.867446899E0,-3.242928386E-1,4.554989815E0
6.447505064E0,-5.056662083E0,-8.823178411E-1,4.689609051E0
6.464171002E0,-5.505342484E0,-7.192169428E-1,4.087830544E0
6.480836939E0,-6.420570850E0,-4.904480577E-1,2.937801361E0
6.497502877E0,-6.910484314E0,1.440877318E-1,1.907119870E0
6.514168814E0,-6.255637169E0,1.206076145E0,1.072373152E0
6.530834752E0,-4.911123753E0,9.279799461E-1,4.809032977E-1
6.547500689E0,-3.705505848E0,-7.582359314E-1,-6.681333482E-2
6.564166627E0,-2.770577192E0,-2.277456522E0,-4.650971591E-1
6.580832564E0,-2.039371967E0,-3.008050919E0,-5.261836648E-1
6.597498502E0,-1.515555501E0,-3.324097157E0,-2.205221802E-1
6.614164439E0,-1.124678373E0,-3.421911716E0,1.664606482E-1
6.630830377E0,-8.043562174E-1,-2.915581226E0,3.466657698E-1
6.647496314E0,-5.501601100E-1,-1.788764834E0,3.336848915E-1
6.664162252E0,-2.453385741E-1,-3.975966275E-1,7.261654735E-2
6.680828189E0,5.749764666E-2,7.250201106E-1,-2.858847082E-1
6.697494127E0,3.265072107E-1,1.293735266E0,-3.074940443E-1
6.714160064E0,9.161444306E-1,1.241353631E0,-2.596175373E-1
6.730826002E0,1.892688155E0,1.020984173E0,-5.590940118E-1
6.747491939E0,2.740492105E0,1.347644091E0,-1.087797403E0
6.764157877E0,2.846019030E0,2.407799959E0,-1.527314663E0
6.780823814E0,2.676809549E0,3.071886301E0,-2.001193047E0
6.797489752E0,3.021489859E0,2.324187756E0,-2.525315046E0
6.814155689E0,4.470842838E0,1.500512958E0,-3.268813848E0
6.830821627E0,6.564887524E0,1.841681004E0,-3.934503794E0
6.847487564E0,7.629777431E0,2.232939959E0,-4.212676048E0
6.864153502E0,7.785318851E0,1.649487615E0,-4.072711945E0
6.880819439E0,7.311287880E0,4.320341051E-1,-3.563937902E0
6.897485377E0,6.108952999E0,-3.021489978E-1,-2.957119942E0
6.914151314E0,4.673268318E0,-2.496909723E-2,-2.374049664E0
6.930817252E0,3.583103657E0,4.379900396E-1,-1.811748624E0
6.947483189E0,2.971169949E0,1.689804643E-1,-1.281212568E0
6.964149127E0,2.537303209E0,-6.413316727E-1,-9.101884961E-1
6.980815064E0,1.840153813E0,-8.920152783E-1,-3.982838392E-1
6.997481002E0,9.629519582E-1,-3.946186602E-1,2.548833191E-1
7.014146939E0,1.585957706E-1,1.937204897E-1,1.176220179E0
7.030812877E0,-5.842158198E-1,1.002581790E-1,2.385808706E0
7.047478814E0,-1.139797330E0,-6.101775765E-1,3.521177292E0
7.064144752E0,-1.561599493E0,-8.297070861E-1,3.980547667E0
7.080810689E0,-2.088241339E0,-6.414080411E-2,3.986961603E0
7.097476627E0,-2.971628189E0,1.006399751E0,4.461221695E0
7.114142564E0,-3.996964693E0,1.887801290E0,5.192961693E0
7.130808502E0,-5.042688847E0,1.950185776E0,5.340332508E0
7.147474439E0,-5.740830898E0,1.119104266E0,4.913108826E0
7.164140377E0,-7.025174141E0,-9.460768104E-2,4.439918041E0
7.180806314E0,-7.946740150E0,-5.955168009E-1,3.751320601E0
7.197472252E0,-7.604808331E0,3.798815310E-1,2.909930706E0
7.214138189E0,-6.123384953E0,1.959959626E0,1.833892465E0
7.230804127E0,-4.837285519E0,1.716071844E0,8.508582711E-1
7.247470064E0,-4.173122883E0,4.902189970E-2,2.167042792E-1
7.264136002E0,-3.544161081E0,-1.084590435E0,-1.873064190E-1
7.280801939E0,-2.660468817E0,-1.534645081E0,-3.752236962E-1
7.297467877E0,-1.955836296E0,-1.792429924E0,-2.612210512E-1
7.314133814E0,-1.617722631E0,-1.789222956E0,-1.941786408E-1
7.330799752E0,-1.148731232E0,-1.547778606E0,-3.007745445E-1
7.347465689E0,-4.657844007E-1,-8.631519079E-1,-4.312705398E-1
7.364131627E0,1.052214578E-1,2.273180634E-1,-5.902481079E-1
7.380797564E0,4.178315103E-1,1.420184255E0,-5.345830321E-1
7.397463502E0,7.040980458E-1,2.141004801E0,-2.527453005E-1
7.414129439E0,1.240284562E0,2.198807716E0,-1.403461844E-1
7.430795377E0,2.163530350E0,1.885434151E0,-6.640099883E-1
7.447461314E0,3.348302603E0,2.057698011E0,-1.296560526E0
7.464127252E0,3.909763575E0,2.881983757E0,-1.607490659E0
7.480793189E0,4.125093460E0,3.215668440E0,-2.112141371E0
7.497459127E0,5.235263824E0,2.607018232E0,-3.525300741E0
7.514125064E0,7.230882645E0,1.541517258E0,-4.930824280E0
7.530791002E0,8.510644913E0,8.803325295E-1,-5.193877697E0
7.547456939E0,8.935118675E0,1.153847218E0,-4.665327072E0
7.564122877E0,8.638696671E0,8.691841960E-1,-4.220464706E0
7.580788814E0,7.675897598E0,-1.962403022E-2,-3.910374641E0
7.597454752E0,6.222421169E0,-5.367974043E-1,-3.266446590E0
7.614120689E0,4.862178326E0,-2.617555559E-1,-2.440862894E0
7.630786627E0,3.962221622E0,4.207331315E-2,-1.656283498E0
7.647452564E0,3.701382399E0,-2.669478953E-1,-1.161024928E0
7.664118502E0,3.607461929E0,-6.615665555E-1,-9.322559834E-1
7.680784439E0,2.686277866E0,-3.764454126E-1,-4.873937368E-1
7.697450377E0,1.237612009E0,3.078758419E-1,5.870410800E-1
7.714116314E0,-1.297324002E-1,4.102720618E-1,2.283336163E0
7.730782252E0,-1.115668178E0,-4.483747482E-1,4.151666164E0
7.747448189E0,-1.696218729E0,-1.299233079E0,5.593307018E0
7.764114127E0,-1.826027513E0,-1.339779139E0,6.157898903E0
7.780780064E0,-1.910403252E0,-5.046506524E-1,6.130104542E0
7.797446002E0,-2.788215876E0,4.621191919E-1,6.507084370E0
7.814111939E0,-4.407465935E0,1.758832455E0,7.006695271E0
7.830777877E0,-5.925693989E0,2.548680544E0,7.001426697E0
7.847443814E0,-7.436973095E0,2.494160891E0,6.895594120E0
7.864109752E0,-8.635871887E0,1.532583356E0,6.616658211E0
7.880775689E0,-8.341969490E0,2.983310819E-1,5.488925457E0
7.897441627E0,-6.474708557E0,1.367726207E0,3.690539598E0
7.914107564E0,-4.749092102E0,3.272402525E0,2.131689072E0
7.930773502E0,-4.377380848E0,3.408167362E0,1.169195175E0
7.947439439E0,-4.607141972E0,1.861152291E0,4.450149834E-1
7.964105377E0,-4.584387302E0,6.178133488E-1,-7.589995116E-2
7.980771314E0,-4.217104912E0,2.144135386E-1,-2.609919906E-1
7.997437252E0,-3.455662012E0,-5.726857111E-3,-2.785543501E-1
8.014103189E0,-2.555171013E0,2.294560820E-1,-5.710822344E-1
8.030769127E0,-1.602298260E0,7.473930717E-1,-9.857830405E-1
8.047435064E0,-6.937133074E-1,1.238299251E0,-1.320155144E0
8.064101002E0,7.269290835E-2,1.476765633E0,-1.260061383E0
8.080766939E0,1.048243999E0,1.016479015E0,-9.771545529E-1
8.097432877E0,2.501338482E0,7.614429593E-1,-1.069242477E0
8.114098814E0,3.921751976E0,1.878409147E0,-1.588553905E0
8.130764752E0,4.213516235E0,4.137998104E0,-1.994244456E0
8.147430689E0,3.962221622E0,4.902495384E0,-1.983783364E0
8.164096627E0,4.562090874E0,2.758894444E0,-2.214003086E0
8.180762564E0,6.424235821E0,-3.078758419E-1,-3.240179539E0
8.197428502E0,8.270879745E0,-1.282510638E0,-4.317592144E0
8.214094439E0,9.044311523E0,1.320995092E-1,-4.411665440E0
8.230760377E0,9.143118858E0,1.052596331E0,-4.128682137E0
8.247426314E0,8.593874931E0,4.266890585E-1,-4.350197315E0
8.264092252E0,7.635351658E0,-6.091849208E-1,-4.298502922E0
8.280758189E0,6.422632217E0,-1.176143765E0,-3.671908140E0
8.297424127E0,5.410582066E0,-1.407890558E0,-2.770653486E0
8.314090064E0,4.499629974E0,-1.748524070E0,-1.964999318E0
8.330756002E0,3.640143156E0,-2.010890484E0,-1.444389820E0
8.347421939E0,2.881830931E0,-1.507996082E0,-9.884555936E-1
8.364087877E0,2.117715359E0,-3.889681399E-1,-4.250091612E-1
8.380753814E0,1.163315654E0,1.081230640E-1,8.355103135E-1
8.397419752E0,-4.050796926E-1,-8.305470347E-1,2.800051451E0
8.414085689E0,-2.201480389E0,-1.215162754E0,4.158843994E0
8.430751627E0,-3.833329201E0,2.048687786E-1,4.618214130E0
8.447417564E0,-5.262829304E0,2.158032656E0,4.906466007E0
8.464083502E0,-6.442332745E0,2.728351116E0,5.192503452E0
8.480749439E0,-7.341678143E0,2.458806992E0,4.915552616E0
8.497415377E0,-9.402049065E0,9.748638272E-1,5.100492001E0
8.514081314E0,-1.095776844E1,1.643302560E0,5.481976986E0
8.530747252E0,-1.040195847E1,3.783314705E0,5.233736515E0
8.547413189E0,-6.540758133E0,5.275352001E0,2.707429171E0
8.564079127E0,-1.379179955E0,3.757429361E0,-2.031125426E-1
8.580745064E0,3.426951468E-1,5.542834401E-1,-1.064355493E0
8.597411002E0,-1.768606305E0,-8.154281378E-1,-4.218784869E-1
8.614076939E0,-4.409374714E0,-1.798996776E-1,-1.619555205E-1
8.630742877E0,-5.339797974E0,-1.540906429E-1,-8.329904675E-1
8.647408814E0,-3.890521526E0,-2.131459951E0,-2.077703714E0
8.664074752E0,-1.493564367E0,-4.073399067E0,-3.210628986E0
8.680740689E0,-4.198931754E-1,-4.294455528E0,-3.816912174E0
8.697406627E0,-5.082395077E-1,-3.046764374E0,-4.384940147E0
8.714072564E0,1.007926930E-2,-2.065639257E0,-5.008022308E0
8.730738502E0,1.150182009E0,-2.351065874E0,-6.293052673E0
8.747404439E0,1.430110812E0,-3.117471933E0,-7.892296791E0
8.764070377E0,4.980838597E-1,-2.362672329E0,-7.385126114E0
8.780736314E0,-8.927025199E-1,-8.888082206E-2,-5.049484730E0
8.797402252E0,-7.481566668E-1,2.326860189E0,-3.925875187E0
8.814068189E0,7.715222239E-1,4.136623383E0,-3.407403708E0
8.830734127E0,1.336801171E0,4.282314777E0,-2.611370564E0
8.847400064E0,5.704713464E-1,3.851197004E0,-2.191706419E0
8.864066002E0,-5.092321634E-1,3.753687620E0,-1.611995816E0
8.880731939E0,-3.587303460E-1,4.533914566E0,-4.648680985E-1
8.897397877E0,2.147953212E-1,4.728704453E0,4.936550856E-1
8.914063814E0,-2.725984156E-2,2.886870623E0,9.680679440E-1
8.930729752E0,-1.743789911E0,1.111621141E0,1.221653223E0
8.947395689E0,-2.725678682E0,-2.962694131E-2,1.534415960E0
8.964061627E0,-1.496466041E0,1.797469556E-1,1.358028769E0
8.980727564E0,6.085740328E-1,-2.060905099E-1,1.032208800E0
8.997393502E0,1.776623845E0,-1.652389288E0,4.883863926E-1
9.014059439E0,2.319682598E0,-3.341277599E0,-6.011673212E-1
9.030725377E0,3.101284027E0,-3.105254650E0,-1.378110886E0
9.047391314E0,4.847364902E0,-1.209512234E0,-5.211440325E-1
9.064057252E0,6.337569237E0,-3.947713599E-2,1.331303477E0
9.080723189E0,5.043375969E0,-8.610138893E-1,5.148062706E-1
9.097389127E0,2.176129341E0,-4.032547474E0,-3.827067852E0
9.114055064E0,-8.707113862E-1,-2.636950493E0,-5.086518288E0
9.130721002E0,-3.055774689E0,2.875645876E0,-2.587241411E0
9.147386939E0,-2.928867579E0,6.696605206E0,-1.128725410E0
9.164052877E0,-2.079231024E0,6.195390701E0,-1.754709125E0
9.180718814E0,-2.220646143E0,4.609890938E0,-3.248807907E0
9.197384752E0,-2.777449369E0,4.905855179E0,-2.824027777E0
9.214050689E0,-3.068526506E0,6.211196899E0,-1.560454130E0
9.230716627E0,-1.884517789E0,5.797946930E0,-1.028849006E0
9.247382564E0,-5.619956255E-1,4.065992355E0,-1.326416492E0
9.264048502E0,-1.019304276E0,2.257221699E0,-1.704999924E0
9.280714439E0,-3.377624035E0,8.604030609E-1,-9.424880147E-1
9.297380377E0,-6.687671185E0,-5.041161776E-1,5.251146555E-1
9.314046314E0,-8.769345284E0,-1.478139997E0,1.138117433E0
9.330712252E0,-8.128013611E0,-1.425452948E0,6.248382926E-1
9.347378189E0,-6.234180450E0,-2.242179155E0,-2.102138400E-1
9.364044127E0,-5.113778114E0,-4.092793941E0,-8.497892618E-1
9.380710064E0,-5.444866657E0,-6.153241158E0,-6.570614576E-1
9.397376002E0,-6.609557152E0,-6.291525364E0,-2.703076601E-1
9.414041939E0,-7.454535484E0,-5.443110466E0,-6.108647957E-2
9.430707877E0,-7.054419041E0,-5.123933792E0,1.245400533E-1
9.447373814E0,-6.109334946E0,-5.279933453E0,6.439278126E-1
9.464039752E0,-5.463880062E0,-4.730307579E0,1.152701855E0
9.480705689E0,-5.773588657E0,-2.023489475E0,1.011057615E0
9.497371627E0,-6.929497242E0,8.975130916E-1,9.455423355E-1
9.514037564E0,-7.031893730E0,2.688492298E0,6.138427258E-1
9.530703502E0,-5.040474415E0,2.686888695E0,1.666133702E-1
9.547369439E0,-2.522031546E0,2.479652882E0,-5.448150039E-1
9.564035377E0,-1.242575288E0,3.376478672E0,-1.646815062E0
9.580701314E0,-1.958203435E0,4.295906544E0,-1.922315121E0
9.597367252E0,-2.665508509E0,3.430005789E0,-1.859472394E0
9.614033189E0,-2.366566420E0,3.640983105E0,-1.900552988E0
9.630699127E0,-1.829769135E0,4.933191299E0,-2.913977623E0
9.647365064E0,7.490729094E-1,6.042292595E0,-4.278954983E0
9.664031002E0,6.471730709E0,5.038183689E0,-4.994277954E0
9.680696939E0,1.205495834E1,1.537012100E0,-6.576723099E0
9.697362877E0,1.415648556E1,-2.102061987E0,-8.385111809E0
9.714028814E0,1.279723549E1,-3.952524185E0,-9.039958954E0
9.730694752E0,1.003482819E1,-3.957029343E0,-8.412600517E0
9.747360689E0,7.867250919E0,-3.255527496E0,-7.271886826E0
9.764026627E0,6.811142445E0,-3.542328596E0,-5.885071278E0
9.780692564E0,6.256476879E0,-5.546194077E0,-3.622580767E0
9.797358502E0,4.054385662E0,-6.426679134E0,-1.303509116E0
9.814024439E0,1.703701854E0,-4.020711899E0,5.448913574E-1
9.830690377E0,7.308996916E-1,-9.151517749E-1,2.381150961E0
9.847356314E0,-4.314996004E-1,5.100721121E-1,3.950691700E0
9.864022252E0,-1.899636745E0,1.966679215E0,4.931893349E0
9.880688189E0,-3.479791164E0,3.619221210E0,5.442575932E0
9.897354127E0,-5.603080750E0,5.068039417E0,6.486925602E0
9.914020064E0,-7.879468441E0,5.723268509E0,7.743703842E0
9.930686002E0,-9.200539589E0,3.666181326E0,7.825865269E0
9.947351939E0,-9.061415672E0,-4.900662601E-1,6.520752430E0
9.964017877E0,-8.079374313E0,-2.712621450E0,5.558716774E0
9.980683814E0,-8.045242310E0,-9.683734179E-1,5.761981964E0
9.997349752E0,-9.523153305E0,2.259436101E-1,6.028624535E0
1.001401569E1,-9.642958641E0,-2.388633966E0,5.915385246E0
1.003068163E1,-7.553037643E0,-5.509771347E0,5.782522202E0
1.004734756E1,-5.665694237E0,-5.306735039E0,6.093986988E0
1.006401350E1,-5.699368477E0,-2.664821148E0,6.207073212E0
1.008067944E1,-6.165992737E0,-4.442514181E-1,5.324068546E0
1.009734538E1,-6.047026634E0,9.292780161E-1,4.112265110E0
1.011401131E1,-5.870334148E0,1.652236462E0,3.135110855E0
1.013067725E1,-5.832536697E0,2.708345413E0,2.492251873E0
1.014734319E1,-5.826275349E0,3.887543440E0,1.914831996E0
1.016400913E1,-4.925784588E0,4.238332748E0,7.600684762E-1
1.018067506E1,-2.732627153E0,3.739790440E0,-8.236747980E-1
1.019734100E1,-2.716057599E-1,2.800738573E0,-2.317010164E0
1.021400694E1,1.114370108E0,2.080834627E0,-3.340513945E0
1.023067288E1,1.268460751E0,1.689041138E0,-3.688477993E0
1.024733881E1,9.783763289E-1,2.473926067E0,-3.825617075E0
1.026400475E1,8.590285778E-1,4.540405273E0,-3.779649496E0
1.028067069E1,1.250058413E0,6.077569962E0,-4.139983177E0
1.029733663E1,2.444909811E0,6.257317066E0,-5.090260029E0
1.031400256E1,3.837452650E0,5.171963215E0,-5.538252831E0
1.033066850E1,5.131187916E0,4.282620430E0,-5.231904030E0
1.034733444E1,7.113443851E0,3.926104307E0,-5.613847256E0
1.036400038E1,9.624938011E0,3.742233992E0,-6.553815365E0
1.038066631E1,1.092974567E1,2.627329350E0,-6.746543407E0
1.039733225E1,1.008285809E1,1.742033601E0,-6.383155346E0
1.041399819E1,8.077388763E0,1.455156207E0,-5.668596268E0
1.043066413E1,6.268007278E0,1.544189811E0,-4.387689114E0
1.044733006E1,5.318646908E0,1.146516800E0,-3.239186764E0
1.046399600E1,5.078500748E0,-2.396880686E-1,-2.433990717E0
1.048066194E1,5.200673580E0,-1.602603793E0,-1.727372885E0
1.049732788E1,4.717327118E0,-2.037234068E0,-9.634864926E-1
1.051399381E1,3.501018763E0,-1.632077932E0,-7.338013500E-2
1.053065975E1,2.154443741E0,-8.150463104E-1,9.500474334E-1
1.054732569E1,1.024572968E0,-2.968039215E-1,2.290208340E0
1.056399163E1,1.144607887E-1,-4.548651874E-1,4.006891251E0
1.058065756E1,-4.489092529E-1,-8.749110699E-1,5.552379131E0
1.059732350E1,-6.944005489E-1,-9.550107121E-1,6.494103432E0
1.061398944E1,-9.320269227E-1,-7.646499872E-1,6.993943691E0
1.063065538E1,-1.370856881E0,-3.690386713E-1,7.326025009E0
1.064732131E1,-2.049375057E0,1.109101415E0,7.629166603E0
1.066398725E1,-3.386634350E0,3.799960613E0,7.454611778E0
1.068065319E1,-5.548790455E0,5.057884216E0,7.373672485E0
1.069731913E1,-8.040966034E0,2.973766088E0,7.583809853E0
1.071398506E1,-9.323934555E0,-1.767689884E-1,7.087024212E0
1.073065100E1,-7.861218929E0,2.634354308E-2,5.340103626E0
1.074731694E1,-5.131034851E0,2.689255714E0,3.538815975E0
1.076398288E1,-3.852953196E0,3.738645077E0,2.007378101E0
1.078064881E1,-4.103178501E0,2.141691923E0,1.062522888E0
1.079731475E1,-4.330725670E0,-3.126100600E-1,4.654026031E-1
1.081398069E1,-4.134332657E0,-9.282090068E-1,-4.886918142E-2
1.083064663E1,-4.180758476E0,-1.488982886E-1,-2.041051984E-1
1.084731256E1,-4.264752388E0,8.586468101E-1,-4.727329910E-1
1.086397850E1,-4.001927853E0,1.597487807E0,-1.165377259E0
1.088064444E1,-3.395720959E0,2.013868570E0,-2.019060850E0
1.089731038E1,-2.672075272E0,1.946291566E0,-2.580216408E0
1.091397631E1,-1.569998860E0,1.146058679E0,-2.622900724E0
1.093064225E1,1.438586563E-1,4.143953919E-1,-2.527605772E0
1.094730819E1,2.382372618E0,1.183855891E0,-2.941237450E0
1.096397413E1,4.091266632E0,3.373042583E0,-3.965199709E0
1.098064006E1,4.572857380E0,5.190517902E0,-4.456793308E0
1.099730600E1,4.739394188E0,4.491154194E0,-4.519254208E0
1.101397194E1,5.666687012E0,2.536844969E0,-5.228239059E0
1.103063788E1,7.470112801E0,1.517006278E0,-6.407666206E0
1.104730381E1,9.199852943E0,2.041891813E0,-7.161549568E0
1.106396975E1,9.867680550E0,2.670624495E0,-7.287311554E0
1.108063569E1,9.684650421E0,2.554712772E0,-7.307469845E0
1.109730163E1,8.849521637E0,2.413373947E0,-6.734631538E0
1.111396756E1,7.120697975E0,2.160857916E0,-5.454640865E0
1.113063350E1,5.291539669E0,1.631848931E0,-4.195037365E0
1.114729944E1,4.253833294E0,1.453781843E0,-3.265988588E0
1.116396538E1,3.824471712E0,1.558163285E0,-2.420246363E0
1.118063131E1,3.797822714E0,1.628260016E0,-1.133154154E0
1.119729725E1,3.345324516E0,1.191568136E0,6.385064125E-1
1.121396319E1,2.280205488E0,8.920152783E-1,2.350378513E0
1.123062913E1,1.048473001E0,1.145371437E0,3.930685759E0
1.124729506E1,-2.798524201E-1,1.367038965E0,5.705706120E0
1.126396100E1,-1.313588381E0,1.191797137E0,7.299834251E0
1.128062694E1,-1.554421782E0,9.194278717E-1,8.086856842E0
1.129729288E1,-1.515860915E0,1.226769209E0,8.179403305E0
1.131395881E1,-2.520657063E0,3.013472319E0,8.219948769E0
1.133062475E1,-4.708621979E0,5.601553440E0,8.154051781E0
1.134729069E1,-6.757386208E0,6.149652004E0,7.535780430E0
1.136395663E1,-8.177265167E0,2.433074474E0,7.248674393E0
1.138062256E1,-8.751248360E0,-1.626732945E0,7.121156216E0
1.139728850E1,-7.623210430E0,-7.990111113E-1,6.295419693E0
1.141395444E1,-6.093910694E0,2.350836754E0,4.656087875E0
1.143062038E1,-5.032609463E0,4.033158302E0,2.818606377E0
1.144728631E1,-5.062160015E0,3.336009026E0,1.694309831E0
1.146395225E1,-5.528784275E0,1.254410863E0,1.056185246E0
1.148061819E1,-5.197924614E0,3.525453210E-1,2.977965772E-1
1.149728413E1,-4.478020668E0,7.299070358E-1,-3.398698866E-1
1.151395006E1,-3.854403973E0,1.280678034E0,-7.949641347E-1
1.153061600E1,-3.470322847E0,1.405218124E0,-1.206534266E0
1.154728194E1,-3.055622101E0,1.102458239E0,-1.739971995E0
1.156394788E1,-2.479194641E0,7.618247271E-1,-2.325409412E0
1.158061381E1,-1.626732945E0,6.730966568E-1,-2.582278252E0
1.159727975E1,-6.843976378E-1,3.717112243E-1,-2.651229620E0
1.161394569E1,4.607447684E-1,3.448331654E-1,-2.921995401E0
1.163061163E1,1.649793029E0,1.167897105E0,-3.381365538E0
1.164727756E1,2.497673273E0,2.477667570E0,-3.725893259E0
1.166394350E1,3.054094791E0,3.211316109E0,-3.798051834E0
1.168060944E1,3.591655731E0,3.289659500E0,-4.059731007E0
1.169727538E1,4.384099960E0,3.402975082E0,-4.533456802E0
1.171394131E1,5.547568321E0,3.617770195E0,-4.836750984E0
1.173060725E1,7.093132973E0,2.419253588E0,-5.141037941E0
1.174727319E1,8.949398041E0,7.726675868E-1,-5.968606949E0
1.176393913E1,9.990693092E0,1.201112866E0,-6.460734844E0
1.178060506E1,9.267353058E0,2.045404434E0,-6.235631466E0
1.179727100E1,8.005077362E0,1.939648390E0,-5.542147160E0
1.181393694E1,6.834584236E0,9.731075764E-1,-4.502226353E0
1.183060288E1,6.033969402E0,1.302669197E-1,-3.589975834E0
1.184726881E1,5.350259304E0,-4.848739132E-2,-2.920162678E0
1.186393475E1,4.793074131E0,1.370627880E-1,-2.222784281E0
1.188060069E1,4.255971432E0,3.638463318E-1,-1.401552916E0
1.189726663E1,3.432372808E0,5.510764122E-1,-3.410916328E-1
1.191393256E1,2.070831537E0,7.155517340E-1,1.179579854E0
1.193059850E1,5.049561262E-1,9.054543376E-1,3.359603643E0
1.194726444E1,-6.094139814E-1,8.003855944E-1,5.940583706E0
1.196393038E1,-1.049618363E0,4.741074145E-1,7.703463078E0
1.198059631E1,-1.277318239E0,6.525563002E-1,8.301117897E0
1.199726225E1,-2.374278784E0,1.726609349E0,8.676188469E0
1.201392819E1,-4.389445305E0,3.995590210E0,8.862120628E0
1.203059413E1,-6.409193039E0,6.225628376E0,8.427719116E0
1.204726006E1,-7.972167015E0,6.401786327E0,7.605342865E0
1.206392600E1,-1.028314495E1,2.928333044E0,7.522418022E0
1.208059194E1,-1.126572132E1,-1.024191141E0,7.295634270E0
1.209725788E1,-8.688864708E0,-1.849851251E0,6.256706238E0
1.211392381E1,-4.899975300E0,2.340375632E-1,4.866759777E0
1.213058975E1,-3.799502611E0,1.924147725E0,3.083492756E0
1.214725569E1,-4.928227901E0,2.129321814E0,1.812588573E0
1.216392163E1,-6.102157593E0,1.819613457E0,1.005177975E0
1.218058756E1,-6.227079391E0,2.108247042E0,4.272235632E-1
1.219725350E1,-5.963796616E0,3.053407669E0,3.140608668E-1
1.221391944E1,-5.425090313E0,3.192837477E0,-1.099556591E-2
1.223058538E1,-4.621344566E0,2.151923895E0,-1.072983980E0
1.224725131E1,-3.740935802E0,1.216766238E0,-2.028300047E0
1.226391725E1,-3.739790440E0,1.737223029E0,-2.879311085E0
1.228058319E1,-4.014756203E0,3.057149172E0,-4.163806915E0
1.229724913E1,-3.031874657E0,3.370980978E0,-5.657982349E0
1.231391506E1,-9.320269227E-1,2.460639715E0,-6.989743710E0
1.233058100E1,7.157807946E-1,1.263573766E0,-7.663298607E0
1.234724694E1,1.272584081E0,1.748218656E0,-8.217200279E0
1.236391288E1,1.787466645E0,3.681987524E0,-8.058527946E0
1.238057881E1,1.797316909E0,5.340867043E0,-6.428206444E0
1.239724475E1,1.318398952E0,6.129111767E0,-4.103560448E0
1.241391069E1,3.388314247E0,4.652117252E0,-1.662697554E0
1.243057663E1,7.203622818E0,1.696829677E0,-9.589049816E-1
1.244724256E1,8.800347328E0,-8.526145220E-1,-1.512119412E0
1.246390850E1,6.902695656E0,7.607557178E-1,-1.402545571E0
1.248057444E1,3.017901182E0,5.122712135E0,-3.878991306E-1
1.249724038E1,6.617192626E-1,7.084504128E0,8.000801206E-1
1.251390631E1,1.272431374E0,5.015810490E0,8.807142973E-1
1.253057225E1,1.660712242E0,2.683987141E0,6.215549260E-2
1.254723819E1,5.138900131E-2,2.678642035E0,-1.229365356E-2
1.256390413E1,-2.266842842E0,3.254992962E0,5.541307330E-1
1.258057006E1,-3.426722288E0,2.582049131E0,1.079321742E0
1.259723600E1,-4.153346062E0,1.027627230E0,1.125289321E0
1.261390194E1,-6.271901608E0,8.891136646E-1,8.680388331E-1
1.263056788E1,-8.835013390E0,1.291139126E0,7.583122849E-1
1.264723381E1,-7.780813694E0,1.580688953E0,1.486004949E0
1.266389975E1,-3.057378292E0,1.459126830E0,2.372904301E0
1.268056569E1,7.974839807E-1,-5.785652995E-1,2.570748091E0
1.269723163E1,2.007530689E0,-3.179398537E0,2.380158186E0
1.271389756E1,1.837557673E0,-4.648681164E0,1.441564560E0
1.273056350E1,1.160337687E0,-3.968024969E0,-2.215148360E-1
1.274722944E1,-1.222493127E-1,-1.961792231E0,-1.930485368E0
1.276389538E1,-1.456377983E0,-6.724857688E-1,-3.163439512E0
1.278056131E1,-1.902003884E0,-1.679496408E0,-4.080500603E0
1.279722725E1,-1.497153163E0,-3.874562502E0,-4.683042049E0
1.281389319E1,-1.251967311E0,-3.593183041E0,-4.238790512E0
1.283055913E1,-1.393687963E0,-4.586831033E-1,-3.199938774E0
1.284722506E1,-1.688659310E0,1.697135091E0,-2.159712315E0
1.286389100E1,-1.457981467E0,6.727911830E-1,-1.326951027E0
1.288055694E1,-6.354520917E-1,-1.517311811E0,-1.142851591E0
1.289722288E1,1.340619087E0,-2.293110132E0,-1.606650710E0
1.291388881E1,3.547826290E0,-1.014035568E-1,-1.816253662E0
1.293055475E1,2.775311470E0,-1.621998668E0,-6.565269232E-1
1.294722069E1,-7.148644924E-1,-5.204339027E0,1.734856009E0
1.296388663E1,-5.337965488E0,-3.514686823E0,3.794921160E0
1.298055256E1,-8.935577393E0,5.025126338E-1,3.967795849E0
1.299721850E1,-8.094950676E0,1.650632977E0,2.633590698E0
1.301388444E1,-3.179093122E0,-1.754785419E0,5.277107954E-1
1.303055038E1,9.197332859E-1,-1.194164276E0,2.724456787E-1
1.304721631E1,2.119242668E0,3.543473959E0,3.148244321E-1
1.306388225E1,2.832274437E0,5.045895576E0,-5.652790070E-1
1.308054819E1,3.494375706E0,4.283078194E0,-1.920482516E0
1.309721413E1,3.630445719E0,4.086838245E0,-2.355112791E0
1.311388006E1,3.680613041E0,4.176253319E0,-2.087095976E0
1.313054600E1,3.571497202E0,4.251389980E0,-1.584812284E0
1.314721194E1,3.120526314E0,4.506502151E0,-1.074434757E0
1.316387788E1,2.063348532E0,4.390743256E0,-8.798743486E-1
1.318054381E1,1.034194112E0,2.934518099E0,-9.442442060E-1
1.319720975E1,8.162680864E-1,1.362228513E0,-1.051527381E0
1.321387569E1,1.479972601E0,1.396742344E0,-8.932369947E-1
1.323054163E1,2.634125233E0,2.983081818E0,-1.052443624E0
1.324720756E1,3.112585068E0,3.700313330E0,-1.406134367E0
1.326387350E1,2.672686100E0,3.700924158E0,-1.491273642E0
1.328053944E1,1.989968419E0,3.950080633E0,-1.506850719E0
1.329720538E1,1.164766431E0,5.103317261E0,-1.778532863E0
1.331387131E1,7.231111825E-2,6.319930553E0,-2.204916477E0
1.333053725E1,-8.132901192E-1,6.245481491E0,-2.320140839E0
1.334720319E1,-1.265330076E0,5.797488689E0,-2.282419920E0
1.336386913E1,-1.564501047E0,6.830613613E0,-2.532034397E0
1.338053506E1,-1.363221169E0,7.589994907E0,-2.991252184E0
1.339720100E1,-3.843103051E-1,5.523744583E0,-2.996597290E0
1.341386694E1,5.614610910E-1,2.275089502E0,-2.571282625E0
1.343053288E1,2.784779668E-1,-8.994983882E-2,-2.134056091E0
1.344719881E1,-1.074511170E0,-1.822286010E0,-1.598480463E0
1.346386475E1,-3.060966969E0,-4.334467411E0,-1.213330150E0
1.348053069E1,-5.030776978E0,-7.715145588E0,-1.101541877E0
1.349719663E1,-6.097041130E0,-1.114079952E1,-4.216494262E-1
1.351386256E1,-6.054891586E0,-1.349827862E1,1.004185319E0
1.353052850E1,-5.200291634E0,-1.330562782E1,2.569373608E0
1.354719444E1,-4.351266384E0,-1.074587536E1,3.480173111E0
1.356386038E1,-4.218479633E0,-7.888249397E0,3.509570837E0
1.358052631E1,-4.792234421E0,-5.243205070E0,2.664363146E0
1.359719225E1,-5.549401283E0,-2.342895508E0,1.228907228E0
1.361385819E1,-5.794434071E0,-9.615011811E-1,-3.491855860E-1
1.363052413E1,-4.333245754E0,-2.231718063E0,-1.912693977E0
1.364719006E1,-1.978361964E0,-4.102797031E0,-4.076071739E0
1.366385600E1,-7.858775258E-1,-3.790034056E0,-6.493034363E0
1.368052194E1,-9.921207428E-1,-1.481957912E0,-8.192995071E0
1.369718788E1,-1.401629210E0,5.563451052E-1,-8.723835945E0
1.371385381E1,-1.048320293E0,1.158734083E0,-8.507361412E0
1.373051975E1,-9.460768104E-2,3.476584256E-1,-8.586238861E0
1.374718569E1,2.764163017E-1,-1.007926941E0,-9.104557991E0
1.376385163E1,-3.535379842E-2,-8.374192715E-1,-9.189391136E0
1.378051756E1,1.636354029E-1,1.475162029E0,-7.784020901E0
1.379718350E1,8.713986278E-1,3.159621716E0,-6.254339218E0
1.381384944E1,2.422995090E0,2.461326838E0,-5.293601513E0
1.383051538E1,3.520490170E0,3.168097436E-1,-4.488863468E0
1.384718131E1,3.855702162E0,-7.618247271E-1,-2.967581034E0
1.386384725E1,4.218708515E0,-7.848848701E-1,-3.935496211E-1
1.388051319E1,4.525897026E0,-6.231584549E-1,2.693684578E0
1.389717913E1,3.421835423E0,6.898953915E-1,4.464276314E0
1.391384506E1,4.448622763E-1,1.187750220E0,4.190837860E0
1.393051100E1,-2.428645611E0,5.125155449E-1,3.839437962E0
1.394717694E1,-3.519268274E0,4.016436040E-1,4.742983341E0
1.396384288E1,-2.928027630E0,9.753983617E-1,5.697612286E0
1.398050881E1,-2.510272503E0,1.635590434E0,4.547659397E0
1.399717475E1,-3.233459949E0,3.799502611E0,3.588143349E0
1.401384069E1,-5.518628597E0,5.473424911E0,4.162280083E0
1.403050663E1,-7.607939243E0,3.551644087E0,4.148153782E0
1.404717256E1,-8.830203056E0,-6.690496206E-1,3.662286997E0
1.406383850E1,-9.130825043E0,-2.763246775E0,3.817904949E0
1.408050444E1,-9.273156166E0,-4.996110201E-1,4.410443783E0
1.409717038E1,-1.022266960E1,1.228601813E0,4.194502831E0
1.411383631E1,-9.071800232E0,4.079049528E-1,3.139004946E0
1.413050225E1,-7.213167667E0,-1.183092356E0,2.527529478E0
1.414716819E1,-7.171170712E0,-2.234390736E0,2.167882681E0
1.416383413E1,-8.038751602E0,-9.954805374E-1,1.397200465E0
1.418050006E1,-8.677716255E0,1.274263978E0,3.218493760E-1
1.419716600E1,-8.956728935E0,1.946291566E0,-7.690787315E-1
1.421383194E1,-7.793947220E0,1.450116634E0,-1.512348533E0
1.423049788E1,-4.984503746E0,1.494175196E0,-2.424140453E0
1.424716381E1,-1.748753190E0,1.861915827E0,-2.702542067E0
1.426382975E1,6.881392002E-1,1.242957115E0,-2.495611668E0
1.428049569E1,2.475300550E0,7.351757884E-1,-2.930700064E0
1.429716163E1,3.469024658E0,1.835266829E0,-3.454211235E0
1.431382756E1,3.413741350E0,4.251008034E0,-3.275762320E0
1.433049350E1,2.463846684E0,6.465392590E0,-3.200397015E0
1.434715944E1,2.317544699E0,6.503800869E0,-3.630064011E0
1.436382538E1,3.509265423E0,6.527777195E0,-4.305527687E0
1.438049131E1,4.996263027E0,6.714243889E0,-4.921279430E0
1.439715725E1,7.419334412E0,5.740830898E0,-5.878427982E0
1.441382319E1,1.174227142E1,3.961381674E0,-7.280744553E0
1.443048913E1,1.422727013E1,9.625701904E-1,-8.507742882E0
1.444715506E1,1.398139668E1,-1.881845355E0,-8.991700172E0
1.446382100E1,1.189498806E1,-2.998048067E0,-8.671225548E0
1.448048694E1,7.882369995E0,-1.956523538E0,-6.570919514E0
1.449715288E1,5.651568413E0,-1.083215952E0,-3.084103584E0
1.451381881E1,4.615312576E0,-2.278449297E0,-7.370846868E-1
1.453048475E1,3.978180408E0,-3.493382931E0,1.713170290E0
1.454715069E1,2.048611403E0,-2.873737097E0,4.143648624E0
1.456381663E1,1.057559624E-1,-1.315726399E0,5.831238747E0
1.458048256E1,-1.053588986E0,4.199695215E-2,6.875741005E0
1.459714850E1,-2.606407404E0,7.278453708E-1,8.849292755E0
1.461381444E1,-4.543154240E0,1.307632446E0,1.066203403E1
1.463048038E1,-5.950281143E0,1.830532670E0,1.063752270E1
1.464714631E1,-6.351542950E0,1.845422506E0,9.682512283E0
1.466381225E1,-6.732493401E0,1.017853469E-1,9.720080376E0
1.468047819E1,-6.264189243E0,-1.187062979E0,9.156480789E0
1.469714413E1,-5.286576748E0,-7.246383280E-2,7.698881626E0
1.471381006E1,-6.111167431E0,1.195767760E0,7.115123749E0
1.473047600E1,-7.546394348E0,1.257770538E0,6.882308006E0
1.474714194E1,-7.418952942E0,1.095815063E0,5.896754265E0
1.476380788E1,-6.291296482E0,1.346116900E0,4.546284676E0
1.478047381E1,-5.789241791E0,1.555490851E0,3.662592411E0
1.479713975E1,-5.926533699E0,1.117577076E0,2.905807495E0
1.481380569E1,-5.642099857E0,1.428354621E0,1.825416684E0
1.483047163E1,-4.598284721E0,2.603123903E0,9.779945016E-1
1.484713756E1,-2.894429922E0,2.589073896E0,4.135554433E-1
1.486380350E1,-5.217548609E-1,1.150029302E0,-4.775435328E-1
1.488046944E1,1.561675787E0,-4.020253718E-1,-1.459050536E0
1.489713538E1,2.263635874E0,-9.650136232E-1,-2.195219040E0
1.491380131E1,1.701411128E0,-2.481638193E-1,-2.578231096E0
1.493046725E1,1.320307851E0,1.421406031E0,-3.045695543E0
1.494713319E1,2.213773966E0,2.642982721E0,-3.741470337E0
1.496379913E1,3.956571102E0,3.242622852E0,-4.631271362E0
1.498046506E1,5.138976097E0,3.610363483E0,-5.572308540E0
1.499713100E1,5.505266190E0,4.485885620E0,-6.148048401E0
1.501379694E1,6.571683407E0,3.839666843E0,-6.626661301E0
1.503046288E1,8.887624741E0,1.637193918E0,-7.577395916E0
1.504712881E1,1.120822334E1,4.928915203E-1,-8.482086182E0
1.506379475E1,1.196287060E1,1.140789986E0,-8.790573120E0
1.508046069E1,1.104718399E1,1.287473917E0,-8.250110626E0
1.509712663E1,9.565913200E0,3.973675370E-1,-7.402841091E0
1.511379256E1,7.426894188E0,-4.710530937E-1,-6.197757721E0
1.513045850E1,5.601630211E0,-5.609265566E-1,-4.758483887E0
1.514712444E1,4.714578152E0,-3.407861888E-1,-3.422293663E0
1.516379038E1,4.836216450E0,5.062541738E-2,-2.290971994E0
1.518045631E1,4.440910816E0,7.865647674E-1,-8.729257584E-1
1.519712225E1,2.913137674E0,1.719126225E0,1.385059476E0
1.521378819E1,1.156977892E0,2.267835379E0,3.897088289E0
1.523045413E1,-9.166026115E-1,1.946749687E0,6.135449409E0
1.524712006E1,-2.811275959E0,1.094975114E0,7.844114780E0
1.526378600E1,-3.712683439E0,9.211840630E-1,8.602961540E0
1.528045194E1,-4.135020256E0,2.027689219E0,8.807906151E0
1.529711788E1,-5.242212296E0,3.163210630E0,8.927407265E0
1.531378381E1,-6.815265656E0,2.609385252E0,8.896100044E0
1.533044975E1,-7.233097076E0,6.371319890E-1,8.134504318E0
1.534711569E1,-6.899564743E0,-5.896372199E-1,6.745092392E0
1.536378163E1,-6.414232731E0,5.756636858E-1,5.518628597E0
1.538044756E1,-6.311302185E0,2.321820736E0,4.371577263E0
1.539711350E1,-6.268236160E0,3.298975229E0,2.863734007E0
1.541377944E1,-6.045270443E0,4.030180454E0,1.658039689E0
1.543044538E1,-6.346885204E0,3.296455383E0,9.114866257E-1
1.544711131E1,-6.235936642E0,1.540142775E0,-5.971203372E-2
1.546377725E1,-5.549935818E0,6.795870662E-1,-1.056261539E0
1.548044319E1,-4.994354248E0,1.076496482E0,-1.674533129E0
1.549710913E1,-4.914712429E0,1.582674265E0,-1.907577991E0
1.551377506E1,-4.819341183E0,7.084504366E-1,-2.112065077E0
1.553044100E1,-4.062632561E0,-6.283507943E-1,-2.061821461E0
1.554710694E1,-2.838230371E0,-5.447386503E-1,-1.658116102E0
1.556377288E1,-1.361083031E0,6.388118267E-1,-1.485317707E0
1.558043881E1,3.535379767E-1,2.055865526E0,-2.057850838E0
1.559710475E1,1.958737969E0,3.595168352E0,-2.890306711E0
1.561377069E1,2.976896763E0,5.299710274E0,-2.837696075E0
1.563043663E1,3.908618212E0,5.868806839E0,-1.992946386E0
1.564710256E1,5.425090313E0,5.122177601E0,-1.777463794E0
1.566376850E1,7.287693024E0,3.529958487E0,-2.485227108E0
1.568043444E1,8.335861206E0,1.669646144E0,-2.519282818E0
1.569710038E1,9.762229919E0,7.826704979E-1,-2.735681534E0
1.571376631E1,1.059667110E1,1.453323722E0,-4.082714558E0
1.573043225E1,9.484438896E0,2.393520832E0,-4.476035118E0
1.574709819E1,7.788067818E0,2.485914230E0,-3.615556002E0
1.576376413E1,6.933009624E0,6.157516837E-1,-2.752633095E0
1.578043006E1,6.770749092E0,-1.629099965E0,-2.601749420E0
1.579709600E1,6.262203693E0,-2.158185244E0,-2.974071503E0
1.581376194E1,4.599277496E0,-2.865719497E-1,-2.596709728E0
1.583042788E1,1.706145287E0,7.667880058E-1,-6.356047988E-1
1.584709381E1,-1.451109290E0,-3.304778337E-1,1.658726931E0
1.586375975E1,-4.003989697E0,-1.642309904E0,3.484601736E0
1.588042569E1,-6.001899242E0,-1.014493704E0,4.555982113E0
1.589709163E1,-7.389402390E0,2.138026804E-2,4.596910000E0
1.591375756E1,-8.220102310E0,-7.098248601E-1,4.328893185E0
1.593042350E1,-8.179250717E0,-2.128329277E0,4.089434147E0
1.594708944E1,-7.171323299E0,-1.461952090E0,3.281565666E0
1.596375538E1,-7.542805672E0,2.512181401E-1,2.088928461E0
1.598042131E1,-9.139530182E0,2.275165796E0,9.170607328E-1
1.599708725E1,-7.998739719E0,3.053789377E0,-2.788597643E-1
1.601375319E1,-3.145724535E0,1.750891209E-1,-1.096044183E0
1.603041913E1,9.360738993E-1,-3.491626740E0,-1.527391076E0
1.604708506E1,9.214895368E-1,-4.383947372E0,-1.362533927E0
1.606375100E1,-1.117271662E0,-3.462992430E0,-1.402850986E0
1.608041694E1,-4.237874448E-1,-3.784765482E0,-1.979736447E0
1.609708288E1,2.249967813E0,-5.324603081E0,-2.671693563E0
1.611374881E1,4.242684841E0,-5.979831696E0,-2.704069376E0
1.613041475E1,4.910665512E0,-5.207622051E0,-2.588081360E0
1.614708069E1,4.771082878E0,-4.130896568E0,-2.904356480E0
1.616374663E1,3.878685951E0,-3.526064157E0,-3.648237228E0
1.618041256E1,2.087630272E0,-4.038808823E0,-4.444117546E0
1.619707850E1,7.397572398E-1,-4.251771450E0,-5.098506451E0
1.621374444E1,5.230529606E-2,-2.165439367E0,-5.592009068E0
1.623041038E1,-3.168097436E-1,1.769598961E0,-5.488238335E0
1.624707631E1,-5.046506524E-1,4.589579582E0,-5.040016174E0
1.626374225E1,-4.350884259E-1,4.279184341E0,-4.789943218E0
1.628040819E1,-2.057087123E-1,2.651535034E0,-3.942215919E0
1.629707413E1,2.451094985E-1,2.204000235E0,-2.259588718E0
1.631374006E1,1.519984245E0,2.568075418E0,-6.630937457E-1
1.633040600E1,2.041128397E0,3.202076912E0,4.439459741E-1
1.634707194E1,9.640973210E-1,4.312934399E0,8.284090161E-1
1.636373788E1,-6.310997009E-1,4.196793556E0,1.018617034E0
1.638040381E1,-1.704541802E0,1.371925950E0,1.439731956E0
1.639706975E1,-5.758927464E-1,-7.714458704E-1,1.919566154E0
1.641373569E1,1.013501048E0,9.392045736E-1,2.218508244E0
1.643040163E1,1.121242285E0,3.752465963E0,1.681023479E0
1.644706756E1,5.630646348E-1,4.237110615E0,8.355103135E-1
1.646373350E1,4.518108666E-1,1.489517450E0,6.719512399E-3
1.648039944E1,7.260127664E-1,-1.080467105E0,-6.074286699E-1
1.649706538E1,8.610902429E-1,-1.208824992E0,-7.199804783E-1
1.651373131E1,1.084819436E0,2.788597643E-1,-2.286925018E-1
1.653039725E1,8.184824586E-1,1.576107502E0,3.048978746E-1
1.654706319E1,-9.804379940E-2,1.439502835E0,-2.390772104E-1
1.656372913E1,-8.300125003E-1,-2.666424811E-1,-1.312672019E0
1.658039506E1,-1.528765440E0,-7.348703146E-1,-1.323438525E0
1.659706100E1,-1.539990067E0,4.311941862E-1,-5.884918571E-1
1.661372694E1,-8.903354406E-1,1.850080371E0,5.871937796E-2
1.663039288E1,-7.612902522E-1,2.842964649E0,2.970330119E-1
1.664705881E1,-8.772782087E-1,2.992855549E0,-9.407317638E-2
1.666372475E1,-7.098248601E-1,2.589226723E0,-7.807615399E-1
1.668039069E1,-2.889390290E-1,2.750189543E0,-1.047251344E0
1.669705663E1,-9.753983617E-1,3.676947832E0,-8.141300082E-1
1.671372256E1,-3.036074400E0,4.451066017E0,-9.766200781E-1
1.673038850E1,-4.035678387E0,5.065061569E0,-1.772805929E0
1.674705444E1,-3.569741011E0,6.237692833E0,-1.992717266E0
1.676372038E1,-3.410763502E0,6.913156509E0,-1.761657715E0
1.678038631E1,-3.666334152E0,5.761523724E0,-1.939648390E0
1.679705225E1,-4.198473454E0,3.034470797E0,-2.092517376E0
1.681371819E1,-5.092397690E0,-7.078395784E-2,-1.832288861E0
1.683038413E1,-6.161945820E0,-2.191248417E0,-1.672547817E0
1.684705006E1,-6.965691090E0,-2.283565283E0,-1.591760874E0
1.686371600E1,-7.471945286E0,-1.456225276E0,-1.720271587E0
1.688038194E1,-8.355561256E0,-1.783496022E0,-2.051589251E0
1.689704788E1,-9.277203560E0,-3.713828802E0,-2.299524069E0
1.691371381E1,-9.178091049E0,-5.866745472E0,-1.868024468E0
1.693037975E1,-7.855644703E0,-7.782646179E0,-7.264709473E-1
1.694704569E1,-6.535260677E0,-8.974138260E0,5.157989264E-1
1.696371163E1,-6.428130150E0,-8.671913147E0,1.561217666E0
1.698037756E1,-6.898419380E0,-6.125980854E0,2.077780247E0
1.699704350E1,-6.850390434E0,-3.042717457E0,2.263177633E0
1.701370944E1,-5.944783211E0,-2.015930176E0,2.441473722E0
1.703037538E1,-4.437092781E0,-2.553643942E0,2.236681461E0
1.704704131E1,-4.020101070E0,-1.561446786E0,1.105817914E0
1.706370725E1,-3.826609612E0,3.835467100E-1,5.991056561E-1
1.708037319E1,-1.381928802E0,1.171791315E0,1.097113132E0
1.709703913E1,1.999360442E0,2.834412456E-1,4.257727563E-1
1.711370506E1,4.430067539E0,-7.890082002E-1,-1.606727123E0
1.713037100E1,5.166007042E0,3.194059134E-1,-3.750175238E0
1.714703694E1,3.690463305E0,2.455905437E0,-5.312691212E0
1.716370288E1,1.407737851E0,3.544924736E0,-6.445692539E0
1.718036881E1,5.081631541E-1,3.624795198E0,-7.421701431E0
1.719703475E1,5.264890790E-1,3.129765749E0,-8.577228546E0
1.721370069E1,4.317286909E-1,3.500713348E0,-9.522542000E0
1.723036663E1,-5.803215317E-3,5.215945244E0,-9.399375916E0
1.724703256E1,5.989528894E-1,6.249223232E0,-8.682297707E0
1.726369850E1,3.209636211E0,4.651048183E0,-8.196202278E0
1.728036444E1,6.270526886E0,6.437751055E-1,-8.262251854E0
1.729703038E1,8.161916733E0,-3.378387690E0,-8.401223183E0
1.731369631E1,8.857539177E0,-5.636525631E0,-8.506978989E0
1.733036225E1,7.977664948E0,-6.383536816E0,-7.741336823E0
1.734702819E1,5.834598541E0,-6.512887478E0,-5.679667950E0
1.736369413E1,3.676871538E0,-6.684540749E0,-2.820668221E0
1.738036006E1,2.773631573E0,-6.937285900E0,1.881463528E-1
1.739702600E1,2.229198217E0,-5.623926640E0,2.442008257E0
1.741369194E1,9.656245112E-1,-2.342895508E0,3.761170864E0
1.743035788E1,-8.585704565E-1,2.935968935E-1,5.463039875E0
1.744702381E1,-2.266079187E0,1.487608433E0,6.096048832E0
1.746368975E1,-3.424278975E0,2.152611017E0,5.277719021E0
1.748035569E1,-4.395095825E0,3.837070704E0,3.904418707E0
1.749702163E1,-5.992660046E0,6.068330765E0,4.136165619E0
1.751368756E1,-7.494165421E0,7.336562157E0,4.831100464E0
1.753035350E1,-8.531566620E0,6.930490017E0,5.277108192E0
1.754701944E1,-8.482086182E0,4.121963024E0,5.182500362E0
1.756368538E1,-7.525625229E0,1.052061915E0,4.901044369E0
1.758035131E1,-7.502793789E0,6.923388839E-1,5.063381672E0
1.759701725E1,-9.156863213E0,1.394451618E0,5.810927391E0
1.761368319E1,-9.946481705E0,-1.706985235E0,6.641856194E0
1.763034913E1,-7.643674850E0,-6.613069534E0,6.805720806E0
1.764701506E1,-3.898997068E0,-6.053211689E0,6.445539951E0
1.766368100E1,-3.992077589E0,-1.128267288E0,6.166679859E0
1.768034694E1,-6.945990562E0,3.649916947E-1,5.791990757E0
1.769701288E1,-7.594728947E0,-1.389717340E0,4.621191978E0
1.771367881E1,-6.901779175E0,-1.367268085E0,3.457647324E0
1.773034475E1,-7.508444309E0,4.904480577E-1,2.660163403E0
1.774701069E1,-8.262328148E0,2.835787058E0,1.322445869E0
1.776367663E1,-7.892678261E0,4.312629223E0,-6.037634611E-1
1.778034256E1,-5.224497318E0,3.617083073E0,-1.737070322E0
1.779700850E1,-1.548313141E0,2.289673805E0,-2.641684771E0
1.781367444E1,9.986112118E-1,2.209345102E0,-3.770486593E0
1.783034038E1,1.495244265E0,3.107316494E0,-4.566672325E0
1.784700631E1,2.063959390E-1,4.153040409E0,-4.604698658E0
1.786367225E1,-9.437097311E-1,5.330253124E0,-4.346226692E0
1.788033819E1,-5.794816017E-1,6.388958454E0,-4.429227829E0
1.789700413E1,6.141481996E-1,7.650928497E0,-5.135463715E0
1.791367006E1,1.571907759E0,8.794925690E0,-5.780842304E0
1.793033600E1,2.767064810E0,7.400550365E0,-5.641565323E0
1.794700194E1,5.327733517E0,4.010327339E0,-6.264571190E0
1.796366788E1,8.536071777E0,2.164446592E0,-7.473472595E0
1.798033381E1,1.055864525E1,2.632216454E0,-7.620767117E0
1.799699975E1,1.091531372E1,2.716897488E0,-6.691794395E0
1.801366569E1,9.615775108E0,2.144975424E0,-6.096583366E0
1.803033163E1,7.774399757E0,2.248822212E0,-5.462658405E0
1.804699756E1,5.994034290E0,2.510959625E0,-4.249786377E0
1.806366350E1,4.865690708E0,1.847025990E0,-2.881220102E0
1.808032944E1,4.483518600E0,8.109229803E-2,-1.714315653E0
1.809699538E1,4.222908020E0,-1.937281251E0,-8.185588121E-1
1.811366131E1,3.826151609E0,-3.037219763E0,6.986765563E-2
1.813032725E1,3.411908865E0,-3.040579557E0,1.144607902E0
1.814699319E1,3.048138857E0,-2.655276537E0,2.205832720E0
1.816365913E1,2.898018837E0,-2.384968758E0,2.992702961E0
1.818032506E1,2.724304199E0,-2.223776817E0,3.523926258E0
1.819699100E1,2.075642109E0,-2.059301615E0,4.155254841E0
1.821365694E1,1.091386318E0,-1.775631189E0,5.073002815E0
1.823032288E1,1.711948514E-1,-1.064431906E0,5.777253628E0
1.824698881E1,-6.225475669E-1,4.841103405E-2,6.003731728E0
1.826365475E1,-1.385823131E0,1.419649720E0,5.544285297E0
1.828032069E1,-2.072893381E0,2.857549191E0,4.625238895E0
1.829698663E1,-2.828532934E0,4.080576897E0,4.165868759E0
1.831365256E1,-4.012465477E0,4.467101574E0,4.532692909E0
1.833031850E1,-5.946539402E0,3.559279919E0,4.761614799E0
1.834698444E1,-7.309455395E0,2.799898624E0,3.811490774E0
1.836365038E1,-7.249972343E0,3.658087492E0,2.460410595E0
1.838031631E1,-5.851550102E0,5.422646523E0,1.647273183E0
1.839698225E1,-4.415636063E0,5.882322311E0,9.052252173E-1
1.841364819E1,-3.639150620E0,4.449309826E0,5.108356848E-2
1.843031413E1,-3.229260206E0,2.865948439E0,-4.169915617E-1
1.844698006E1,-3.217730284E0,1.958432436E0,-5.183951259E-1
1.846364600E1,-3.532860041E0,1.612912059E0,-4.985420108E-1
1.848031194E1,-4.150368214E0,1.404072642E0,-4.855611324E-1
1.849697788E1,-4.774518967E0,1.110552192E0,-4.056142271E-1
1.851364381E1,-5.049102783E0,6.843212843E-1,-3.482692838E-1
1.853030975E1,-4.730002403E0,9.254601598E-2,-4.816668928E-1
1.854697569E1,-3.448789835E0,-3.852266073E-1,-7.505237460E-1
1.856364163E1,-1.637193918E0,-4.715112448E-1,-7.662535310E-1
1.858030756E1,-2.032652497E-1,-7.865647674E-1,-6.922625303E-1
1.859697350E1,1.144684196E0,-1.683314204E0,-4.824304581E-1
1.861363944E1,2.352058411E0,-2.567159176E0,-5.881864429E-1
1.863030538E1,3.524842501E0,-2.520275354E0,-1.118875146E0
1.864697131E1,4.049804211E0,-1.124831080E0,-1.963701248E0
1.866363725E1,4.080500603E0,4.553996921E-1,-2.698342562E0
1.868030319E1,4.764821529E0,1.240131855E0,-3.271409988E0
1.869696913E1,5.839179993E0,1.119027972E0,-4.091801167E0
1.871363506E1,6.397204876E0,4.930442274E-1,-4.494055748E0
1.873030100E1,5.524050236E0,-2.378554791E-1,-4.143266678E0
1.874696694E1,4.320951939E0,7.977130413E-1,-3.842415810E0
1.876363288E1,3.764683247E0,3.024620533E0,-3.216661215E0
1.878029881E1,3.621893644E0,3.896630049E0,-2.269438982E0
1.879696475E1,3.911443472E0,3.202382326E0,-1.313741088E0
1.881363069E1,4.158767223E0,2.116799116E0,-4.961749315E-1
1.883029663E1,3.962145329E0,1.413846493E0,-4.329504073E-2
1.884696256E1,3.561570644E0,1.123762131E0,1.409570426E-1
1.886362850E1,3.101513147E0,1.110094070E0,1.909715980E-1
1.888029444E1,2.557309151E0,1.244866014E0,2.583957911E-1
1.889696038E1,2.007148981E0,1.571678758E0,4.063777924E-1
1.891362631E1,1.542509913E0,1.856876254E0,5.752819180E-1
1.893029225E1,1.294040680E0,1.871842384E0,6.101775765E-1
1.894695819E1,1.179045439E0,1.737910271E0,4.647917449E-1
1.896362413E1,1.183016062E0,1.516853571E0,2.586248815E-1
1.898029006E1,1.099861979E0,1.289230108E0,1.111773923E-1
1.899695600E1,6.082686186E-1,1.184008718E0,-1.555414498E-1
1.901362194E1,-2.257908881E-1,1.060842991E0,-4.224893451E-1
1.903028788E1,-1.176143765E0,8.657481074E-1,-4.950295389E-1
1.904695381E1,-1.764711976E0,4.095084667E-1,-4.421897531E-1
1.906361975E1,-1.823889494E0,-5.005273223E-1,-3.748418987E-1
1.908028569E1,-1.559461474E0,-1.195233345E0,-1.624136716E-1
1.909695163E1,-2.249051332E0,-1.049542069E0,3.672824502E-1
1.911361756E1,-4.528340816E0,-3.107011020E-1,9.697478414E-1
1.913028350E1,-7.027541161E0,5.296197534E-1,1.209894061E0
1.914694944E1,-7.864883900E0,1.260366797E0,7.443387508E-1
1.916361538E1,-6.677515507E0,1.747073293E0,1.408043355E-1
1.918028131E1,-4.211607456E0,1.256701589E0,-1.908952487E-3
1.919694725E1,-1.898720503E0,-1.727983803E-1,-4.544833899E-1
1.921361319E1,-5.333613157E-1,-1.457752466E0,-9.967786074E-1
1.923027913E1,-4.740310609E-1,-1.638110280E0,-1.169347882E0
1.924694506E1,-1.547549605E0,-1.083750486E0,-1.086270332E0
1.926361100E1,-2.710025311E0,-7.834340930E-1,-1.197524071E0
1.928027694E1,-3.326387882E0,-8.881973624E-1,-1.370093346E0
1.929694288E1,-3.397171736E0,-9.627992511E-1,-1.275103927E0
1.931360881E1,-2.873202562E0,-1.223256707E0,-1.049542069E0
1.933027475E1,-1.998520494E0,-1.380859852E0,-8.255074024E-1
1.934694069E1,-1.044807792E0,-1.403461814E0,-6.709585786E-1
1.936360663E1,-2.668715417E-1,-1.411555767E0,-4.562396407E-1
1.938027256E1,3.457494676E-1,-1.213177443E0,-1.543960720E-1
1.939693850E1,8.438333273E-1,-9.448550940E-1,2.468657345E-1
1.941360444E1,1.402392864E0,-8.462768197E-1,5.790234804E-1
1.943027038E1,2.096564293E0,-1.068937063E0,7.223476171E-1
1.944693631E1,2.703382015E0,-1.185230374E0,6.722567081E-1
1.946360225E1,3.023704290E0,-6.163625717E-1,6.069704890E-1
1.948026819E1,3.059439898E0,3.089448512E-1,5.293906927E-1
1.949693413E1,2.928256750E0,-7.406735327E-3,4.651735425E-1
1.951360006E1,3.296073675E0,-9.231693745E-1,2.719875574E-1
1.953026600E1,4.000400543E0,-1.327409148E0,7.086031139E-2
1.954693194E1,4.209698200E0,-5.438223481E-1,-1.706603467E-1
1.956359788E1,3.599978924E0,8.164971471E-1,-1.876882017E-1
1.958026381E1,2.894659042E0,1.910021424E0,-8.483384550E-2
1.959692975E1,2.550665855E0,2.448880434E0,9.048434347E-2
1.961359569E1,2.418566465E0,2.677725792E0,3.188714087E-1
1.963026163E1,2.157192707E0,2.747822523E0,5.129737258E-1
1.964692756E1,1.752647400E0,2.773707867E0,6.701186895E-1
1.966359350E1,1.329470873E0,2.751564026E0,8.273400068E-1
1.968025944E1,1.005712509E0,2.598924160E0,9.850194454E-1
1.969692538E1,8.606321216E-1,2.257069111E0,1.109406829E0
1.971359131E1,8.789580464E-1,1.735314131E0,1.189124703E0
1.973025725E1,9.722676277E-1,1.180954337E0,1.247614980E0
1.974692319E1,1.012966514E0,6.486620307E-1,1.230510712E0
1.976358913E1,8.704059720E-1,2.721402645E-1,1.116966248E0
1.978025506E1,7.122683525E-1,8.116865903E-2,9.735657573E-1
1.979692100E1,6.512582302E-1,1.153007243E-2,8.182533979E-1
1.981358694E1,6.375901103E-1,-8.811724186E-2,6.827177405E-1
1.983025288E1,5.194641352E-1,-1.565341055E-1,5.078576803E-1
1.984691881E1,2.273944169E-1,-1.833357960E-1,2.614501119E-1
1.986358475E1,-7.903063297E-2,-1.403461844E-1,4.199695308E-3
1.988025069E1,-2.892444730E-1,1.052978188E-1,-1.465311944E-1
1.989691663E1,-6.918043494E-1,5.403099060E-1,-2.626718581E-1
1.991358256E1,-1.356348872E0,1.111086726E0,-3.330740333E-1
1.993024850E1,-2.390161276E0,1.298393130E0,-2.981783748E-1
1.994691444E1,-3.577376842E0,6.470585465E-1,-1.643989831E-1
1.996358038E1,-4.093481064E0,-1.385899484E-1,-2.300669402E-1
1.998024631E1,-3.849058867E0,-6.656135321E-1,-4.673115611E-1
1.999691225E1,-3.033783674E0,-8.381064534E-1,-4.644099474E-1
2.001357819E1,-1.699273109E0,-5.117519498E-1,-1.433241516E-1
2.003024413E1,-5.238165259E-1,-6.429351866E-2,7.849612087E-2
2.004691006E1,6.627883017E-2,1.835648715E-1,1.487455666E-1
2.006357600E1,5.757400393E-2,1.386663020E-1,2.180023640E-1
2.008024194E1,-3.298669755E-1,-7.773254067E-2,3.134499788E-1
2.009690788E1,-7.202859521E-1,-3.926333487E-1,4.338667095E-1
2.011357381E1,-9.472985864E-1,-7.779362798E-1,5.174788237E-1
2.013023975E1,-1.005483389E0,-1.089324594E0,5.853611827E-1
2.014690569E1,-8.842267394E-1,-1.259221435E0,6.576722860E-1
2.016357163E1,-6.971494555E-1,-1.207297921E0,7.244856358E-1
2.018023756E1,-5.278635025E-1,-9.727258086E-1,7.525090575E-1
2.019690350E1,-3.663661480E-1,-6.136136651E-1,7.751110196E-1
2.021356944E1,-2.223547846E-1,-3.562105298E-1,7.928261161E-1
2.023023538E1,2.855792828E-2,-2.052505612E-1,8.137482405E-1
2.024690131E1,4.411970973E-1,-1.569158882E-1,8.192460537E-1
2.026356725E1,1.024954796E0,-1.096502244E-1,9.152281284E-1
2.028023319E1,1.661475897E0,-9.071341902E-2,1.097494960E0
2.029689913E1,2.173609495E0,-5.757400393E-2,1.274569392E0
2.031356506E1,2.580445528E0,9.521854669E-2,1.453476429E0
2.033023100E1,2.686888695E0,5.742128938E-2,1.701411128E0
2.034689694E1,2.274249554E0,-7.828232050E-1,1.932394385E0
2.036356288E1,1.873369575E0,-1.610774040E0,1.715537429E0
2.038022881E1,1.988670230E0,-1.601840138E0,1.211726665E0
2.039689475E1,2.357861757E0,-7.110465765E-1,7.678570151E-1
2.041356069E1,2.548756838E0,3.711767197E-1,6.625592113E-1
2.043022663E1,2.528903723E0,1.062141180E0,9.018654823E-1
2.044689256E1,2.319377184E0,1.197065949E0,1.102381825E0
2.046355850E1,2.013486624E0,1.038622856E0,1.003421783E0
2.048022444E1,1.784030557E0,9.769254923E-1,7.480039001E-1
2.049689038E1,1.692324519E0,1.092455268E0,5.352702737E-1
2.051355631E1,1.616424561E0,1.254716277E0,3.890444934E-1
2.053022225E1,1.508072376E0,1.330158114E0,3.586539924E-1
2.054688819E1,1.471038699E0,1.282128811E0,3.869828284E-1
2.056355413E1,1.544724345E0,1.234786749E0,3.837758005E-1
2.058022006E1,1.620777011E0,1.218980670E0,3.235292733E-1
2.059688600E1,1.622075081E0,1.281517982E0,2.455676347E-1
2.061355194E1,1.542586327E0,1.390328288E0,2.454149276E-1
2.063021788E1,1.388648391E0,1.450192928E0,3.341430426E-1
2.064688381E1,1.288771987E0,1.401476502E0,4.712821841E-1
2.066354975E1,1.341688156E0,1.305799842E0,5.426769853E-1
2.068021569E1,1.484706879E0,1.182481527E0,5.639045238E-1
2.069688163E1,1.609323263E0,1.210886717E0,5.584831238E-1
2.071354756E1,1.638721108E0,1.334739566E0,5.693259835E-1
2.073021350E1,1.462486625E0,1.291139126E0,6.294961572E-1
2.074687944E1,1.176220179E0,1.091615319E0,7.057778835E-1
2.076354538E1,8.740711212E-1,9.680679440E-1,7.473167181E-1
2.078021131E1,5.300779343E-1,1.025336504E0,7.214313149E-1
2.079687725E1,2.562577724E-1,1.355967045E0,7.113520503E-1
2.081354319E1,6.887500733E-2,1.938197613E0,7.760273218E-1
2.083020913E1,-8.636100590E-2,2.342666388E0,9.263764620E-1
2.084687506E1,-1.835648715E-1,2.407418013E0,1.189353704E0
2.086354100E1,-9.873101860E-2,2.119395256E0,1.447825909E0
2.088020694E1,3.444513679E-1,1.769064426E0,1.640248299E0
2.089687288E1,8.544471264E-1,1.331837893E0,1.727296472E0
2.091353881E1,1.136742949E0,8.816305995E-1,1.657734275E0
2.093020475E1,1.218598843E0,6.044507027E-1,1.496466041E0
2.094687069E1,1.037782907E0,5.057960153E-1,1.287244797E0
2.096353663E1,8.200095892E-1,5.834522247E-1,1.139110088E0
2.098020256E1,7.881683111E-1,8.408553600E-1,1.125747442E0
2.099686850E1,7.137954831E-1,1.005407095E0,1.069395185E0
2.101353444E1,5.513818264E-1,1.064890027E0,9.281326532E-1
2.103020038E1,3.601047993E-1,1.107421517E0,7.494547367E-1
2.104686631E1,1.833357960E-1,1.172020435E0,6.640099883E-1
2.106353225E1,2.977965772E-2,1.224631190E0,6.998219490E-1
2.108019819E1,-3.840812296E-2,1.071456790E0,7.706822753E-1
2.109686413E1,1.268308014E-1,8.690314889E-1,8.190169334E-1
2.111353006E1,3.442223072E-1,5.279398561E-1,7.852666974E-1
2.113019600E1,4.729620516E-1,1.540142894E-1,6.545416117E-1
2.114686194E1,5.293906927E-1,7.322741300E-2,5.338957906E-1
2.116352788E1,4.936550856E-1,1.328630894E-1,4.969384968E-1
2.118019381E1,4.813614488E-1,2.557232678E-1,5.115992427E-1
2.119685975E1,5.555051565E-1,3.215439618E-1,5.943714380E-1
2.121352569E1,6.598103046E-1,3.358229101E-1,7.050906420E-1
2.123019163E1,7.293725610E-1,3.590357602E-1,7.767909169E-1
2.124685756E1,7.128028274E-1,3.909534514E-1,7.804561257E-1
2.126352350E1,5.996401310E-1,4.744128585E-1,7.477748394E-1
2.128018944E1,3.738492429E-1,5.041925311E-1,7.134900689E-1
2.129685538E1,8.155044913E-2,4.668534100E-1,6.513345838E-1
2.131352131E1,-1.655443609E-1,3.863719702E-1,5.526798964E-1
2.133018725E1,-2.384663373E-1,4.644863009E-1,4.585303664E-1
2.134685319E1,-3.242164850E-1,5.601630211E-1,3.614792228E-1
2.136351913E1,-3.729329407E-1,5.920043588E-1,2.419788092E-1
2.138018506E1,-3.678933084E-1,5.347357392E-1,1.671478748E-1
2.139685100E1,-3.342957497E-1,4.085158110E-1,5.696314201E-2
2.141351694E1,-2.091448307E-1,3.628536761E-1,-3.000873141E-2
2.143018288E1,-2.573267929E-2,4.102720618E-1,-6.872228533E-2
2.144684881E1,1.301141977E-1,4.583776593E-1,-9.766200930E-2
2.146351475E1,2.623664141E-1,4.732674956E-1,-1.172096804E-1
2.148018069E1,4.473057389E-1,4.593703151E-1,-1.333975941E-1
2.149684663E1,6.321687102E-1,4.008036554E-1,-1.290451884E-1
2.151351256E1,6.910407543E-1,2.553414702E-1,-1.253036410E-1
2.153017850E1,6.471349001E-1,1.136972085E-1,-1.453858167E-1
2.154684444E1,5.631409883E-1,8.399390429E-2,-1.806632578E-1
2.156351038E1,4.505127668E-1,1.266017258E-1,-1.815795600E-1
2.158017631E1,3.682751060E-1,1.781434417E-1,-1.505018175E-1
2.159684225E1,3.536143601E-1,2.273944169E-1,-1.065959036E-1
2.161350819E1,3.589594066E-1,2.298378795E-1,-7.093667239E-2
2.163017413E1,3.755291104E-1,2.226602137E-1,-2.206749097E-2
2.164684006E1,3.820959330E-1,3.026835024E-1,5.703949928E-2
2.166350600E1,3.572031856E-1,5.223657489E-1,1.464548260E-1
2.168017194E1,2.730565667E-1,7.179951668E-1,2.350302190E-1
2.169683788E1,1.468366235E-1,7.000510097E-1,3.346775472E-1
2.171350381E1,8.964440972E-2,6.018545032E-1,4.415025115E-1
2.173016975E1,9.514218569E-2,5.448150039E-1,5.103011727E-1
2.174683569E1,8.269581944E-2,4.576904476E-1,4.830413163E-1
2.176350163E1,6.597339362E-2,4.321868420E-1,4.071413875E-1
2.178016756E1,1.404988952E-2,4.838049114E-1,3.039815724E-1
2.179683350E1,-7.246383280E-2,4.876227975E-1,1.704312712E-1
2.181349944E1,-1.903607398E-1,4.134790897E-1,4.978547990E-2
2.183016538E1,-2.951240540E-1,2.994000912E-1,-2.015853859E-2
2.184683131E1,-3.948477209E-1,2.000582218E-1,-4.680751264E-2
2.186349725E1,-5.176315308E-1,1.633299738E-1,-9.911280870E-2
2.188016319E1,-6.779835224E-1,1.436295807E-1,-1.988364905E-1
2.189682913E1,-7.066178322E-1,1.154534444E-1,-2.260963321E-1
2.191349506E1,-6.198750138E-1,5.673406646E-2,-1.844048053E-1
2.193016100E1,-5.610029697E-1,-2.351829410E-2,-1.147662178E-1
2.194682694E1,-5.111411214E-1,1.473711245E-2,-6.834049523E-2
2.196349288E1,-4.904480577E-1,1.580612548E-2,-1.595884189E-2
2.198015881E1,-5.029708147E-1,-1.985310577E-2,6.818778068E-2
2.199682475E1,-4.879282415E-1,-7.086031139E-2,1.520289779E-1
2.201349069E1,-4.718166888E-1,-1.442404389E-1,1.672242284E-1
2.203015663E1,-5.236638188E-1,-2.404516488E-1,1.308777779E-1
2.204682256E1,-5.637518167E-1,-3.300960660E-1,3.497200832E-2
2.206348850E1,-5.041925311E-1,-3.927097023E-1,-9.430225194E-2
2.208015444E1,-3.741546869E-1,-3.825540543E-1,-2.015853822E-1
2.209682038E1,-2.275471240E-1,-2.891681194E-1,-2.376264036E-1
2.211348631E1,-1.304959953E-1,-2.503781915E-1,-2.096029818E-1
2.213015225E1,-1.179732606E-1,-2.598465979E-1,-2.178496569E-1
2.214681819E1,-1.266017258E-1,-3.157407343E-1,-2.806923687E-1
2.216348413E1,-1.275180280E-1,-3.951531649E-1,-3.937787116E-1
2.218015006E1,-1.469129771E-1,-4.772381186E-1,-4.738020003E-1
2.219681600E1,-1.381317973E-1,-4.666243196E-1,-5.023599267E-1
2.221348194E1,-1.266017258E-1,-4.525744319E-1,-5.249619484E-1
2.223014788E1,-1.346956789E-1,-4.853320718E-1,-5.689441562E-1
2.224681381E1,-1.793651730E-1,-5.209913254E-1,-6.320923567E-1
2.226347975E1,-2.243400961E-1,-4.854084253E-1,-6.921861768E-1
2.228014569E1,-1.810450554E-1,-3.601811528E-1,-6.966912746E-1
2.229681163E1,-6.116283685E-2,-2.208276242E-1,-6.190351248E-1
2.231347756E1,1.916588284E-2,-8.895718306E-2,-4.883863926E-1
2.233014350E1,2.496909723E-2,-2.252563834E-2,-4.044688344E-1
2.234680944E1,-6.795870606E-3,-2.367101051E-2,-4.183660150E-1
2.236347538E1,-3.817904741E-2,-7.422006875E-2,-4.788416326E-1
2.238014131E1,-1.350774765E-1,-8.811724186E-2,-5.545888543E-1
2.239680725E1,-2.832121849E-1,2.779434808E-2,-6.501892209E-1
2.241347319E1,-3.649916947E-1,2.014326602E-1,-7.327322960E-1
2.243013913E1,-3.484219909E-1,2.505309284E-1,-7.641154528E-1
2.244680506E1,-2.492328286E-1,2.017380893E-1,-7.340303659E-1
2.246347100E1,-1.371391416E-1,8.567378670E-2,-6.192641854E-1
2.248013694E1,-7.002037764E-2,-4.123337194E-2,-4.910589159E-1
2.249680288E1,-4.375318810E-2,-7.872519642E-2,-3.863719702E-1
2.251346881E1,-6.253728271E-2,-6.543888897E-2,-3.233001828E-1
2.253013475E1,-8.452841640E-2,-3.741546720E-2,-2.596938908E-1
2.254680069E1,-8.002328873E-2,1.649334840E-2,-2.181550860E-1
2.256346663E1,-5.635227636E-2,1.435532235E-2,-1.514181048E-1
2.258013256E1,-2.703076601E-2,-6.956222653E-2,-5.871937796E-2
2.259679850E1,-3.894262947E-3,-1.610392332E-1,9.239329956E-3
2.261346444E1,3.283398226E-3,-1.817322671E-1,2.519817278E-2
2.263013038E1,8.781181648E-3,-9.453132749E-2,2.275471389E-2
2.264679631E1,1.175914705E-2,9.621120058E-3,6.635518372E-2
2.266346225E1,-4.696023092E-2,6.956222653E-2,1.379790753E-1
2.268012819E1,-1.218675226E-1,2.443459071E-2,2.134208828E-1
2.269679413E1,-1.278998107E-1,-1.161406636E-1,2.522871494E-1
2.271346006E1,-1.032361463E-1,-3.149771392E-1,2.500727773E-1
2.273012600E1,-9.056070447E-2,-4.793761373E-1,2.376264036E-1
2.274679194E1,-1.131627038E-1,-6.528617144E-1,2.433532625E-1
2.276345788E1,-1.892153621E-1,-6.046034098E-1,2.127336562E-1
2.278012381E1,-1.997527778E-1,-5.216785073E-1,1.759290546E-1
2.279678975E1,-1.631008983E-1,-3.630063832E-1,1.855501831E-1
2.281345569E1,-1.386663020E-1,-2.276234925E-1,1.459966749E-1
2.283012163E1,-1.172860414E-1,-1.927278340E-1,1.182023361E-1
2.284678756E1,-4.566214234E-2,-2.310595959E-1,1.126281917E-1
2.286345350E1,8.597921580E-2,-2.218966335E-1,1.136208475E-1
2.288011944E1,1.602756530E-1,-1.455385387E-1,9.682206810E-2
2.289678538E1,1.586721241E-1,-6.948586553E-2,1.010217592E-1
2.291345131E1,1.304196268E-1,-1.519526169E-2,8.521563560E-2
2.293011725E1,9.934188426E-2,-4.039343446E-2,6.330086291E-2
2.294678319E1,1.237764731E-1,-9.483675659E-2,4.650207981E-2
2.296344913E1,1.508836001E-1,-9.239330143E-2,1.030834299E-2
2.298011506E1,1.231656075E-1,-8.017600328E-2,-4.780016840E-2
2.299678100E1,4.253146052E-2,-2.794706449E-2,-1.097265854E-1
2.301344694E1,-1.145371422E-2,1.534797717E-2,-1.353065521E-1
2.303011288E1,-6.414080039E-3,3.283398226E-2,-1.362228394E-1
2.304677881E1,-1.527161920E-3,6.116283685E-2,-1.242346242E-1
2.306344475E1,-7.177661173E-3,6.666062027E-2,-1.101847365E-1
2.308011069E1,-1.015562657E-2,4.764745384E-2,-1.107192412E-1
2.309677663E1,2.825249685E-3,3.970621154E-3,-1.175914705E-1
2.311344256E1,4.581485991E-4,-1.053741761E-2,-1.226311028E-1
2.313010850E1,-2.863428742E-2,5.276344717E-2,-1.242346242E-1
2.314677444E1,-3.802633286E-2,8.903354406E-2,-1.055268943E-1
2.316344038E1,-1.939495653E-2,6.948586553E-2,-1.043815166E-1
2.318010631E1,-2.015853859E-2,9.498947114E-2,-1.153007299E-1
2.319677225E1,-5.505418777E-2,1.626427472E-1,-1.291215420E-1
2.321343819E1,-5.757400393E-2,1.863137633E-1,-1.285106838E-1
2.323010413E1,-2.557996288E-2,1.398880333E-1,-1.353829056E-1
2.324677006E1,5.345066893E-4,6.368265301E-2,-1.339320987E-1
2.326343600E1,-5.497782957E-3,2.290742844E-2,-1.217911690E-1
2.328010194E1,-2.420551702E-2,9.857830405E-2,-1.193477064E-1
2.329676788E1,-4.741837829E-2,1.365282834E-1,-1.101847365E-1
2.331343381E1,-3.436114267E-2,7.284562290E-2,-7.154753804E-2
2.333009975E1,1.267544460E-2,-4.856374860E-2,-3.077231348E-2
2.334676569E1,3.840812296E-2,-1.046105921E-1,-2.932151034E-2
2.336343163E1,-5.574141163E-3,-4.825831577E-2,-4.482220486E-2
2.338009756E1,-7.414371520E-2,2.367101051E-2,-2.542724647E-2
2.339676350E1,-1.010981202E-1,4.405862093E-2,2.367100911E-3
2.341342944E1,-6.795870513E-2,7.177661359E-2,4.734201822E-3
2.343009538E1,-9.850194678E-3,3.756818548E-2,3.436114406E-3
2.344676131E1,2.267835476E-2,-4.054614902E-2,5.650499370E-3
2.346342725E1,2.481638081E-2,-2.825249545E-2,8.246674202E-3
2.348009319E1,-2.031125315E-2,-5.757400393E-2,-1.130099874E-2
2.349675913E1,-1.249982044E-1,-4.115701467E-2,-5.230529606E-2
2.351342506E1,-1.512653977E-1,-2.565632015E-2,-6.574432552E-2
