"Time (s)","Linear Acceleration x (m/s^2)","Linear Acceleration y (m/s^2)","Linear Acceleration z (m/s^2)"
4.222975200E-2,0.000000000E0,0.000000000E0,0.000000000E0
5.889568900E-2,1.088035107E-1,-9.368211031E-3,3.023242950E-2
7.556162700E-2,1.384446621E-1,6.195098162E-3,1.600217819E-1
9.222756400E-2,9.528875351E-2,2.611181140E-2,1.477537155E-1
1.088935020E-1,-1.238331795E-1,5.070191622E-2,2.090206146E-1
1.255594390E-1,-1.749899387E-1,5.212652683E-2,2.359733582E-1
1.422253770E-1,-4.028487206E-2,-2.570626140E-2,1.991052628E-1
1.588913140E-1,3.136229515E-2,-4.574349523E-2,2.318315506E-1
1.755572520E-1,9.729862213E-2,-1.914703846E-2,-1.641368866E-2
1.922231890E-1,4.881715775E-2,8.163464069E-2,-2.986726761E-1
2.088891270E-1,1.770257950E-3,7.259160280E-2,-5.777931213E-2
2.255550640E-1,2.370595932E-3,-7.415410876E-2,1.514444351E-1
2.422210020E-1,-6.661462784E-2,-1.027736366E-1,1.477022171E-1
2.588869390E-1,-1.543018818E-1,-5.929970741E-2,8.770561218E-2
2.755528770E-1,-1.434605122E-1,5.084526539E-2,-3.164596558E-1
2.922188140E-1,-1.810643673E-1,2.055245638E-1,-7.170114517E-1
3.088847520E-1,-1.808025837E-1,1.656234264E-1,-5.448226929E-1
3.255506890E-1,-2.709102631E-2,-9.484004974E-2,-2.183885574E-1
3.422166270E-1,6.545114517E-2,-2.002370656E-1,1.466274261E-1
3.588825640E-1,3.934073448E-2,-2.538291216E-1,3.757829666E-1
3.755485020E-1,1.284809113E-1,-1.782024205E-1,5.512428284E-2
3.922144390E-1,9.369492531E-2,-3.103333712E-2,-2.832164764E-1
4.088803770E-1,-1.004199982E-1,8.145338297E-2,-3.711709976E-1
4.255463140E-1,-1.598668098E-1,7.639110088E-2,-3.721628189E-1
4.422122520E-1,-1.213521957E-1,3.844422102E-2,-2.681922913E-1
4.588781890E-1,-1.913459301E-1,-2.923268080E-2,-4.307556152E-2
4.755441270E-1,-2.205367088E-1,-6.289947033E-2,5.805969238E-3
4.922100640E-1,-1.873838902E-1,-3.907573223E-2,1.691150665E-2
5.088760020E-1,-2.148020267E-1,-8.464229107E-2,7.031631470E-2
5.255419390E-1,-2.402551174E-1,-5.998641253E-2,1.600856781E-1
5.422078770E-1,-1.541683674E-1,-7.047736645E-2,1.035623550E-1
5.588738140E-1,-8.921623230E-3,-9.277546406E-2,-5.741691589E-2
5.755397520E-1,-4.975557327E-2,-2.892512083E-2,2.135276794E-3
5.922056890E-1,-6.507349014E-2,-6.081533432E-2,1.235942841E-1
6.088716270E-1,3.692722321E-2,-6.553202868E-2,1.100339890E-1
6.255375640E-1,1.206920147E-1,-4.986584187E-3,-1.497268677E-2
6.422035020E-1,1.248087883E-1,4.716044664E-2,-1.092634201E-1
6.588694390E-1,2.014393806E-1,6.244838238E-3,-2.843389511E-1
6.755353770E-1,1.435463428E-1,7.705712318E-2,-2.948484421E-1
6.922013140E-1,6.800055504E-2,7.319849730E-2,-2.396249771E-1
7.088672520E-1,-3.058052063E-2,1.491719484E-2,-8.008670807E-2
7.255331890E-1,-3.795981407E-2,5.173808336E-2,-7.043170929E-2
7.421991270E-1,-1.129627228E-2,4.163777828E-2,-1.049604416E-1
7.588650640E-1,-3.781270981E-2,-1.079732180E-2,1.525402069E-2
7.755310020E-1,-1.371626854E-1,-2.431625128E-2,1.178503036E-1
7.921969390E-1,-1.434721947E-1,-6.445705891E-2,6.373119354E-2
8.088628770E-1,-9.885072708E-2,-5.527448654E-2,1.581859589E-1
8.255288140E-1,-1.255404949E-1,-6.109231710E-2,1.820802689E-1
8.421947520E-1,-7.958650589E-2,-4.847532511E-2,4.798316956E-2
8.588606890E-1,-6.040334702E-3,-1.691478491E-2,9.879207611E-2
8.755266270E-1,3.941297531E-3,6.060659885E-2,3.313064575E-2
8.921925640E-1,-5.102157593E-5,1.180869341E-1,-2.088546753E-1
9.088585020E-1,3.188872337E-2,1.850286126E-1,-1.947107315E-1
9.255244390E-1,1.391546726E-1,1.465713382E-1,-1.509971619E-1
9.421903770E-1,1.390128136E-1,8.656001091E-2,3.312110901E-3
9.588563140E-1,5.301141739E-2,2.606487274E-2,1.742935181E-1
9.755222520E-1,2.135491371E-2,-4.027402401E-2,2.445077896E-1
9.921881890E-1,-2.877879143E-2,-8.317750692E-2,2.455205917E-1
1.008854127E0,6.592512131E-2,-6.288653612E-2,1.319065094E-1
1.025520064E0,1.321651936E-1,-7.502400875E-2,5.641078949E-2
1.042186002E0,3.008604050E-2,-2.393120527E-2,-2.323627472E-2
1.058851939E0,-3.047347069E-2,1.631778479E-2,-9.845924377E-2
1.075517877E0,-4.489111900E-2,-7.441163063E-3,-8.925342560E-2
1.092183814E0,-1.515290737E-1,2.876740694E-2,1.716613770E-4
1.108849752E0,-1.573882103E-1,3.399550915E-3,4.330539703E-2
1.125515689E0,-1.373443604E-1,-1.870948076E-2,4.779243469E-2
1.142181627E0,-1.295745373E-1,1.180857420E-2,-4.647922516E-2
1.158847564E0,-9.132742882E-2,2.096599340E-2,-4.947662354E-2
1.175513502E0,-9.944224358E-2,6.231641769E-2,-5.823135376E-2
1.192179439E0,-5.156350136E-2,6.029266119E-2,-4.103660583E-2
1.208845377E0,-6.827974319E-2,1.117557287E-2,1.540994644E-1
1.225511314E0,-6.081342697E-3,1.279842854E-2,1.429691315E-1
1.242177252E0,7.758998871E-2,2.804642916E-2,3.931045532E-3
1.258843189E0,1.183464527E-1,3.598082066E-2,3.293895721E-2
1.275509127E0,1.405336857E-1,-5.860054493E-2,1.034059525E-1
1.292175064E0,9.633517265E-2,-1.080896258E-1,2.564659119E-1
1.308841002E0,1.531410217E-2,-1.713018417E-1,3.290452957E-1
1.325506939E0,-8.733701706E-2,-1.469854712E-1,2.759685516E-1
1.342172877E0,-1.093864441E-3,-1.094715595E-1,9.925651550E-2
1.358838814E0,8.752846718E-2,-5.841511488E-2,-8.426666260E-2
1.375504752E0,1.078224182E-2,1.581484079E-2,-1.967849731E-1
1.392170689E0,-1.221568584E-1,3.200250864E-2,-1.915245056E-1
1.408836627E0,-1.340000629E-1,3.234410286E-2,-1.685571671E-1
1.425502564E0,-6.398630142E-2,1.681572199E-2,-1.161279678E-1
1.442168502E0,-7.179713249E-2,2.336812019E-2,-1.481981277E-1
1.458834439E0,-6.412029266E-2,3.868734837E-2,-1.319437027E-1
1.475500377E0,-6.530070305E-2,-6.334483624E-3,-1.706314087E-2
1.492166314E0,-2.930665016E-2,-3.823566437E-2,1.555166245E-1
1.508832252E0,1.811337471E-2,-6.259876490E-2,1.310338974E-1
1.525498189E0,-4.026579857E-2,-3.657495975E-2,9.587383270E-2
1.542164127E0,-7.302069664E-2,1.026535034E-2,-1.520156860E-2
1.558830064E0,2.533316612E-2,4.265546799E-2,-8.400726318E-2
1.575496002E0,1.187872887E-2,6.004571915E-2,-3.526401520E-2
1.592161939E0,-1.326906681E-1,4.242533445E-2,6.249237061E-2
1.608827877E0,-9.808516502E-2,2.758812904E-2,5.801773071E-2
1.625493814E0,6.232023239E-3,4.237902164E-2,8.625030518E-3
1.642159752E0,3.367185593E-3,1.013710499E-1,-1.046247482E-1
1.658825689E0,-4.257583618E-2,1.191745400E-1,-1.404371262E-1
1.675491627E0,-8.572220802E-2,7.191503048E-2,2.269649506E-2
1.692157564E0,-1.180603504E-1,3.520852327E-2,1.837739944E-1
1.708823502E0,-1.030516624E-2,8.185148239E-3,1.286048889E-1
1.725489439E0,3.833031654E-2,3.133970499E-2,1.320457458E-2
1.742155377E0,-5.290508270E-3,7.113826275E-2,-4.290866852E-2
1.758821314E0,7.000446320E-3,4.211753607E-2,-1.656818390E-2
1.775487252E0,-8.140563965E-3,3.959870338E-2,6.930828094E-2
1.792153189E0,-2.758979797E-2,-2.101337910E-2,1.081418991E-1
1.808819127E0,-5.099320412E-2,-5.612134933E-3,5.012798309E-2
1.825485064E0,-9.445428848E-3,3.400516510E-2,-6.446170807E-2
1.842151002E0,5.775403976E-2,1.260399818E-3,-8.485221863E-2
1.858816939E0,6.074452400E-2,-3.184211254E-2,6.546020508E-2
1.875482877E0,7.603192329E-2,-4.462522268E-2,9.997367859E-3
1.892148814E0,1.809573174E-2,5.599629879E-2,-1.379423141E-1
1.908814752E0,-5.496859550E-2,1.239844561E-1,-2.768306732E-1
1.925480689E0,5.653452873E-2,1.131001711E-1,-3.435020447E-1
1.942146627E0,8.158612251E-2,1.308349371E-1,-3.031520844E-1
1.958812564E0,-1.207780838E-2,1.086070538E-1,-1.107664108E-1
1.975478502E0,9.624910355E-2,2.707231045E-2,6.972312927E-3
1.992144439E0,1.345045567E-1,-1.440644264E-2,1.500082016E-1
2.008810377E0,6.019544601E-2,-1.220273972E-2,1.845178604E-1
2.025476314E0,1.568794250E-3,-7.875084877E-3,-6.284713745E-4
2.042142252E0,2.569198608E-2,6.433939934E-2,-1.543331146E-1
2.058808189E0,3.553938866E-2,2.638328075E-2,1.100730896E-1
2.075474127E0,9.917283058E-2,-5.796390772E-2,2.234611511E-1
2.092140064E0,3.448820114E-2,-9.951591492E-4,1.185312271E-1
2.108806002E0,-8.338236809E-2,3.708362579E-2,1.256561279E-1
2.125471939E0,9.938240051E-3,2.074468136E-2,1.033611298E-1
2.142137877E0,-1.249074936E-3,9.043133259E-2,-3.939628601E-2
2.158803814E0,-6.150865555E-2,1.140035391E-1,-1.259183884E-1
2.175469752E0,5.768418312E-2,5.443060398E-2,-5.448913574E-2
2.192135689E0,5.554294586E-2,1.431870461E-2,2.002811432E-2
2.208801627E0,-6.530332565E-2,1.434183121E-2,9.079551697E-2
2.225467564E0,6.842136383E-3,-5.753874779E-3,9.603214264E-2
2.242133502E0,3.826594353E-2,1.850056648E-2,1.324081421E-2
2.258799439E0,4.278802872E-2,1.906716824E-2,-2.794551849E-2
2.275465377E0,8.337759972E-2,1.840877533E-2,-1.069812775E-1
2.292131314E0,-3.621768951E-2,4.412508011E-2,-1.591768265E-1
2.308797252E0,-8.191919327E-2,-1.162517071E-2,9.124755859E-3
2.325463189E0,3.213453293E-2,-6.305289268E-2,1.079330444E-1
2.342129127E0,7.507061958E-2,3.542900085E-3,-8.047199249E-2
2.358795064E0,6.526803970E-2,5.937767029E-2,-2.345142365E-1
2.375461002E0,-2.393102646E-2,5.773305893E-3,-6.850719452E-2
2.392126939E0,-3.535079956E-2,-3.535592556E-2,1.001548767E-1
2.408792877E0,8.149361610E-2,1.441013813E-2,-3.047275543E-2
2.425458814E0,-9.321928024E-3,1.065930128E-1,-1.646957397E-1
2.442124752E0,-1.023657322E-1,9.637594223E-2,-1.294841766E-1
2.458790689E0,-7.076025009E-3,6.221330166E-2,-1.956939697E-2
2.475456627E0,-4.319643974E-2,5.071878433E-2,2.229404449E-2
2.492122564E0,-2.505087852E-2,4.059553146E-2,-2.610588074E-2
2.508788502E0,6.588959694E-2,2.295684814E-2,3.810501099E-2
2.525454439E0,1.065289974E-1,-1.380753517E-2,1.362600327E-1
2.542120377E0,1.708269119E-3,-2.414345741E-2,1.868600845E-1
2.558786314E0,-2.438950539E-2,-3.781914711E-3,1.348533630E-1
2.575452252E0,4.842329025E-2,1.414835453E-2,4.914379120E-2
2.592118189E0,2.929997444E-2,6.919193268E-2,-1.531028748E-2
2.608784127E0,3.895759583E-2,9.355163574E-2,-1.138086319E-1
2.625450064E0,7.666826248E-3,7.277107239E-2,-7.894039154E-2
2.642116002E0,6.080365181E-2,4.047048092E-2,2.037048340E-2
2.658781939E0,9.474039078E-2,1.831746101E-2,7.992839813E-2
2.675447877E0,1.683235168E-4,3.066182137E-2,3.207111359E-2
2.692113814E0,-1.561570168E-2,1.141417027E-2,-3.275966644E-2
2.708779752E0,3.992772102E-2,-1.029396057E-2,1.092157364E-1
2.725445689E0,-2.174162865E-2,-8.969342709E-2,2.498731613E-1
2.742111627E0,-3.043055534E-2,-7.251346111E-2,1.673593521E-1
2.758777564E0,-1.560354233E-2,-3.387606144E-2,-3.801250458E-2
2.775443502E0,8.989334106E-3,3.037452698E-3,-8.711338043E-2
2.792109439E0,6.095957756E-2,-2.728188038E-2,-5.967140198E-3
2.808775377E0,3.631234169E-2,-2.943670750E-2,-5.921936035E-2
2.825441314E0,-9.720563889E-3,-2.607119083E-2,-8.299541473E-2
2.842107252E0,-3.029823303E-2,-6.188368797E-2,-1.108188629E-1
2.858773189E0,-5.501890182E-2,-8.863973618E-2,-1.056995392E-1
2.875439127E0,-2.135181427E-2,-9.207475185E-2,-1.670694351E-1
2.892105064E0,1.790595055E-2,-1.075004339E-1,-5.221939087E-2
2.908771002E0,8.526992798E-2,-1.107809544E-1,3.964042664E-2
2.925436939E0,7.705450058E-3,-4.104530811E-2,1.242065430E-2
2.942102877E0,-4.399085045E-2,1.455187798E-3,-7.280731201E-2
2.958768814E0,-6.771612167E-2,5.164492130E-2,-1.028099060E-1
2.975434752E0,-8.952307701E-2,6.307470798E-2,-1.225023270E-1
2.992100689E0,-9.183287621E-2,9.121787548E-2,-2.146053314E-2
3.008766627E0,-6.782722473E-2,8.371567726E-2,5.766487122E-2
3.025432564E0,-4.469442368E-2,1.810336113E-2,8.071231842E-2
3.042098502E0,-5.231308937E-2,-1.153266430E-2,9.170436859E-2
3.058764439E0,-3.331685066E-2,-3.752565384E-2,1.026754379E-1
3.075430377E0,2.318429947E-2,1.500606537E-2,5.891609192E-2
3.092096314E0,-6.150007248E-3,5.164623260E-3,3.174114227E-2
3.108762252E0,-1.166026592E-1,-4.540860653E-2,7.630348206E-2
3.125428189E0,-1.303203106E-1,-9.380209446E-2,7.775402069E-2
3.142094127E0,1.448297501E-2,-8.614611626E-2,6.708431244E-2
3.158760064E0,1.384496689E-3,-1.317745447E-1,-3.310871124E-2
3.175426002E0,-5.631017685E-2,-8.982944489E-2,-7.177734375E-2
3.192091939E0,-1.143407822E-1,1.170902252E-1,-3.394508362E-2
3.208757877E0,-1.861305237E-1,5.083560944E-3,-1.943397522E-2
3.225423814E0,-1.303713322E-1,4.032039642E-2,6.559181213E-2
3.242089752E0,8.896136284E-2,6.278777122E-2,-1.643037796E-1
3.258755689E0,2.155749798E-1,1.378899813E-1,-3.534746170E-1
3.275421627E0,1.807396412E-1,2.192385197E-1,-2.741565704E-1
3.292087564E0,1.819014549E-2,1.554671526E-1,3.399276733E-2
3.308753502E0,-3.656673431E-2,7.311809063E-2,2.091646194E-1
3.325419439E0,8.687996864E-2,3.076088428E-2,2.149667740E-1
3.342085377E0,9.171462059E-2,6.908512115E-2,1.909151077E-1
3.358751314E0,5.830812454E-2,3.992784023E-2,1.453771591E-1
3.375417252E0,2.142834663E-2,8.445310593E-2,6.940650940E-2
3.392083189E0,-4.814672470E-2,1.069076061E-1,3.788948059E-3
3.408749127E0,4.067444801E-2,9.760701656E-2,-8.114814758E-3
3.425415064E0,9.212756157E-2,7.036685944E-3,1.415786743E-1
3.442081002E0,4.330873489E-3,-3.064870834E-3,2.864627838E-1
3.458746939E0,-1.471805573E-2,5.540585518E-2,2.992820740E-2
3.475412877E0,7.097649574E-2,1.249693632E-1,-2.858753204E-1
3.492078814E0,6.110572815E-2,9.545326233E-2,-2.882823944E-1
3.508744752E0,1.374244690E-3,3.981029987E-2,-1.104440689E-1
3.525410689E0,-2.810788155E-2,1.009225845E-3,7.569980621E-2
3.542076627E0,-1.304302216E-1,-7.057583332E-2,3.647975922E-1
3.558742564E0,-9.653067589E-2,-1.784021854E-1,5.125999451E-1
3.575408502E0,2.616474628E-1,-1.243400574E-1,6.416893005E-2
3.592074439E0,2.352097034E-1,8.801221848E-3,-3.187866211E-1
3.608740377E0,4.668450356E-2,1.688773632E-1,-4.314002991E-1
3.625406314E0,3.442978859E-2,1.795369387E-1,-1.486978531E-1
3.642072252E0,1.784849167E-2,1.349143982E-1,1.449909210E-1
3.658738189E0,-4.938817024E-2,8.153724670E-2,2.515106201E-1
3.675404127E0,-4.884052277E-2,8.198106289E-2,2.576751709E-1
3.692070064E0,-2.067677975E-1,1.575970650E-1,8.857345581E-2
3.708736002E0,-4.117777348E-1,1.984984875E-1,-2.089738846E-1
3.725401939E0,-3.986592293E-1,4.881501198E-2,-4.310359955E-1
3.742067877E0,9.434556961E-2,-6.575842500E-1,-5.039119720E-1
3.758733814E0,-6.164836884E-2,3.096883297E-1,7.409791946E-1
3.775399752E0,-4.410743713E-2,-4.355740547E-2,2.384271622E-1
3.792065689E0,-9.749412537E-3,-5.210685730E-2,-3.508281708E-2
3.808731627E0,-4.626536369E-2,6.691682339E-2,-9.482192993E-2
3.825397564E0,-1.893370152E-1,1.188695431E-2,-2.369480133E-1
3.842063502E0,-2.023217678E-1,6.345629692E-3,-3.171472549E-1
3.858729439E0,-7.333874702E-2,8.838772774E-2,-2.909297943E-1
3.875395377E0,4.403400421E-2,-3.864073753E-2,-3.356180191E-1
3.892061314E0,1.878666878E-2,9.031438828E-2,-2.399616241E-1
3.908727252E0,3.492975235E-2,9.571075439E-3,-2.218732834E-1
3.925393189E0,2.655673027E-2,6.144952774E-2,-7.098007202E-2
3.942059127E0,-1.544699669E-1,-2.754795551E-2,-8.552265167E-2
3.958725064E0,-2.541341782E-1,4.921734333E-2,-6.267929077E-2
3.975391002E0,-2.355449200E-1,7.013344765E-2,-7.755279541E-2
3.992056939E0,-3.105394840E-1,1.806931496E-1,-1.436233521E-2
4.008722877E0,-2.400529385E-1,2.148272991E-1,-4.763603210E-2
4.025388814E0,-1.300420761E-1,1.650220156E-1,5.581951141E-2
4.042054752E0,3.638386726E-2,1.169553995E-1,3.619689941E-1
4.058720689E0,7.877469063E-2,1.295453310E-1,3.980464935E-1
4.075386627E0,-5.809259415E-2,1.971606016E-1,3.713083267E-1
4.092052564E0,-7.741212845E-3,2.050187588E-1,2.172908783E-1
4.108718502E0,1.247644424E-3,2.398709059E-1,2.523031235E-1
4.125384439E0,5.137038231E-2,3.329267502E-1,2.576227188E-1
4.142050377E0,9.430456161E-2,4.213082790E-1,-9.198474884E-2
4.158716314E0,1.127195358E-2,4.931329489E-1,-2.438840866E-1
4.175382252E0,-6.221342087E-2,5.731405020E-1,-1.480569839E-1
4.192048189E0,-7.364964485E-2,4.917016029E-1,-2.093982697E-1
4.208714127E0,-1.367454529E-1,4.156554937E-1,-1.661691666E-1
4.225380064E0,-1.494390965E-1,3.800227642E-1,-1.364402771E-1
4.242046002E0,-9.044814110E-2,3.116549253E-1,-2.208871841E-1
4.258711939E0,-2.071640491E-1,3.325639963E-1,-1.649160385E-1
4.275377877E0,-4.751491547E-1,3.290351629E-1,-2.247161865E-1
4.292043814E0,-5.598349571E-1,3.750749826E-1,-4.318733215E-1
4.308709752E0,-5.498144627E-1,3.763612509E-1,-6.702117920E-1
4.325375689E0,-6.249935627E-1,4.479972124E-1,-5.615835190E-1
4.342041627E0,-8.179268837E-1,6.032407284E-1,-5.743427277E-1
4.358707564E0,-9.078092575E-1,7.574247122E-1,-7.309875488E-1
4.375373502E0,-8.015866280E-1,8.271800280E-1,-6.087455750E-1
4.392039439E0,-5.325036049E-1,6.337660551E-1,-1.255178452E-1
4.408705377E0,-2.092862129E-2,4.488099813E-1,5.108690262E-1
4.425371314E0,5.247607231E-1,2.328553200E-1,1.270387650E0
4.442037252E0,9.685242176E-1,3.360545635E-2,1.935259819E0
4.458703189E0,1.243616343E0,-1.084355116E-1,2.537685394E0
4.475369127E0,1.293383360E0,-1.671903133E-1,3.070757866E0
4.492035064E0,1.176278591E0,-7.454216480E-2,2.868385315E0
4.508701002E0,1.018290997E0,2.037562132E-1,2.120311737E0
4.525366939E0,7.844498158E-1,5.608090162E-1,1.264833450E0
4.542032877E0,5.365808010E-1,9.562408924E-1,5.327138901E-1
4.558698814E0,1.167831421E-1,1.147827387E0,1.553421021E-1
4.575364752E0,-2.293486595E-1,1.040754557E0,7.476139069E-2
4.592030689E0,-4.413015842E-1,7.852857113E-1,1.896228790E-1
4.608696627E0,-4.907858372E-1,7.018857002E-1,7.322502136E-2
4.625362564E0,-5.663020611E-1,8.826994896E-1,-7.516450882E-1
4.642028502E0,-1.024587154E0,1.226841688E0,-1.617292881E0
4.658694439E0,-1.613639235E0,1.290434599E0,-2.077706337E0
4.675360377E0,-1.661816359E0,1.066263676E0,-1.883511066E0
4.692026314E0,-1.558813810E0,6.237993240E-1,-1.518499851E0
4.708692252E0,-1.710703731E0,4.225265980E-1,-1.383589268E0
4.725358189E0,-2.100452423E0,3.702762127E-1,-1.786035538E0
4.742024127E0,-2.316297054E0,2.668497562E-1,-2.335456371E0
4.758690064E0,-2.311449051E0,1.130282879E-1,-2.876371861E0
4.775356002E0,-2.426051378E0,-1.189167500E-1,-3.322032928E0
4.792021939E0,-2.768480778E0,-5.220062733E-1,-3.768588066E0
4.808687877E0,-2.999356031E0,-1.032682419E0,-4.079397678E0
4.825353814E0,-2.934214115E0,-1.662997842E0,-4.600689888E0
4.842019752E0,-2.433037281E0,-2.195484400E0,-5.108894348E0
4.858685689E0,-2.307277679E0,-2.726509094E0,-5.553355217E0
4.875351627E0,-2.508334160E0,-3.042009830E0,-6.033867836E0
4.892017564E0,-2.730727911E0,-3.390179873E0,-6.712026596E0
4.908683502E0,-2.658136368E0,-3.530696154E0,-7.628381252E0
4.925349439E0,-1.549546480E0,-3.994468212E0,-7.946038723E0
4.942015377E0,5.381207466E-1,-4.859979153E0,-6.943498135E0
4.958681314E0,2.086719990E0,-5.576734066E0,-5.598847389E0
4.975347252E0,2.903985500E0,-5.938352585E0,-4.430725098E0
4.992013189E0,4.722993851E0,-5.932997227E0,-2.922784805E0
5.008679127E0,8.876138687E0,-5.791809082E0,-1.657270908E0
5.025345064E0,1.431070900E1,-5.446929932E0,1.261984825E0
5.042011002E0,1.867435646E1,-5.371847630E0,8.446424484E0
5.058676939E0,1.955981636E1,-5.078159332E0,1.578201866E1
5.075342877E0,1.669184113E1,-3.088344097E0,1.909509850E1
5.092008814E0,1.193548965E1,4.924776554E-1,1.735679436E1
5.108674752E0,7.967533112E0,4.473351479E0,1.498625565E1
5.125340689E0,4.926064014E0,6.224362373E0,1.704247665E1
5.142006627E0,2.275138378E0,5.991594315E0,2.127953148E1
5.158672564E0,6.107425690E-1,6.114119530E0,2.130741119E1
5.175338502E0,-1.061961174E0,7.848185062E0,1.725918961E1
5.192004439E0,-3.092277050E0,1.034128666E1,1.139706230E1
5.208670377E0,-5.128082275E0,1.260422134E1,6.813451290E0
5.225336314E0,-8.100593567E0,1.380462646E1,4.507366657E0
5.242002252E0,-1.067952919E1,1.291160297E1,6.005066395E0
5.258668189E0,-1.148832989E1,1.192713451E1,7.929111004E0
5.275334127E0,-1.160404015E1,1.148188400E1,7.162704945E0
5.292000064E0,-1.105613327E1,1.135622311E1,4.214068413E0
5.308666002E0,-8.576723099E0,1.150081635E1,1.287213802E0
5.325331939E0,-5.368654251E0,1.175008774E1,2.605640888E-1
5.341997877E0,-1.911537170E0,1.138756943E1,1.738354206E0
5.358663814E0,1.462860107E0,1.080057716E1,9.000275612E0
5.375329752E0,6.034401894E0,9.607556343E0,1.973615265E1
5.391995689E0,1.467604828E1,6.959265232E0,2.512524414E1
5.408661627E0,2.282949448E1,3.020254135E0,2.563864517E1
5.425327564E0,2.342637253E1,-2.696812153E0,2.598415756E1
5.441993502E0,1.945923042E1,-8.667505264E0,2.506697845E1
5.458659439E0,1.560765648E1,-1.405537701E1,1.973104477E1
5.475325377E0,1.097153950E1,-1.548022270E1,9.060689926E0
5.491991314E0,5.986345291E0,-1.395178032E1,-1.360288620E0
5.508657252E0,1.113334179E0,-1.319329643E1,-6.634568214E0
5.525323189E0,-2.576619148E0,-1.360305023E1,-6.687093735E0
5.541989127E0,-3.602525949E0,-1.529766464E1,-3.824261904E0
5.558655064E0,-2.996850252E0,-1.746586037E1,-3.505126715E0
5.575321002E0,-2.779597044E0,-1.900043297E1,-6.434835911E0
5.591986939E0,-2.907133579E0,-1.957845497E1,-1.039190578E1
5.608652877E0,-4.526173115E0,-1.948164558E1,-1.318499184E1
5.625318814E0,-7.549752712E0,-1.910790253E1,-1.453048325E1
5.641984752E0,-1.051863384E1,-1.829493713E1,-1.450175476E1
5.658650689E0,-1.049546242E1,-1.837149429E1,-1.284149933E1
5.675316627E0,-5.718104362E0,-1.983112335E1,-1.121404552E1
5.691982564E0,-1.103176117E0,-1.986973572E1,-1.110244179E1
5.708648502E0,1.073077202E0,-1.758745575E1,-1.070618629E1
5.725314439E0,3.870318413E0,-1.442736816E1,-8.624393463E0
5.741980377E0,1.166688633E1,-1.033431339E1,-4.953763008E0
5.758646314E0,2.400738907E1,-8.168406487E0,1.243006229E0
5.775312252E0,3.171894073E1,-7.560930252E0,1.293036652E1
5.791978189E0,3.041677856E1,-4.490453243E0,2.284947395E1
5.808644127E0,2.364791489E1,-4.105067253E-1,2.618456841E1
5.825310064E0,1.432064342E1,4.570805550E0,2.389467812E1
5.841976002E0,8.030446053E0,8.106892586E0,2.014539146E1
5.858641939E0,3.162866592E0,9.790944099E0,1.633882713E1
5.875307877E0,-2.032886505E0,1.054507732E1,1.235157394E1
5.891973814E0,-4.587044239E0,1.048663235E1,9.818408012E0
5.908639752E0,-5.327275753E0,9.947565079E0,8.270689011E0
5.925305689E0,-5.420968056E0,9.853549957E0,6.380941391E0
5.941971627E0,-6.852574348E0,1.084645844E1,4.891020775E0
5.958637564E0,-1.104798794E1,1.246470261E1,4.409040928E0
5.975303502E0,-1.568949318E1,1.409206200E1,5.245139599E0
5.991969439E0,-1.615387535E1,1.552948284E1,7.257473946E0
6.008635377E0,-1.011378860E1,1.583094597E1,9.221577644E0
6.025301314E0,-8.409280777E-1,1.574219894E1,9.347506523E0
6.041967252E0,2.594007492E0,1.552849770E1,8.761183739E0
6.058633189E0,7.235240936E-1,1.432456398E1,1.326210403E1
6.075299127E0,2.512988091E0,1.087246990E1,2.104781723E1
6.091965064E0,1.028418159E1,7.175794601E0,2.435799408E1
6.108631002E0,2.167545700E1,4.125495911E0,2.324589157E1
6.125296939E0,3.037368774E1,-1.476045370E0,2.384662056E1
6.141962877E0,3.184338951E1,-8.949801445E0,2.638228989E1
6.158628814E0,3.064926147E1,-1.716816330E1,2.423710251E1
6.175294752E0,2.475690460E1,-2.081730652E1,1.350579834E1
6.191960689E0,1.642871094E1,-1.941348267E1,1.903772354E-1
6.208626627E0,7.686226368E0,-1.819499588E1,-6.542290211E0
6.225292564E0,7.299828529E-1,-1.900466728E1,-5.735622406E0
6.241958502E0,-3.974825382E0,-2.030931091E1,-2.735433340E0
6.258624439E0,-6.418909073E0,-2.184617043E1,-3.039544106E0
6.275290377E0,-9.304894447E0,-2.239840317E1,-7.838314533E0
6.291956314E0,-1.196078205E1,-2.239302826E1,-1.317556763E1
6.308622252E0,-1.466439629E1,-2.230271149E1,-1.556615257E1
6.325288189E0,-1.842230797E1,-2.141752243E1,-1.458959866E1
6.341954127E0,-1.953929520E1,-2.097107887E1,-1.215214062E1
6.358620064E0,-1.440828800E1,-2.235201263E1,-1.013054466E1
6.375286002E0,-5.617961884E0,-2.369742584E1,-8.928477287E0
6.391951939E0,-4.864606857E-1,-2.236698914E1,-8.877532959E0
6.408617877E0,1.251451492E0,-1.990430450E1,-1.038477325E1
6.425283814E0,3.640171528E0,-1.767505264E1,-9.121423721E0
6.441949752E0,1.333102989E1,-1.519362354E1,-3.605099678E0
6.458615689E0,2.539562988E1,-1.251270294E1,1.936908007E0
6.475281627E0,3.380406952E1,-8.877677917E0,6.607660294E0
6.491947564E0,3.690215302E1,-5.776853085E0,1.236258316E1
6.508613502E0,3.456249619E1,-4.088958263E0,1.764786530E1
6.525279439E0,2.490059662E1,-8.540709019E-1,2.112237930E1
6.541945377E0,1.496794987E1,2.799637794E0,2.135123253E1
6.558611314E0,8.428584099E0,5.875857353E0,1.869215393E1
6.575277252E0,2.995324135E0,7.807411671E0,1.465451622E1
6.591943189E0,-2.978541851E0,9.089394569E0,1.094299126E1
6.608609127E0,-7.720364094E0,9.787279129E0,8.285912514E0
6.625275064E0,-1.014798355E1,9.823057175E0,6.664684296E0
6.641941002E0,-1.150822926E1,1.089241219E1,5.639442921E0
6.658606939E0,-1.296078777E1,1.242784309E1,5.359986305E0
6.675272877E0,-1.403329468E1,1.456113815E1,5.304571629E0
6.691938814E0,-1.625419998E1,1.621149826E1,5.028445244E0
6.708604752E0,-1.669664192E1,1.632876396E1,6.107779980E0
6.725270689E0,-1.301559830E1,1.474953175E1,8.520157814E0
6.741936627E0,-6.543974876E0,1.391159439E1,1.043879890E1
6.758602564E0,5.722293854E-1,1.400222778E1,1.079156303E1
6.775268502E0,8.607749939E0,1.313864613E1,1.311322403E1
6.791934439E0,1.730709457E1,1.034932518E1,2.128008461E1
6.808600377E0,2.702997398E1,3.991422176E0,3.151012230E1
6.825266314E0,3.456357574E1,-7.002400875E0,3.523530960E1
6.841932252E0,3.413716888E1,-1.576708794E1,2.866168404E1
6.858598189E0,2.689821243E1,-2.091671371E1,1.839346504E1
6.875264127E0,1.657833481E1,-2.216427040E1,1.046377373E1
6.891930064E0,8.823071480E0,-2.146755981E1,3.226292372E0
6.908596002E0,2.906469822E0,-1.960080147E1,-2.600715637E0
6.925261939E0,-1.454639912E0,-1.901723289E1,-4.929193974E0
6.941927877E0,-5.867431164E0,-1.937218857E1,-4.968011856E0
6.958593814E0,-9.459787369E0,-2.031964684E1,-5.215301514E0
6.975259752E0,-1.241137123E1,-2.092284012E1,-7.271356583E0
6.991925689E0,-1.411987591E1,-2.115706825E1,-9.941333771E0
7.008591627E0,-1.576454353E1,-2.122701645E1,-1.083540058E1
7.025257564E0,-1.838311768E1,-2.097574997E1,-1.037549973E1
7.041923502E0,-1.873160362E1,-2.128330040E1,-9.057532310E0
7.058589439E0,-1.375745296E1,-2.268356705E1,-8.235982895E0
7.075255377E0,-7.045998096E0,-2.326596069E1,-8.810688019E0
7.091921314E0,-4.897574425E0,-2.187217140E1,-1.069734859E1
7.108587252E0,-4.976061821E0,-2.071142197E1,-1.172320557E1
7.125253189E0,-2.933959961E-1,-1.996124268E1,-1.144929886E1
7.141919127E0,1.058009052E1,-1.977105522E1,-7.518581867E0
7.158585064E0,2.065561676E1,-1.790955353E1,-2.001031637E0
7.175251002E0,2.962820625E1,-1.492369556E1,5.284591675E0
7.191916939E0,3.775914001E1,-1.425139236E1,1.507375908E1
7.208582877E0,3.865106201E1,-1.207966900E1,2.202392197E1
7.225248814E0,2.980030251E1,-5.583876610E0,2.431528091E1
7.241914752E0,1.910982513E1,6.353309155E-1,2.223785400E1
7.258580689E0,1.206686306E1,4.821441650E0,1.972302818E1
7.275246627E0,7.102904320E0,6.820348740E0,1.771630096E1
7.291912564E0,2.033386230E-1,9.058108330E0,1.551116562E1
7.308578502E0,-5.429933071E0,1.134746647E1,1.233678627E1
7.325244439E0,-8.320081711E0,1.273900032E1,1.053294754E1
7.341910377E0,-1.086372852E1,1.420356560E1,1.034027290E1
7.358576314E0,-1.311728859E1,1.599965000E1,9.361869812E0
7.375242252E0,-1.552450562E1,1.813407326E1,7.354025364E0
7.391908189E0,-1.758908081E1,1.927113914E1,6.024539471E0
7.408574127E0,-1.583217525E1,1.853705406E1,6.905634880E0
7.425240064E0,-9.497996330E0,1.650621033E1,9.768526077E0
7.441906002E0,-1.768585682E0,1.560631466E1,1.428868866E1
7.458571939E0,5.005163193E0,1.499296570E1,1.727505112E1
7.475237877E0,1.307684803E1,1.302898884E1,2.041165352E1
7.491903814E0,2.341357040E1,6.781000614E0,2.843001938E1
7.508569752E0,3.064599991E1,-3.808310747E0,3.557840729E1
7.525235689E0,3.216012192E1,-1.493155098E1,3.470038223E1
7.541901627E0,3.016246414E1,-2.342404747E1,2.639034653E1
7.558567564E0,2.625538063E1,-2.838105011E1,1.740882492E1
7.575233502E0,1.999114990E1,-2.964079475E1,9.613676071E0
7.591899439E0,1.039570999E1,-2.624397278E1,3.544518948E0
7.608565377E0,2.809887409E0,-2.359405136E1,-6.826955080E-1
7.625231314E0,-1.703904629E0,-2.309122276E1,-2.064323902E0
7.641897252E0,-5.399113655E0,-2.403382301E1,-1.926896811E0
7.658563189E0,-9.225792885E0,-2.566817856E1,-2.823295116E0
7.675229127E0,-1.334973526E1,-2.592761993E1,-7.904613018E0
7.691895064E0,-1.848151398E1,-2.500474930E1,-1.292609692E1
7.708561002E0,-2.430356789E1,-2.422918320E1,-1.379898739E1
7.725226939E0,-2.732713699E1,-2.460102272E1,-1.175547886E1
7.741892877E0,-2.448035240E1,-2.701628304E1,-8.982317924E0
7.758558814E0,-1.682352829E1,-2.967123795E1,-6.495900631E0
7.775224752E0,-8.613554001E0,-3.040787506E1,-5.356180668E0
7.791890689E0,-5.662731171E0,-2.779243279E1,-7.186913967E0
7.808556627E0,-3.102501392E0,-2.597317314E1,-1.077901173E1
7.825222564E0,5.108537674E0,-2.648603058E1,-1.103494167E1
7.841888502E0,1.665678406E1,-2.739127922E1,-6.755010605E0
7.858554439E0,2.560209274E1,-2.632937431E1,2.081425667E0
7.875220377E0,3.872587585E1,-2.608666039E1,1.495233727E1
7.891886314E0,5.003678131E1,-2.387600899E1,2.580800819E1
7.908552252E0,4.762799454E1,-1.622898483E1,2.712896919E1
7.925218189E0,3.281389618E1,-5.619798183E0,2.199834824E1
7.941884127E0,2.008185959E1,2.393938065E0,1.708057022E1
7.958550064E0,1.189555073E1,7.024056435E0,1.565016747E1
7.975216002E0,5.697713852E0,9.503370285E0,1.548406696E1
7.991881939E0,-5.266962051E-1,1.283173943E1,1.636242104E1
8.008547877E0,-4.454296589E0,1.688062477E1,1.696948433E1
8.025213814E0,-7.604561329E0,2.062075615E1,1.695648384E1
8.041879752E0,-1.079563522E1,2.295898628E1,1.652535629E1
8.058545689E0,-1.323805428E1,2.405727768E1,1.510108662E1
8.075211627E0,-1.381757355E1,2.321871185E1,1.489550877E1
8.091877564E0,-9.254981995E0,1.984708595E1,1.669864655E1
8.108543502E0,-1.218411446E0,1.610437775E1,1.728441238E1
8.125209439E0,5.517888069E0,1.337822914E1,1.306706619E1
8.141875377E0,7.674341202E0,1.129504585E1,1.018489456E1
8.158541314E0,1.004463100E1,7.533499718E0,1.726961136E1
8.175207252E0,1.652934647E1,1.551137269E-1,3.016504669E1
8.191873189E0,2.599375534E1,-1.130873680E1,3.676267624E1
8.208539127E0,3.241756821E1,-2.354929352E1,3.084274292E1
8.225205064E0,3.260904312E1,-3.079443359E1,2.268075180E1
8.241871002E0,2.866357613E1,-3.461452103E1,1.571937752E1
8.258536939E0,1.922147751E1,-3.445651245E1,8.491531372E0
8.275202877E0,6.849907875E0,-3.129370117E1,1.701800346E0
8.291868814E0,-3.540863514E0,-2.807282257E1,-2.772841930E0
8.308534752E0,-1.058765030E1,-2.598910904E1,-5.013500214E0
8.325200689E0,-1.436532402E1,-2.513515854E1,-6.682297230E0
8.341866627E0,-1.622345352E1,-2.537251854E1,-8.725180626E0
8.358532564E0,-1.960655212E1,-2.558837700E1,-1.059700775E1
8.375198502E0,-2.553256607E1,-2.560848618E1,-1.266754818E1
8.391864439E0,-3.267159271E1,-2.560425949E1,-1.399155521E1
8.408530377E0,-3.095289803E1,-2.610813522E1,-1.405374813E1
8.425196314E0,-2.164297104E1,-2.792848396E1,-1.214049149E1
8.441862252E0,-1.357905769E1,-2.854529572E1,-9.486285210E0
8.458528189E0,-1.044326782E1,-2.876833344E1,-6.901973248E0
8.475194127E0,-3.845489025E0,-2.934878159E1,-4.946224689E0
8.491860064E0,5.303027153E0,-2.880390167E1,-5.282850266E0
8.508526002E0,2.157607841E1,-3.031774330E1,4.446192980E-1
8.525191939E0,4.289271545E1,-3.146762085E1,1.457612228E1
8.541857877E0,6.052886200E1,-2.875468826E1,3.272206116E1
8.558523814E0,5.683765030E1,-2.209526443E1,4.102046967E1
8.575189752E0,3.524033356E1,-6.843234062E0,2.719807816E1
8.591855689E0,1.490670204E1,6.871297836E0,9.011120796E-1
8.608521627E0,6.514025688E0,1.662568665E1,-1.123529625E1
8.625187564E0,5.983711243E0,1.899376488E1,-5.218646049E0
8.641853502E0,6.282321930E0,1.807523155E1,9.955627441E0
8.658519439E0,4.330366135E0,1.711013222E1,2.072855949E1
8.675185377E0,-8.508510590E-1,1.870232773E1,1.901605034E1
8.691851314E0,-2.695502758E0,1.919040108E1,1.338715839E1
8.708517252E0,-2.670076847E0,1.443081284E1,1.344967842E1
8.725183189E0,-1.744885445E0,5.715943336E0,1.789727402E1
8.741849127E0,7.698535919E-2,-7.131021500E0,2.017329788E1
8.758515064E0,-1.286304474E0,-2.206623650E1,1.700011635E1
8.775181002E0,-4.223968029E0,-2.926560783E1,1.252800274E1
8.791846939E0,3.345516205E0,-3.405706406E1,1.271465683E1
8.808512877E0,7.890167236E0,-3.544455338E1,1.425996208E1
8.825178814E0,2.819592476E0,-3.255223083E1,7.286135674E0
8.841844752E0,-1.553838730E0,-2.481822777E1,-3.210673332E0
8.858510689E0,-2.556065559E0,-1.885321045E1,-1.198844624E1
8.875176627E0,-3.416894674E0,-1.503536415E1,-1.441891956E1
8.891842564E0,-2.371405602E0,-6.244419575E0,-1.685030365E1
8.908508502E0,-2.444756031E0,6.465206146E0,-2.123915100E1
8.925174439E0,-1.768138885E0,1.663219070E1,-2.733426476E1
8.941840377E0,3.173933983E0,2.075788116E1,-2.684610176E1
8.958506314E0,1.083833694E1,1.634650993E1,-1.318363285E1
8.975172252E0,9.696390152E0,1.323781204E1,8.404912949E-1
8.991838189E0,1.798676968E0,1.031807709E1,9.452435493E0
9.008504127E0,-4.049208641E0,9.669145584E0,1.052107811E1
9.025170064E0,-6.796105385E0,9.419165611E0,8.891237259E0
9.041836002E0,-1.005394745E1,5.663250446E0,7.706288338E0
9.058501939E0,-1.706431007E1,3.530369759E0,1.034383774E1
9.075167877E0,-1.091618156E1,-3.880301237E0,5.378763199E0
9.091833814E0,1.179138184E1,-1.082242584E1,2.013734579E0
9.108499752E0,1.801117134E1,-1.214348793E1,2.563705683E0
9.125165689E0,1.441674232E1,-1.974690628E1,-1.118519425E0
9.141831627E0,1.170538902E1,-2.363529205E1,3.517354727E0
9.158497564E0,1.284748459E1,-2.400072670E1,1.015327072E1
9.175163502E0,1.871689415E1,-2.309392357E1,7.922983170E0
9.191829439E0,1.667756844E1,-2.046566772E1,1.816228867E0
9.208495377E0,1.067467690E1,-1.895518875E1,-3.084522247E0
9.225161314E0,9.551823616E0,-1.758430099E1,-1.557488203E0
9.241827252E0,1.177590752E1,-1.583914471E1,2.367286682E-1
9.258493189E0,1.273297119E1,-1.377272606E1,-4.867365360E0
9.275159127E0,1.030172539E1,-1.202754021E1,-1.225793839E1
9.291825064E0,9.325485229E0,-1.133699417E1,-1.588804340E1
9.308491002E0,1.547944832E1,-1.468807030E1,-1.007575512E1
9.325156939E0,2.685789490E1,-2.120527077E1,4.147332191E0
9.341822877E0,3.144700432E1,-2.288962936E1,1.754589272E1
9.358488814E0,2.908406067E1,-2.040938568E1,2.305895615E1
9.375154752E0,2.336311531E1,-1.600455093E1,2.163204575E1
9.391820689E0,1.910737991E1,-1.054955482E1,1.975021935E1
9.408486627E0,1.767110825E1,-7.044738293E0,2.101449776E1
9.425152564E0,1.198726749E1,-4.597077370E0,2.637039185E1
9.441818502E0,3.474431992E0,3.023495674E-1,2.874558640E1
9.458484439E0,-3.790899277E0,5.362169743E0,2.382405472E1
9.475150377E0,-7.571599960E0,9.025719643E0,1.391002941E1
9.491816314E0,-1.428281021E1,1.350903225E1,5.386594772E0
9.508482252E0,-1.834841537E1,1.521372414E1,4.398888111E0
9.525148189E0,-1.995310593E1,1.615503693E1,1.109094429E1
9.541814127E0,-1.888595963E1,1.921316719E1,1.472356319E1
9.558480064E0,-1.338903809E1,2.126844978E1,1.060100937E1
9.575146002E0,-9.946132660E0,2.414647675E1,1.905168533E0
9.591811939E0,-8.118120193E0,2.373568726E1,2.508376598E0
9.608477877E0,4.197331429E0,2.227423477E1,1.526668739E1
9.625143814E0,2.392308235E1,1.799686050E1,3.120366859E1
9.641809752E0,4.409697342E1,1.108507156E1,4.529160690E1
9.658475689E0,4.767199707E1,2.102513313E-1,6.271402740E1
9.675141627E0,4.606472778E1,-1.202001762E1,6.404196167E1
9.691807564E0,4.114919281E1,-2.386966896E1,4.273973846E1
9.708473502E0,2.945061111E1,-2.924147224E1,1.497596169E1
9.725139439E0,1.566567421E1,-2.917380524E1,-2.411526680E0
9.741805377E0,4.504256725E0,-2.855205154E1,-7.155583382E0
9.758471314E0,-6.837310314E0,-3.052049637E1,-5.484796047E0
9.775137252E0,-2.119170570E1,-3.312367249E1,-3.659430265E0
9.791803189E0,-2.809857178E1,-3.453485107E1,-6.487662315E0
9.808469127E0,-2.069798470E1,-4.222388077E1,-9.635455132E0
9.825135064E0,-1.300785732E1,-4.606357574E1,-5.988588810E0
9.841801002E0,-9.765886307E0,-4.593779755E1,-3.657167912E0
9.858466939E0,-5.860989571E0,-4.409886932E1,-5.175689220E0
9.875132877E0,-8.419094086E-1,-4.181965256E1,-6.728414059E0
9.891798814E0,-2.448525429E-1,-3.975173569E1,-9.041223526E0
9.908464752E0,-1.310554504E0,-3.850180817E1,-1.066510582E1
9.925130689E0,3.374597549E0,-3.970492554E1,-6.059435368E0
9.941796627E0,1.811183167E1,-4.174880219E1,4.601581573E0
9.958462564E0,3.510737991E1,-4.122050476E1,1.469286728E1
9.975128502E0,4.390895844E1,-3.608917999E1,1.834748077E1
9.991794439E0,4.113317108E1,-2.993572807E1,1.785918045E1
1.000846038E1,3.535941696E1,-2.713512611E1,2.733734512E1
1.002512631E1,3.661428452E1,-2.481035423E1,4.408448029E1
1.004179225E1,4.004198456E1,-1.773219681E1,4.848042679E1
1.005845819E1,4.102272034E1,-7.155873775E0,4.072776794E1
1.007512413E1,4.092821121E1,2.886805534E0,3.623533249E1
1.009179006E1,3.612623215E1,9.738788605E0,3.772851562E1
1.010845600E1,2.431038475E1,1.487845802E1,3.620570755E1
1.012512194E1,1.134454250E1,2.024234581E1,3.191496468E1
1.014178788E1,9.863615036E-2,2.576349640E1,2.686619949E1
1.015845381E1,-4.973962784E0,2.949654388E1,2.586135674E1
1.017511975E1,-6.099074841E0,3.098321342E1,2.742397118E1
1.019178569E1,-5.457729340E0,2.930497742E1,2.724394608E1
1.020845163E1,-5.135045052E0,2.651211357E1,2.210327530E1
1.022511756E1,-5.141825676E0,2.353230858E1,1.401491547E1
1.024178350E1,-2.793495178E0,2.163246536E1,9.363579750E0
1.025844944E1,1.942581177E0,1.977633667E1,7.478772640E0
1.027511538E1,7.660930634E0,1.668066597E1,8.476480484E0
1.029178131E1,1.445191193E1,1.171485043E1,1.328675747E1
1.030844725E1,1.838008690E1,7.945225716E0,1.944639969E1
1.032511319E1,2.336997604E1,4.852698326E0,2.584480286E1
1.034177913E1,3.851991272E1,-3.046582222E0,3.275559235E1
1.035844506E1,5.154672241E1,-1.608313942E1,3.565640259E1
1.037511100E1,4.987227249E1,-2.787978745E1,2.852935219E1
1.039177694E1,3.858589554E1,-3.498808289E1,1.383822536E1
1.040844288E1,2.490545082E1,-3.347590256E1,1.349410534E0
1.042510881E1,1.114633656E1,-2.987554741E1,-3.693296432E0
1.044177475E1,1.675272465E0,-2.756300354E1,-3.302174091E0
1.045844069E1,-4.150295258E0,-2.768293381E1,-1.609369516E0
1.047510663E1,-9.163830757E0,-2.843421555E1,-1.248748302E0
1.049177256E1,-1.233502960E1,-2.867150497E1,-4.839133739E0
1.050843850E1,-1.451450157E1,-2.826985168E1,-9.416859627E0
1.052510444E1,-1.629133797E1,-2.801187515E1,-1.155315971E1
1.054177038E1,-1.888941956E1,-2.746246147E1,-1.044896221E1
1.055843631E1,-2.219205666E1,-2.643824387E1,-8.610640526E0
1.057510225E1,-2.238919449E1,-2.679580307E1,-6.419387817E0
1.059176819E1,-1.751812363E1,-2.838758278E1,-4.906690598E0
1.060843413E1,-1.130054951E1,-2.965921211E1,-4.366981030E0
1.062510006E1,-6.567270756E0,-2.961011696E1,-4.375383377E0
1.064176600E1,-3.012587070E0,-2.950335884E1,-5.438139439E0
1.065843194E1,2.357823372E0,-2.901782990E1,-7.938055992E0
1.067509788E1,1.099509907E1,-2.948160362E1,-9.506598473E0
1.069176381E1,1.863759613E1,-2.980103493E1,-4.627589703E0
1.070842975E1,3.084771347E1,-2.852062988E1,7.184460163E0
1.072509569E1,5.099280548E1,-2.807259369E1,2.282826805E1
1.074176163E1,6.014677811E1,-2.214052582E1,3.355024338E1
1.075842756E1,4.895731354E1,-9.953603745E0,3.195661163E1
1.077509350E1,2.962571335E1,1.422055006E0,2.325874901E1
1.079175944E1,1.676650620E1,8.395716667E0,1.923735046E1
1.080842538E1,1.149934387E1,1.120312881E1,1.795289421E1
1.082509131E1,5.662525177E0,1.376822662E1,1.493489933E1
1.084175725E1,-5.628681183E-2,1.733504486E1,1.204378986E1
1.085842319E1,-3.252917767E0,2.021361542E1,1.121818542E1
1.087508913E1,-6.711273193E0,2.272598648E1,1.128393459E1
1.089175506E1,-1.051319122E1,2.382463455E1,1.094991016E1
1.090842100E1,-1.351467896E1,2.422975540E1,1.223275280E1
1.092508694E1,-1.279623985E1,2.244076538E1,1.601020622E1
1.094175288E1,-6.222097397E0,1.853283691E1,1.911052322E1
1.095841881E1,3.807625771E0,1.394652271E1,1.810058594E1
1.097508475E1,8.431462288E0,1.054252720E1,1.332920933E1
1.099175069E1,8.048427582E0,8.643963814E0,1.425084496E1
1.100841663E1,1.336536026E1,5.028526306E0,2.330479813E1
1.102508256E1,2.641968536E1,-2.401025295E0,3.431686020E1
1.104174850E1,3.960214996E1,-1.304469967E1,3.851496887E1
1.105841444E1,4.382212830E1,-2.252725601E1,3.348924255E1
1.107508038E1,3.997536850E1,-2.925781631E1,2.431863403E1
1.109174631E1,2.914921951E1,-3.283706665E1,1.486112595E1
1.110841225E1,1.435922623E1,-3.006846237E1,5.039211273E0
1.112507819E1,3.144907951E0,-2.608342361E1,-6.303069592E-1
1.114174413E1,-2.143843174E0,-2.609849548E1,-1.292232513E0
1.115841006E1,-4.657947063E0,-2.926997375E1,-1.372033119E0
1.117507600E1,-9.823177338E0,-3.216786957E1,-2.115690708E0
1.119174194E1,-1.663348198E1,-3.251977158E1,-3.863985777E0
1.120840788E1,-1.933942413E1,-3.319113922E1,-6.297945976E0
1.122507381E1,-1.866105270E1,-3.321417236E1,-7.489313126E0
1.124173975E1,-1.869701576E1,-3.237013626E1,-7.226074696E0
1.125840569E1,-1.779132271E1,-3.294897842E1,-5.519221306E0
1.127507163E1,-1.265216351E1,-3.533306122E1,-2.545520306E0
1.129173756E1,-5.735522747E0,-3.678793335E1,-6.706043482E-1
1.130840350E1,-7.756161690E-1,-3.580731583E1,-3.567822933E0
1.132506944E1,2.884761810E0,-3.490152359E1,-9.761360168E0
1.134173538E1,9.598752975E0,-3.644968414E1,-1.022508717E1
1.135840131E1,1.918836975E1,-3.791143799E1,-1.181521177E0
1.137506725E1,3.026767540E1,-3.616751480E1,1.214460945E1
1.139173319E1,4.860448837E1,-3.428470230E1,2.400602722E1
1.140839913E1,6.150427628E1,-2.842109871E1,3.166954994E1
1.142506506E1,5.695580673E1,-1.685614395E1,3.356766891E1
1.144173100E1,3.838650513E1,-4.050146103E0,2.859476280E1
1.145839694E1,2.237691879E1,5.323656082E0,2.333188820E1
1.147506288E1,1.663329506E1,9.447374344E0,2.308977318E1
1.149172881E1,1.257117176E1,1.131691933E1,2.224114418E1
1.150839475E1,5.930358887E0,1.384781265E1,1.832865143E1
1.152506069E1,-1.475774765E0,1.750715065E1,1.353570747E1
1.154172663E1,-6.832292557E0,2.160064697E1,1.018947887E1
1.155839256E1,-1.018176937E1,2.541459084E1,8.878068924E0
1.157505850E1,-1.284705544E1,2.762681198E1,8.913714409E0
1.159172444E1,-1.361055374E1,2.737846184E1,1.024072838E1
1.160839038E1,-1.070882988E1,2.476874542E1,1.181139469E1
1.162505631E1,-5.503240585E0,2.095682526E1,1.175541973E1
1.164172225E1,-2.046319485E0,1.837393188E1,1.006164169E1
1.165838819E1,-6.159248352E-1,1.604544067E1,9.264612198E0
1.167505413E1,2.118317604E0,1.321039391E1,1.249932861E1
1.169172006E1,9.538150787E0,9.266464233E0,1.850264740E1
1.170838600E1,1.948431969E1,4.079325676E0,2.618066216E1
1.172505194E1,3.100292206E1,-3.405855179E0,3.533553696E1
1.174171788E1,4.326565552E1,-1.371594048E1,4.304025269E1
1.175838381E1,4.906240463E1,-2.586036682E1,3.902787018E1
1.177504975E1,4.316532898E1,-3.290179062E1,2.303351021E1
1.179171569E1,2.866818047E1,-3.391757202E1,1.138670921E1
1.180838163E1,1.239455032E1,-3.087232971E1,5.269883633E0
1.182504756E1,1.206468582E0,-2.788970566E1,3.239860535E0
1.184171350E1,-3.317726135E0,-2.779323578E1,1.756193161E0
1.185837944E1,-5.713268757E0,-2.987295532E1,1.816353798E-1
1.187504538E1,-9.264301300E0,-3.266543198E1,-1.598754883E0
1.189171131E1,-1.435513687E1,-3.375814056E1,-4.365778923E0
1.190837725E1,-2.050853348E1,-3.363318634E1,-7.336760521E0
1.192504319E1,-2.646624756E1,-3.325672531E1,-8.936939240E0
1.194170913E1,-2.979495811E1,-3.382274246E1,-7.458316326E0
1.195837506E1,-2.594559860E1,-3.658386993E1,-3.536792278E0
1.197504100E1,-1.580675507E1,-3.970703125E1,-1.148889542E0
1.199170694E1,-7.918328285E0,-4.009180832E1,-3.114340305E0
1.200837288E1,-2.144055843E0,-3.947624588E1,-7.980270863E0
1.202503881E1,5.219933510E0,-3.999871826E1,-1.052224636E1
1.204170475E1,1.289147568E1,-4.142473984E1,-6.322973728E0
1.205837069E1,1.768961716E1,-4.219920349E1,-2.896460295E-1
1.207503663E1,2.604678154E1,-4.265914154E1,1.069975758E1
1.209170256E1,4.457718658E1,-4.476457596E1,2.812327003E1
1.210836850E1,5.550545883E1,-3.693093491E1,4.025490189E1
1.212503444E1,5.164429855E1,-2.315492439E1,3.479910660E1
1.214170038E1,3.837190628E1,-7.490297794E0,2.280778694E1
1.215836631E1,2.638807297E1,1.265699863E0,1.640818405E1
1.217503225E1,1.933596611E1,3.718944073E0,1.627048111E1
1.219169819E1,1.195325089E1,6.669259071E0,1.563773060E1
1.220836413E1,6.576094627E0,1.233071136E1,1.402585506E1
1.222503006E1,6.333053589E0,1.859495926E1,1.424285316E1
1.224169600E1,7.543015480E0,2.340394974E1,1.343848515E1
1.225836194E1,8.686386108E0,2.850625229E1,9.225547791E0
1.227502788E1,1.133906555E1,3.042740059E1,7.070295811E0
1.229169381E1,1.217644501E1,2.589612389E1,1.210319519E1
1.230835975E1,1.147641945E1,1.673996162E1,1.968596268E1
1.232502569E1,9.148232460E0,7.623948097E0,2.147001648E1
1.234169163E1,9.758282661E0,2.885934114E-1,1.793458557E1
1.235835756E1,1.097104549E1,-9.429636002E0,1.444332790E1
1.237502350E1,7.919842720E0,-2.064837456E1,1.125321579E1
1.239168944E1,2.246948242E0,-2.509703827E1,9.074771881E0
1.240835538E1,-1.804520130E0,-2.929128265E1,1.569355583E1
1.242502131E1,1.473583221E0,-3.686996078E1,2.157576752E1
1.244168725E1,7.126792908E0,-4.297272110E1,1.152132130E1
1.245835319E1,6.134759903E0,-4.495854950E1,-8.408453941E0
1.247501913E1,2.755849838E0,-4.028365707E1,-2.673552132E1
1.249168506E1,-4.096768379E0,-3.453511429E1,-2.870299530E1
1.250835100E1,-8.630770683E0,-3.109343338E1,-1.749009323E1
1.252501694E1,-7.971609116E0,-2.450689316E1,-1.305542564E1
1.254168288E1,-7.167391300E0,-1.760857582E1,-2.224992371E1
1.255834881E1,-6.227889538E0,-1.320356560E1,-2.874871826E1
1.257501475E1,-4.193444729E0,-9.964755058E0,-2.512986183E1
1.259168069E1,-3.689856529E-1,-6.482356548E0,-1.687504196E1
1.260834663E1,4.678401470E0,-4.496475697E0,-1.373804474E1
1.262501256E1,9.754026413E0,-2.357409239E0,-9.313951492E0
1.264167850E1,1.283752537E1,-3.568572998E0,7.756249905E0
1.265834444E1,1.383524323E1,-3.650706530E0,2.665898323E1
1.267501038E1,1.278323746E1,1.743417978E0,3.166539383E1
1.269167631E1,1.159739017E1,8.174243927E0,1.887320900E1
1.270834225E1,1.392650032E1,1.477476978E1,5.039761543E0
1.272500819E1,1.989392853E1,1.679088402E1,-3.958194256E0
1.274167413E1,2.339756393E1,1.370399666E1,-8.956209183E0
1.275834006E1,1.960324860E1,6.024599075E0,-8.120347023E0
1.277500600E1,1.338433075E1,-6.085956097E0,-6.946783066E-1
1.279167194E1,1.004557610E1,-1.714308548E1,9.149415970E0
1.280833788E1,6.369757652E0,-2.435759544E1,1.239032364E1
1.282500381E1,1.437799454E0,-2.536538315E1,9.791131020E0
1.284166975E1,-3.684305668E0,-2.298721886E1,5.950079918E0
1.285833569E1,-8.412011147E0,-1.755564499E1,5.396417141E0
1.287500163E1,-6.622202873E0,-1.279634285E1,5.038772583E0
1.289166756E1,5.470523834E-1,-1.274318886E1,2.948479652E-1
1.290833350E1,1.220861435E0,-8.174695969E0,-1.412446880E1
1.292499944E1,-1.602554512E1,-1.002571344E0,-3.948147583E1
1.294166538E1,-3.370772934E1,2.172899723E0,-5.189350510E1
1.295833131E1,-3.595729828E1,5.026416779E0,-6.097998428E1
1.297499725E1,-2.441676712E1,1.092082500E1,-4.971882248E1
1.299166319E1,-1.776028061E1,1.794963646E1,-1.121078587E1
1.300832913E1,-8.071404457E0,1.262966347E1,3.762975693E1
1.302499506E1,1.762971878E-1,8.464685440E0,6.408055115E1
1.304166100E1,1.289251423E1,4.009531975E0,5.349474716E1
1.305832694E1,2.655641556E1,-8.016866446E-1,4.224821091E1
1.307499288E1,2.900033951E1,-3.520222425E0,3.488426590E1
1.309165881E1,2.543961906E1,-4.911657333E0,2.204641914E1
1.310832475E1,1.923835373E1,-5.569065094E0,1.241887093E1
1.312499069E1,1.474976349E1,-4.904240131E0,5.601776600E0
1.314165663E1,1.172819901E1,-3.987126350E0,1.546432018E0
1.315832256E1,1.085693359E1,-3.675090790E0,-2.073249340E0
1.317498850E1,1.017899513E1,-4.635991096E0,-1.301591396E0
1.319165444E1,9.890720367E0,-6.755190372E0,4.397695065E0
1.320832038E1,1.113315010E1,-9.911788940E0,1.090931797E1
1.322498631E1,1.511597252E1,-1.271421814E1,1.357500458E1
1.324165225E1,1.691362953E1,-1.461680794E1,1.133004761E1
1.325831819E1,1.478341866E1,-1.514223671E1,5.733058929E0
1.327498413E1,1.443796158E1,-1.511862373E1,8.723464012E-1
1.329165006E1,1.783356285E1,-1.570656204E1,-2.895136595E0
1.330831600E1,2.075532341E1,-1.711339569E1,-5.807066441E0
1.332498194E1,2.213869286E1,-1.956379509E1,-6.563228607E0
1.334164788E1,2.386540794E1,-2.176442337E1,-3.978030920E0
1.335831381E1,2.753651237E1,-2.134720993E1,-2.572659969E0
1.337497975E1,2.860334969E1,-2.001437569E1,-1.667107105E0
1.339164569E1,2.361611557E1,-1.817685699E1,2.732176781E0
1.340831163E1,1.825825500E1,-1.401276398E1,4.823529720E0
1.342497756E1,1.560902309E1,-7.900922298E0,1.059554100E0
1.344164350E1,1.338902378E1,-9.587097168E-1,-4.032935143E0
1.345830944E1,1.019713974E1,4.717128754E0,-6.313099861E0
1.347497538E1,7.950220585E0,7.245587349E0,-4.092840195E0
1.349164131E1,3.440807819E0,6.709714413E0,2.707252502E0
1.350830725E1,-1.571762085E0,4.673816681E0,1.234157276E1
1.352497319E1,-4.406876564E0,3.104346275E0,2.126928329E1
1.354163913E1,-2.969048500E0,4.213906288E0,2.495658875E1
1.355830506E1,-1.222119808E0,8.125471115E0,2.193095589E1
1.357497100E1,-2.607383728E-1,1.168092728E1,1.494066048E1
1.359163694E1,9.494733810E-2,1.409940910E1,8.046245575E0
1.360830288E1,-2.384381294E0,1.691601944E1,4.275547028E0
1.362496881E1,-4.264068604E0,1.891433334E1,8.058378220E0
1.364163475E1,-2.041005611E0,1.921497536E1,1.312872887E1
1.365830069E1,1.106286049E0,1.598541832E1,9.320970535E0
1.367496663E1,7.594966888E-1,1.094175625E1,6.546468735E-1
1.369163256E1,-2.868693352E0,5.178871155E0,-4.053881168E0
1.370829850E1,-5.649641991E0,-1.715167761E-1,-1.893839121E0
1.372496444E1,-4.763490677E0,-1.409647346E0,2.523307323E0
1.374163038E1,1.974611759E0,-2.005443573E-1,5.466660976E0
1.375829631E1,1.070941448E1,-1.378750801E0,5.087068558E0
1.377496225E1,1.241492653E1,1.896427155E0,5.023188114E0
1.379162819E1,1.043664742E1,4.545212269E0,5.059046268E0
1.380829413E1,6.498514175E0,4.929285526E0,6.666164875E0
1.382496006E1,-9.375884533E-1,3.891693115E0,5.943324089E0
1.384162600E1,-9.568658829E0,1.737920761E0,-2.899878025E-1
1.385829194E1,-1.775889206E1,-1.122578144E0,-5.843404770E0
1.387495788E1,-2.393523407E1,-6.253314018E0,-8.966842651E0
1.389162381E1,-2.088508987E1,-1.548886299E1,-1.578816223E1
1.390828975E1,-7.528779507E0,-2.587719727E1,-2.444894981E1
1.392495569E1,1.215580463E0,-3.655158234E1,-2.301353073E1
1.394162163E1,3.215272427E0,-4.536454391E1,-1.292944622E1
1.395828756E1,1.374329090E0,-4.962467194E1,1.911933422E-1
1.397495350E1,9.339786530E0,-5.115296936E1,7.601790428E0
1.399161944E1,1.598981667E1,-4.630803680E1,6.685826302E0
1.400828538E1,7.063524246E0,-3.912926102E1,-1.759440422E0
1.402495131E1,1.908449650E0,-3.515501404E1,-3.636291265E0
1.404161725E1,5.737217426E0,-3.393907547E1,3.594513416E0
1.405828319E1,1.704255867E1,-3.715033722E1,1.419201469E1
1.407494913E1,3.035925484E1,-3.788043976E1,2.434287453E1
1.409161506E1,3.830371857E1,-3.285675430E1,3.257962036E1
1.410828100E1,4.184454346E1,-2.657000732E1,4.752377701E1
1.412494694E1,3.913635254E1,-1.709845924E1,5.780807114E1
1.414161288E1,3.225643539E1,-4.212687016E0,5.094203568E1
1.415827881E1,2.771981812E1,8.607881546E0,4.076868057E1
1.417494475E1,2.086266708E1,1.655045509E1,3.633272552E1
1.419161069E1,7.193529606E0,2.321350479E1,3.505346680E1
1.420827663E1,-5.376737595E0,2.914548874E1,3.586626816E1
1.422494256E1,-1.061617374E1,3.393782806E1,3.639875031E1
1.424160850E1,-1.431124687E1,3.245440292E1,3.420928955E1
1.425827444E1,-1.936442947E1,3.052447701E1,2.749107742E1
1.427494038E1,-1.651944351E1,2.658662987E1,2.149492264E1
1.429160631E1,-8.703717232E0,2.125309372E1,1.497531891E1
1.430827225E1,-5.834793091E0,1.831739616E1,9.699521065E0
1.432493819E1,-1.705506802E0,1.720634460E1,5.958363533E0
1.434160413E1,6.916621208E0,1.609148026E1,1.120654774E1
1.435827006E1,1.871096420E1,1.476780891E1,2.427905655E1
1.437493600E1,3.284325409E1,1.290825939E1,3.595735550E1
1.439160194E1,4.940463638E1,5.435216427E0,4.617566681E1
1.440826788E1,6.012021637E1,-1.138606262E1,5.371620941E1
1.442493381E1,5.733652115E1,-2.968832397E1,4.535339355E1
1.444159975E1,4.459361267E1,-3.985700607E1,2.584258270E1
1.445826569E1,2.965074158E1,-4.299669266E1,8.702291489E0
1.447493163E1,1.305196762E1,-4.608821487E1,-1.005420113E1
1.449159756E1,-1.051483250E1,-4.431723785E1,-1.351030445E1
1.450826350E1,-2.038544273E1,-4.591403198E1,-9.145050049E0
1.452492944E1,-2.488657570E1,-5.054049301E1,-7.987100124E0
1.454159538E1,-2.462365150E1,-5.123857880E1,-1.283575916E1
1.455826131E1,-1.827421951E1,-5.071883392E1,-1.472942924E1
1.457492725E1,-9.062720299E0,-5.172025681E1,-1.035979652E1
1.459159319E1,-1.016549683E1,-4.981349945E1,-8.707530022E0
1.460825913E1,-8.587520599E0,-4.952535629E1,-8.481531143E0
1.462492506E1,6.158223152E0,-5.189049911E1,-4.220303059E0
1.464159100E1,2.303460884E1,-5.005410004E1,2.463659525E0
1.465825694E1,3.071137619E1,-4.465511322E1,8.523935318E0
1.467492288E1,4.188942719E1,-3.976863098E1,1.659337044E1
1.469158881E1,5.763654327E1,-3.301365280E1,2.329021072E1
1.470825475E1,5.648132706E1,-2.385433578E1,2.133729744E1
1.472492069E1,4.566617203E1,-1.576716995E1,1.882794380E1
1.474158663E1,4.352962875E1,-1.235472107E1,2.438357544E1
1.475825256E1,4.197387695E1,-6.749768734E0,3.088508415E1
1.477491850E1,3.244408798E1,2.102363586E0,2.973593140E1
1.479158444E1,2.227566147E1,1.012751865E1,2.676102638E1
1.480825038E1,1.821462440E1,1.509224319E1,2.639208412E1
1.482491631E1,1.299354839E1,1.962101936E1,2.611762619E1
1.484158225E1,3.316183567E0,2.570286179E1,2.573178482E1
1.485824819E1,-3.756383181E0,3.104573631E1,2.599071693E1
1.487491413E1,-7.067380905E0,3.391964722E1,2.341873932E1
1.489158006E1,-9.382477760E0,3.552427673E1,1.633785248E1
1.490824600E1,-8.173618317E0,3.528406143E1,9.280063629E0
1.492491194E1,-2.163916111E0,3.120192719E1,7.741728783E0
1.494157788E1,5.539937019E0,2.485750198E1,1.358218002E1
1.495824381E1,1.139248848E1,1.801728058E1,2.158714294E1
1.497490975E1,1.697843170E1,1.197795677E1,2.606917191E1
1.499157569E1,2.284072113E1,6.571155071E0,2.638840866E1
1.500824163E1,2.980990219E1,-5.966657400E-2,3.179813385E1
1.502490756E1,4.207690430E1,-1.258884239E1,4.412953186E1
1.504157350E1,5.314957809E1,-2.796113396E1,4.924670410E1
1.505823944E1,5.776329803E1,-4.123141479E1,4.014944839E1
1.507490538E1,4.851837921E1,-4.850817490E1,2.373953056E1
1.509157131E1,3.339916992E1,-4.943912506E1,1.362773037E1
1.510823725E1,1.668908691E1,-4.494493103E1,5.823592186E0
1.512490319E1,3.068894863E0,-4.038172531E1,1.700508952E0
1.514156913E1,-5.482103348E0,-4.015512466E1,2.525784254E0
1.515823506E1,-1.094995308E1,-4.351230240E1,3.703292847E0
1.517490100E1,-1.707146072E1,-4.429747772E1,-3.632009029E-2
1.519156694E1,-2.514266586E1,-4.278832626E1,-8.230703354E0
1.520823288E1,-3.101267624E1,-4.017265320E1,-1.273931599E1
1.522489881E1,-3.206552124E1,-3.779872131E1,-1.451974678E1
1.524156475E1,-2.720651245E1,-3.743122101E1,-1.374526119E1
1.525823069E1,-1.620977783E1,-4.081645966E1,-8.786172867E0
1.527489663E1,-4.472491264E0,-4.239172363E1,-3.770870686E0
1.529156256E1,3.637005806E0,-4.252476883E1,-3.452515125E0
1.530822850E1,1.223312855E1,-4.166064835E1,-1.942487001E0
1.532489444E1,2.667677879E1,-3.975186539E1,7.000916958E0
1.534156038E1,4.422058868E1,-3.634188843E1,1.832793617E1
1.535822631E1,5.374140167E1,-2.769211578E1,2.421173859E1
1.537489225E1,5.159457016E1,-1.867671394E1,2.560331154E1
1.539155819E1,4.398431396E1,-1.054769039E1,2.505137062E1
1.540822413E1,3.257825089E1,-3.319921017E0,2.290032578E1
1.542489006E1,1.886863708E1,2.595052242E0,1.823017502E1
1.544155600E1,1.248725796E1,5.361724854E0,1.742237091E1
1.545822194E1,1.036445141E1,6.895879745E0,1.818432808E1
1.547488788E1,5.890016556E0,7.459061623E0,1.659184456E1
1.549155381E1,-1.347694874E0,9.432776451E0,1.331632137E1
1.550821975E1,-8.471358299E0,1.254694366E1,1.243939877E1
1.552488569E1,-1.485417747E1,1.810101891E1,1.566455650E1
1.554155163E1,-1.881607437E1,2.504584694E1,1.873871613E1
1.555821756E1,-1.889589691E1,3.095515442E1,2.086053848E1
1.557488350E1,-1.429387093E1,3.142136574E1,2.252435875E1
1.559154944E1,-8.869256020E0,2.814217567E1,2.209518242E1
1.560821538E1,-6.104931831E0,2.322573853E1,1.871395493E1
1.562488131E1,-4.464861393E0,1.727280235E1,1.781290436E1
1.564154725E1,2.815923691E0,1.059564877E1,2.390718842E1
1.565821319E1,1.686103439E1,1.444955230E0,3.243883133E1
1.567487913E1,2.975418091E1,-9.024658203E0,3.733429718E1
1.569154506E1,4.241368103E1,-2.522614098E1,3.964199066E1
1.570821100E1,5.180677032E1,-3.722999191E1,3.535854721E1
1.572487694E1,4.413131714E1,-4.024403381E1,1.910721588E1
1.574154288E1,2.628713608E1,-3.912001038E1,4.426038265E0
1.575820881E1,9.616320610E0,-3.532593536E1,-1.423733234E-1
1.577487475E1,-4.022521973E-1,-3.491333008E1,-2.269010544E-1
1.579154069E1,-6.425192833E0,-3.721675873E1,-4.782938957E0
1.580820663E1,-1.365614319E1,-3.773657990E1,-1.607032394E1
1.582487256E1,-2.986243439E1,-3.373306656E1,-2.747313690E1
1.584153850E1,-4.033753204E1,-3.232575989E1,-3.230193710E1
1.585820444E1,-3.864897156E1,-3.322518539E1,-2.925774193E1
1.587487038E1,-2.616405296E1,-3.658340454E1,-2.366759682E1
1.589153631E1,-1.067556095E1,-3.879114532E1,-1.771336174E1
1.590820225E1,2.755909443E0,-3.798673630E1,-1.115131378E1
1.592486819E1,1.637789536E1,-3.299763489E1,-3.105299950E0
1.594153413E1,3.678195572E1,-2.404956627E1,6.048896790E0
1.595820006E1,5.341723633E1,-1.394707680E1,9.213202477E0
1.597486600E1,5.847726440E1,-7.318082809E0,6.489561081E0
1.599153194E1,5.286058044E1,-5.623770714E0,1.357767773E1
1.600819788E1,3.455673599E1,-1.225939989E-1,3.107435608E1
1.602486381E1,1.874985123E1,8.614500999E0,3.401803207E1
1.604152975E1,6.471288681E0,1.608016777E1,1.751508331E1
1.605819569E1,6.356410980E-1,2.037916183E1,3.067473412E0
1.607486163E1,-9.017829895E-1,1.862492180E1,1.153526783E1
1.609152756E1,-3.758912563E0,1.288984680E1,2.627141953E1
1.610819350E1,-9.459275246E0,9.492218018E0,2.940045547E1
1.612485944E1,-1.230419636E1,7.623966217E0,2.271601105E1
1.614152538E1,-1.122188759E1,5.653491497E0,1.690053368E1
1.615819131E1,-7.184504032E0,1.677728653E0,1.278680325E1
1.617485725E1,-2.738547802E0,-3.120434284E0,1.152198410E1
1.619152319E1,2.428775311E0,-1.085375023E1,1.544087410E1
1.620818913E1,1.040963268E1,-1.957752228E1,1.975640678E1
1.622485506E1,1.609024620E1,-2.609088516E1,1.847048950E1
1.624152100E1,1.264491272E1,-2.947649384E1,1.314713573E1
1.625818694E1,2.865785122E0,-2.799724197E1,7.931087494E0
1.627485288E1,-6.330138206E0,-2.291323471E1,3.357274532E0
1.629151881E1,-1.178848457E1,-1.870531845E1,-1.791319013E0
1.630818475E1,-9.824245453E0,-1.325377464E1,-5.641739368E0
1.632485069E1,-5.435735703E0,-8.786136627E0,-1.118702698E1
1.634151663E1,-3.343528748E0,-3.764494896E0,-2.083348274E1
1.635818256E1,-4.115164280E0,4.508401394E0,-2.391528702E1
1.637484850E1,-5.266477108E0,6.195726395E0,-1.860496902E1
1.639151444E1,2.945847511E-1,3.278042793E0,-3.644417286E0
1.640818038E1,9.724641800E0,-2.684297562E-1,6.510151386E0
1.642484631E1,1.701347351E1,-1.496757984E0,5.610924721E0
1.644151225E1,1.462990093E1,-5.940546989E-1,2.902621269E0
1.645817819E1,7.083192348E0,1.633486748E0,4.950904369E0
1.647484413E1,1.510474682E0,3.352939129E0,7.338702679E0
1.649151006E1,8.335824013E-1,2.683860779E0,5.346982002E0
1.650817600E1,3.010301590E-1,-6.217060089E-1,3.527888298E0
1.652484194E1,-7.256193161E-1,-4.168272972E0,1.372017145E0
1.654150788E1,5.210890770E-1,-6.706365585E0,-1.648321629E0
1.655817381E1,3.009594440E0,-7.001113892E0,-3.750208318E-1
1.657483975E1,1.226388931E0,-7.120892525E0,6.468436718E-1
1.659150569E1,-9.460067749E-1,-7.998350143E0,2.052093267E0
1.660817163E1,-7.047266960E-1,-8.947488785E0,5.107877731E0
1.662483756E1,1.403541565E-1,-8.862505913E0,5.427350521E0
1.664150350E1,3.955892563E0,-9.771746635E0,3.404181480E0
1.665816944E1,8.886297226E0,-1.102371883E1,4.125788689E0
1.667483538E1,1.090476990E1,-1.192461395E1,5.787669659E0
1.669150131E1,1.217120171E1,-1.275870228E1,4.278257370E0
1.670816725E1,1.487990475E1,-1.397256565E1,6.789517403E-1
1.672483319E1,2.084395218E1,-1.705581093E1,1.900399923E0
1.674149913E1,2.087479782E1,-1.958568001E1,6.287694454E0
1.675816506E1,1.596856880E1,-1.914147186E1,4.734325886E0
1.677483100E1,1.078205204E1,-1.594058990E1,2.755631447E0
1.679149694E1,7.978273869E0,-1.259110641E1,2.061244965E0
1.680816288E1,7.031048298E0,-1.210190010E1,1.987483501E0
1.682482881E1,1.016489410E1,-1.336776161E1,2.922601700E0
1.684149475E1,1.502416897E1,-1.687650299E1,5.218829155E0
1.685816069E1,1.741888809E1,-2.008372116E1,7.715861320E0
1.687482663E1,1.634781265E1,-2.198436165E1,8.809057236E0
1.689149256E1,1.204578590E1,-2.235730934E1,1.199391365E1
1.690815850E1,8.250514984E0,-2.339878654E1,1.963376236E1
1.692482444E1,5.047961235E0,-2.399530602E1,2.867403412E1
1.694149038E1,3.055151463E0,-2.066671562E1,3.404887390E1
1.695815631E1,2.947267532E0,-1.551769829E1,3.184024811E1
1.697482225E1,6.536629677E0,-1.007987690E1,2.708409882E1
1.699148819E1,9.050221443E0,-5.756219864E0,2.383639526E1
1.700815413E1,6.659183025E0,2.312334299E0,2.220475769E1
1.702482006E1,3.900634289E0,1.359333801E1,2.088367081E1
1.704148600E1,6.929169655E0,2.197806931E1,1.337749767E1
1.705815194E1,6.535569191E0,2.400851631E1,4.068729401E0
1.707481788E1,-7.310347557E-1,2.280010223E1,8.734520912E0
1.709148381E1,-4.542359352E0,2.516742325E1,1.543250751E1
1.710814975E1,-2.132778168E-1,2.481512260E1,1.370605946E1
1.712481569E1,1.618234634E0,2.353629303E1,6.052643299E0
1.714148163E1,-7.831854820E-1,2.135808563E1,-4.039720535E0
1.715814756E1,-3.660005569E0,1.638883400E1,-9.484529495E0
1.717481350E1,-3.777054310E0,9.219359398E0,-4.720079422E0
1.719147944E1,8.771305084E-1,2.016133070E0,4.245341301E0
1.720814538E1,1.006990910E1,-1.531776905E0,1.097095871E1
1.722481131E1,1.884374809E1,-2.284861803E0,1.463887024E1
1.724147725E1,2.532491684E1,-2.762802362E0,1.893358612E1
1.725814319E1,2.841376495E1,-3.769407034E0,2.640951920E1
1.727480913E1,2.858496284E1,-5.266169071E0,2.795831871E1
1.729147506E1,2.500982285E1,-6.779372692E0,1.734372902E1
1.730814100E1,1.747486115E1,-9.508587837E0,2.234186649E0
1.732480694E1,3.564699173E0,-1.248228931E1,-1.275962639E1
1.734147288E1,-1.533698082E1,-1.211761379E1,-2.327278709E1
1.735813881E1,-2.956104660E1,-1.146447086E1,-2.454822540E1
1.737480475E1,-3.542453384E1,-1.552873611E1,-1.661272049E1
1.739147069E1,-3.205551147E1,-2.291600800E1,-9.079809189E0
1.740813663E1,-1.599316406E1,-3.027597237E1,-6.889448166E0
1.742480256E1,-7.228553772E0,-3.716640472E1,-6.104922295E0
1.744146850E1,7.644634247E-1,-4.146342850E1,-5.587623119E-1
1.745813444E1,1.037655258E1,-4.236632156E1,3.673929691E0
1.747480038E1,1.955248642E1,-4.050398636E1,6.038773060E0
1.749146631E1,1.558816528E1,-3.778701401E1,3.861672640E0
1.750813225E1,8.761441231E0,-3.865226746E1,3.815141201E0
1.752479819E1,6.653502464E0,-3.894438553E1,6.435667992E0
1.754146413E1,8.988082886E0,-3.862906265E1,1.189878559E1
1.755813006E1,1.822749519E1,-3.909756088E1,1.927497292E1
1.757479600E1,2.505009270E1,-3.572204971E1,2.160726166E1
1.759146194E1,2.621634293E1,-3.180980110E1,1.912606812E1
1.760812788E1,2.282539558E1,-3.104416656E1,2.592448807E1
1.762479381E1,3.044064903E1,-3.194130325E1,4.523556519E1
1.764145975E1,4.490194702E1,-2.758310890E1,5.503089142E1
1.765812569E1,5.112696457E1,-1.469600105E1,4.106944275E1
1.767479163E1,4.107380676E1,-5.441532135E-1,2.559653282E1
1.769145756E1,3.188664436E1,6.784173012E0,3.017395782E1
1.770812350E1,2.830711937E1,1.032494450E1,3.893591690E1
1.772478944E1,1.982355881E1,1.823926735E1,3.454974365E1
1.774145538E1,1.269290352E1,2.620480728E1,3.103223038E1
1.775812131E1,8.984947205E0,2.923466873E1,3.030789566E1
1.777478725E1,1.320991993E0,2.884301186E1,3.597307587E1
1.779145319E1,-3.259510279E0,2.967895889E1,4.052539444E1
1.780811913E1,-3.773097992E-1,2.778092384E1,3.392053986E1
1.782478506E1,2.589648724E0,2.468943405E1,2.007738686E1
1.784145100E1,1.664659023E0,2.262604523E1,7.106273174E0
1.785811694E1,9.796452522E-1,2.255412483E1,1.206933022E0
1.787478288E1,4.532318115E0,2.100210571E1,3.464417696E0
1.789144881E1,1.096905136E1,1.703937721E1,7.311915398E0
1.790811475E1,1.875877762E1,1.304635239E1,6.618797302E0
1.792478069E1,1.810253143E1,1.045772839E1,9.744580269E0
1.794144663E1,2.223801994E1,5.809790134E0,2.227685928E1
1.795811256E1,3.367768860E1,-5.635763168E0,3.345309067E1
1.797477850E1,4.155267715E1,-1.836139679E1,3.226444626E1
1.799144444E1,3.942898560E1,-2.700616264E1,2.320503426E1
1.800811038E1,3.457141113E1,-3.074413681E1,1.278520393E1
1.802477631E1,2.718137741E1,-3.000828743E1,2.935362816E0
1.804144225E1,1.518413925E1,-2.774705887E1,-3.137634754E0
1.805810819E1,3.559187412E0,-2.582389069E1,-5.046740055E0
1.807477413E1,-5.384318352E0,-2.412866592E1,-4.331683636E0
1.809144006E1,-1.037158585E1,-2.374756050E1,-4.610862732E0
1.810810600E1,-1.349726295E1,-2.314057922E1,-6.385018349E0
1.812477194E1,-1.458660507E1,-2.237353897E1,-7.402899265E0
1.814143788E1,-1.451908398E1,-2.203557014E1,-7.012774467E0
1.815810381E1,-1.297049904E1,-2.217329407E1,-5.435939312E0
1.817476975E1,-1.078477478E1,-2.260520172E1,-4.202049732E0
1.819143569E1,-9.437775612E0,-2.241197586E1,-4.390776634E0
1.820810163E1,-9.362946510E0,-2.183854485E1,-4.811911583E0
1.822476756E1,-7.816495419E0,-2.152346039E1,-4.032505035E0
1.824143350E1,-4.223131180E0,-2.099410629E1,-2.787580252E0
1.825809944E1,-9.174208641E-1,-2.031632805E1,-1.571255684E0
1.827476538E1,3.134956360E0,-1.858136940E1,-1.217010498E0
1.829143131E1,4.529777527E0,-1.639336395E1,-3.132952452E-1
1.830809725E1,5.571927071E0,-1.311952686E1,-8.796381950E-2
1.832476319E1,1.017354488E1,-1.176260376E1,1.895869374E0
1.834142913E1,2.053923798E1,-1.072403812E1,7.445958138E0
1.835809506E1,3.208443832E1,-1.024659157E1,1.479055405E1
1.837476100E1,3.474394989E1,-9.765053749E0,1.940774155E1
1.839142694E1,2.759374619E1,-5.541451931E0,1.939958191E1
1.840809288E1,1.964511490E1,-2.061414719E0,1.491706276E1
1.842475881E1,1.174994373E1,1.337267160E0,9.335098267E0
1.844142475E1,5.246078491E0,4.038227081E0,3.808618546E0
1.845809069E1,1.482857704E0,5.675062180E0,-8.366591930E-1
1.847475663E1,-6.735067368E-1,6.994786263E0,-3.897523165E0
1.849142256E1,-2.196856499E0,7.355251312E0,-5.088837624E0
1.850808850E1,-3.400894165E0,7.222520351E0,-4.111609936E0
1.852475444E1,-4.264298916E0,7.427839756E0,-1.593750000E0
1.854142038E1,-4.506763935E0,8.650358200E0,2.536144257E0
1.855808631E1,-6.462893486E0,1.146818447E1,5.984069347E0
1.857475225E1,-8.935938835E0,1.454237270E1,6.999662399E0
1.859141819E1,-1.106919003E1,1.691516685E1,8.254705429E0
1.860808413E1,-1.095825863E1,1.802125740E1,1.081207752E1
1.862475006E1,-7.018266678E0,1.655498886E1,1.330633354E1
1.864141600E1,-1.375529766E0,1.441233921E1,1.485872650E1
1.865808194E1,2.786461830E0,1.105577564E1,1.549148178E1
1.867474788E1,4.666026115E0,6.663276196E0,1.934218979E1
1.869141381E1,6.757125854E0,9.219433069E-1,2.362929916E1
1.870807975E1,9.020504951E0,-5.096291542E0,2.444722748E1
1.872474569E1,1.071447182E1,-1.046055412E1,2.180458450E1
1.874141163E1,1.664223099E1,-1.612976074E1,1.762305832E1
1.875807756E1,1.785343361E1,-1.668427277E1,1.408913136E1
1.877474350E1,1.364840698E1,-1.715550804E1,1.139773178E1
1.879140944E1,8.609710693E0,-1.819135857E1,9.504409790E0
1.880807538E1,4.726026535E0,-1.755327606E1,6.591568947E0
1.882474131E1,3.053318024E0,-1.547572708E1,1.781927586E0
1.884140725E1,2.251787663E0,-1.380788326E1,-2.128974438E0
1.885807319E1,1.163855076E0,-1.226443577E1,-4.529339314E0
1.887473913E1,2.452802658E-2,-1.129828072E1,-6.091237545E0
1.889140506E1,-1.083467484E0,-1.074002266E1,-7.081268311E0
1.890807100E1,-1.935971260E0,-1.122097492E1,-7.372386932E0
1.892473694E1,-2.129307747E0,-1.230440903E1,-6.696422100E0
1.894140288E1,-1.784321785E0,-1.372169113E1,-6.236706734E0
1.895806881E1,-1.743808270E0,-1.477077675E1,-6.172401905E0
1.897473475E1,-2.304924011E0,-1.517716312E1,-6.458819389E0
1.899140069E1,-2.574833393E0,-1.498549461E1,-8.050208092E0
1.900806663E1,-2.828431845E0,-1.431975937E1,-9.755386353E0
1.902473256E1,-3.792321444E0,-1.356932640E1,-1.027697849E1
1.904139850E1,-4.535270691E0,-1.322369099E1,-8.904510498E0
1.905806444E1,-3.930756569E0,-1.279860115E1,-5.248330593E0
1.907473038E1,-1.994768143E0,-1.074426651E1,-1.414566278E0
1.909139631E1,2.847776413E-1,-6.903475285E0,-6.149160862E-1
1.910806225E1,3.085185051E0,-3.164851427E0,-3.119533777E0
1.912472819E1,9.365036011E0,-1.726076365E0,-1.599317551E0
1.914139413E1,1.766585732E1,-3.527651548E0,6.993658066E0
1.915806006E1,2.228046989E1,-4.673605442E0,1.695358086E1
1.917472600E1,1.993913460E1,-3.934811592E0,2.416980553E1
1.919139194E1,1.642201805E1,-8.561614752E-1,2.486806488E1
1.920805788E1,1.343152237E1,2.497575998E0,1.863204193E1
1.922472381E1,8.532037735E0,5.566503048E0,8.780230522E0
1.924138975E1,3.525573254E0,7.981101513E0,-8.483500481E-1
1.925805569E1,1.550893784E-1,8.508436203E0,-5.744662285E0
1.927472163E1,-1.364239693E0,7.195482731E0,-5.402735233E0
1.929138756E1,-3.724021673E0,4.883984566E0,-3.979293585E0
1.930805350E1,-6.179065228E0,3.044445992E0,-1.858948708E0
1.932471944E1,-7.980085373E0,1.598134875E0,-3.473596573E-1
1.934138538E1,-9.235999107E0,1.236680984E0,-3.873772621E-1
1.935805131E1,-1.032241440E1,1.371300101E0,-8.917112350E-1
1.937471725E1,-1.173029613E1,1.976939201E0,-1.538314819E0
1.939138319E1,-1.303231621E1,2.865466833E0,-1.735788822E0
1.940804913E1,-1.346491718E1,3.349397182E0,-9.229044914E-1
1.942471506E1,-1.279856491E1,3.545692921E0,1.126194477E0
1.944138100E1,-1.055318069E1,3.479661703E0,2.908618927E0
1.945804694E1,-7.442281246E0,3.421988010E0,4.117172241E0
1.947471288E1,-4.226239204E0,3.949475288E0,5.860997200E0
1.949137881E1,-1.478296757E0,4.577559948E0,9.679229736E0
1.950804475E1,2.226396561E0,2.400966883E0,1.492697525E1
1.952471069E1,6.227341652E0,-7.543499470E-1,1.809633064E1
1.954137663E1,1.004867458E1,-3.507311344E0,1.688541031E1
1.955804256E1,1.091687393E1,-3.867713451E0,1.248590469E1
1.957470850E1,1.017986393E1,-3.840966463E0,9.135213852E0
1.959137444E1,8.513502121E0,-4.913970470E0,7.597346783E0
1.960804038E1,6.254645348E0,-6.207664490E0,5.689935207E0
1.962470631E1,3.828819275E0,-6.529809952E0,2.765472412E0
1.964137225E1,1.757564068E0,-6.105218410E0,-4.360532761E-2
1.965803819E1,-6.514358521E-2,-5.451482773E0,-2.083618879E0
1.967470413E1,-1.621404648E0,-5.198557854E0,-3.190096855E0
1.969137006E1,-2.553665161E0,-5.432669163E0,-3.648279428E0
1.970803600E1,-3.056479692E0,-5.849434853E0,-3.836021900E0
1.972470194E1,-3.328403950E0,-6.383493423E0,-4.040571690E0
1.974136788E1,-3.514021635E0,-6.695856094E0,-4.414202690E0
1.975803381E1,-3.123017311E0,-6.981814384E0,-5.132589817E0
1.977469975E1,-2.636442184E0,-7.335538864E0,-5.613265038E0
1.979136569E1,-2.237369061E0,-7.443583488E0,-5.521407127E0
1.980803163E1,-2.122595310E0,-7.442360878E0,-5.261100292E0
1.982469756E1,-1.813832283E0,-7.206584454E0,-5.134160042E0
1.984136350E1,-1.063483238E0,-6.953331947E0,-5.640580654E0
1.985802944E1,-2.214522362E-1,-6.261189461E0,-5.247181416E0
1.987469538E1,4.986753464E-1,-5.608825207E0,-4.327040195E0
1.989136131E1,1.528234005E0,-4.884051800E0,-3.522969484E0
1.990802725E1,2.038698673E0,-4.326272488E0,-3.385961771E0
1.992469319E1,2.051212311E0,-2.972065449E0,-2.474693060E0
1.994135913E1,2.528758049E0,-2.008461475E0,-1.169681549E-3
1.995802506E1,4.663020611E0,-1.970848560E0,5.203295708E0
1.997469100E1,7.482128143E0,-2.575370550E0,1.039111519E1
1.999135694E1,9.010519028E0,-3.795267105E0,1.428161335E1
2.000802288E1,8.909830093E0,-4.543553829E0,1.603054619E1
2.002468881E1,8.115879059E0,-3.839343071E0,1.444945526E1
2.004135475E1,6.502417088E0,-2.464631557E0,9.804082870E0
2.005802069E1,3.747829914E0,-7.590927482E-1,4.685972691E0
2.007468663E1,9.968938828E-1,8.982143402E-1,5.154829025E-1
2.009135256E1,-1.068737984E0,1.739611864E0,-1.678684711E0
2.010801850E1,-2.265326023E0,2.108713150E0,-2.283464909E0
2.012468444E1,-2.971988201E0,2.144899368E0,-2.230797291E0
2.014135038E1,-3.484337091E0,2.065516472E0,-1.942006588E0
2.015801631E1,-3.869220018E0,2.062512398E0,-1.706809521E0
2.017468225E1,-3.870967150E0,2.166531086E0,-1.865182400E0
2.019134819E1,-3.934973955E0,2.460241318E0,-1.898082733E0
2.020801413E1,-4.030066490E0,2.545002699E0,-1.739043236E0
2.022468006E1,-4.254456520E0,2.564409494E0,-1.135759354E0
2.024134600E1,-4.378545761E0,2.404008865E0,-2.174172401E-1
2.025801194E1,-4.656792641E0,2.149735212E0,7.694377899E-1
2.027467788E1,-5.130469799E0,1.906751513E0,1.362977505E0
2.029134381E1,-5.016139030E0,1.661122680E0,1.726895809E0
2.030800975E1,-4.655954838E0,2.026376247E0,2.164848804E0
2.032467569E1,-4.476977348E0,2.743330717E0,2.425836563E0
2.034134163E1,-3.737566471E0,2.444374084E0,3.021130562E0
2.035800756E1,-1.062160969E0,1.404591799E0,5.035510540E0
2.037467350E1,2.078978539E0,3.150862157E-1,7.400343895E0
2.039133944E1,3.686099052E0,-1.024148226E0,8.486525536E0
2.040800538E1,3.496405602E0,-1.865832806E0,7.838052750E0
2.042467131E1,1.677361488E0,-2.018104553E0,6.701060772E0
2.044133725E1,1.194190979E-1,-1.652933121E0,5.200170040E0
2.045800319E1,-2.147989273E-1,-1.250159502E0,4.001216888E0
2.047466913E1,-1.632308960E-2,-1.131537318E0,3.213582993E0
2.049133506E1,-2.916417122E-1,-1.148996353E0,2.897408962E0
2.050800100E1,-8.505992889E-1,-1.164260268E0,2.404115200E0
2.052466694E1,-1.507932663E0,-1.056881666E0,1.697477818E0
2.054133288E1,-2.068325043E0,-1.094581842E0,1.406191349E0
2.055799881E1,-2.484437466E0,-1.285135508E0,1.363190651E0
2.057466475E1,-2.518118382E0,-1.450685978E0,1.032814026E0
2.059133069E1,-2.581065178E0,-1.521042943E0,4.020857811E-1
2.060799663E1,-2.821148157E0,-1.529531360E0,-2.653164864E-1
2.062466256E1,-3.322717667E0,-1.448239565E0,-6.364641190E-1
2.064132850E1,-3.585463285E0,-1.510041714E0,-4.255113602E-1
2.065799444E1,-3.358469725E0,-1.719443679E0,3.437347412E-1
2.067466038E1,-2.892439127E0,-1.949329138E0,9.175958633E-1
2.069132631E1,-2.649825573E0,-1.917178988E0,1.156847000E0
2.070799225E1,-2.457630157E0,-1.855240345E0,8.938221931E-1
2.072465819E1,-2.592607021E0,-1.433138490E0,8.638825417E-1
2.074132413E1,-2.539278746E0,-1.369261503E0,1.161557674E0
2.075799006E1,-1.731316328E0,-1.260449290E0,1.521098614E0
2.077465600E1,-9.037833214E-1,-1.191131711E0,1.526614666E0
2.079132194E1,-5.176839828E-1,-1.532575846E0,1.564389229E0
2.080798788E1,-8.223295212E-2,-1.734397173E0,1.308243752E0
2.082465381E1,-2.237367630E-1,-1.820369482E0,1.000745773E0
2.084131975E1,-8.282415867E-1,-1.928339958E0,9.663295746E-1
2.085798569E1,-1.199513674E0,-2.156975746E0,1.467301369E0
2.087465163E1,-6.077752113E-1,-2.566527128E0,2.600746155E0
2.089131756E1,3.032119274E-1,-2.676125288E0,3.098608017E0
2.090798350E1,1.225414753E0,-2.750616789E0,2.637332916E0
2.092464944E1,1.836309195E0,-2.444363832E0,1.677820206E0
2.094131538E1,2.174398661E0,-2.076504946E0,6.351261139E-1
2.095798131E1,2.357664347E0,-1.863101482E0,2.282915115E-1
2.097464725E1,2.210268497E0,-1.639551878E0,3.343105316E-1
2.099131319E1,2.471607924E0,-1.427131295E0,4.519548416E-1
2.100797913E1,2.926419735E0,-1.208464026E0,3.618211746E-1
2.102464506E1,3.283846617E0,-9.437009096E-1,2.705869675E-1
2.104131100E1,3.093343973E0,-7.047411203E-1,1.193332672E-1
2.105797694E1,2.621726751E0,-5.091001987E-1,-2.279872894E-1
2.107464288E1,2.071987391E0,-3.089988232E-1,-1.754169464E-1
2.109130881E1,1.950274706E0,-2.336905003E-1,3.382425308E-1
2.110797475E1,2.081909418E0,-8.089280128E-2,6.394224167E-1
2.112464069E1,2.267995596E0,-9.666633606E-2,6.531257629E-1
2.114130663E1,2.560776472E0,-7.359313965E-2,2.739028931E-1
2.115797256E1,2.431409359E0,-1.874759197E-1,-3.142185211E-1
2.117463850E1,2.212228775E0,-2.912478447E-1,-4.848327637E-1
2.119130444E1,1.785392046E0,-3.649177551E-1,-4.989109039E-1
2.120797038E1,1.241283417E0,-3.911206722E-1,-5.246438980E-1
2.122463631E1,1.061200142E0,-2.873532772E-1,-9.652223587E-1
2.124130225E1,1.195236683E0,-1.582531929E-1,-1.390410900E0
2.125796819E1,1.147421598E0,7.438349724E-2,-1.866417408E0
2.127463413E1,9.167926311E-1,3.935577869E-1,-2.224439144E0
2.129130006E1,8.036391735E-1,7.167930603E-1,-2.312337399E0
2.130796600E1,7.566118240E-1,8.774840832E-1,-1.966331005E0
2.132463194E1,9.542605877E-1,8.731076717E-1,-1.274992466E0
2.134129788E1,1.152725458E0,8.401906490E-1,-8.502969742E-1
2.135796381E1,1.206929922E0,6.555483341E-1,-3.251714706E-1
2.137462975E1,1.163071871E0,4.317295551E-1,1.017961502E-1
2.139129569E1,1.300602674E0,4.583549500E-2,5.981006622E-1
2.140796163E1,1.439582586E0,-2.540626526E-1,1.025653839E0
2.142462756E1,1.416788816E0,-5.555026531E-1,1.303473473E0
2.144129350E1,1.402978659E0,-7.811635733E-1,1.376955032E0
2.145795944E1,1.355919838E0,-1.066879511E0,1.406641960E0
2.147462538E1,1.325721025E0,-1.363787055E0,1.601502419E0
2.149129131E1,1.110098481E0,-1.489316106E0,1.608023643E0
2.150795725E1,8.144438267E-1,-1.380404592E0,1.300681114E0
2.152462319E1,6.490365267E-1,-1.347127080E0,8.918609619E-1
2.154128913E1,7.623298168E-1,-1.373233795E0,5.208387375E-1
2.155795506E1,7.205046415E-1,-1.425774932E0,1.583881378E-1
2.157462100E1,4.896607399E-1,-1.482328773E0,-6.651878357E-3
2.159128694E1,2.465705872E-1,-1.647001743E0,-1.008653641E-1
2.160795288E1,6.302428246E-2,-1.697610259E0,-1.668739319E-1
2.162461881E1,-1.008447409E-1,-1.822564483E0,-3.111057281E-1
2.164128475E1,-2.296195030E-1,-1.837983966E0,-4.734268188E-1
2.165795069E1,-4.571710825E-1,-1.804448962E0,-8.230142593E-1
2.167461663E1,-5.950942636E-1,-1.572199583E0,-1.124566078E0
2.169128256E1,-8.701960444E-1,-1.362130165E0,-1.050381660E0
2.170794850E1,-1.084908962E0,-1.171791553E0,-5.344123840E-1
2.172461444E1,-9.439665079E-1,-1.015958071E0,-8.283901215E-2
2.174128038E1,-5.767927170E-1,-9.025106430E-1,1.735420227E-1
2.175794631E1,-2.016136646E-1,-9.191093445E-1,2.792510986E-1
2.177461225E1,2.611320019E-1,-8.860728741E-1,9.023857117E-2
2.179127819E1,4.449551105E-1,-7.399177551E-1,-7.084560394E-2
2.180794413E1,4.732662439E-1,-6.586933136E-1,-1.536645889E-1
2.182461006E1,3.547958732E-1,-5.904276371E-1,-2.397680283E-1
2.184127600E1,3.274105787E-1,-5.202953815E-1,-2.219400406E-1
2.185794194E1,4.301220775E-1,-4.883940220E-1,-3.821172714E-1
2.187460788E1,6.549112201E-1,-5.052340031E-1,-5.663719177E-1
2.189127381E1,5.930448771E-1,-6.245934963E-1,-3.849267960E-1
2.190793975E1,3.125005960E-1,-7.230072021E-1,5.250644684E-2
2.192460569E1,2.458137274E-2,-7.893817425E-1,1.486139297E-1
2.194127163E1,1.142650843E-2,-7.763957977E-1,3.080940247E-2
2.195793756E1,-3.608149290E-2,-7.388672829E-1,4.527091980E-3
2.197460350E1,-2.940562367E-1,-6.921699047E-1,-1.656265259E-1
2.199126944E1,-5.140495300E-1,-6.851682663E-1,-2.843570709E-2
2.200793538E1,-3.810055554E-1,-6.274183989E-1,2.188491821E-2
2.202460131E1,-1.640386581E-1,-6.898845434E-1,-1.293888092E-1
2.204126725E1,6.899112463E-2,-6.208735704E-1,-8.150672913E-2
2.205793319E1,1.265507340E-1,-6.659084558E-1,1.838989258E-1
2.207459913E1,2.232947350E-1,-7.135430574E-1,5.484228134E-1
2.209126506E1,9.771358967E-2,-7.771388292E-1,6.565093994E-1
2.210793100E1,-2.251542807E-1,-7.963668108E-1,5.988883972E-1
2.212459694E1,-2.438238859E-1,-7.319715023E-1,4.683284760E-1
2.214126288E1,3.563487530E-2,-7.897183895E-1,3.760042191E-1
2.215792881E1,2.654087543E-1,-7.858663797E-1,4.565858841E-1
2.217459475E1,3.605796099E-1,-8.812998533E-1,5.801496506E-1
2.219126069E1,2.348387241E-1,-8.901998997E-1,5.447378159E-1
2.220792663E1,1.265540123E-1,-7.227884531E-1,4.893302917E-1
2.222459256E1,1.075770855E-1,-6.692076921E-1,2.819032669E-1
2.224125850E1,5.773234367E-2,-6.450713873E-1,3.408050537E-2
2.225792444E1,1.338603497E-1,-6.642318964E-1,-2.061376572E-1
2.227459038E1,8.774650097E-2,-5.926612616E-1,-2.432556152E-1
2.229125631E1,-1.570472717E-1,-5.415552855E-1,-8.090972900E-2
2.230792225E1,-3.683332205E-1,-4.544814825E-1,-2.063388824E-1
2.232458819E1,-3.564521074E-1,-2.635840178E-1,-5.314207077E-1
2.234125413E1,1.439702511E-2,-1.413472891E-1,-7.415170670E-1
2.235792006E1,3.113801479E-1,1.665949821E-2,-6.966838837E-1
2.237458600E1,4.671242237E-1,6.587600708E-2,-7.241020203E-1
2.239125194E1,7.473384142E-1,1.246523857E-2,-8.973436356E-1
2.240791788E1,1.044700742E0,-4.694378376E-2,-7.191057205E-1
2.242458381E1,9.920029640E-1,-3.041535616E-1,-1.678762436E-1
2.244124975E1,7.274240255E-1,-4.862109423E-1,3.136558533E-1
2.245791569E1,2.622227669E-1,-5.147845745E-1,5.871429443E-1
2.247458163E1,-8.953928947E-3,-4.756568670E-1,4.844369888E-1
2.249124756E1,-1.016935110E-1,-3.879354000E-1,2.558813095E-1
2.250791350E1,1.390683651E-2,-2.685075998E-1,-4.552936554E-2
2.252457944E1,-3.968000412E-3,-1.686123610E-1,-1.700344086E-1
2.254124538E1,1.344799995E-3,-1.908229589E-1,-2.898597717E-2
2.255791131E1,-9.525501728E-2,-1.820307970E-1,2.027635574E-1
2.257457725E1,-3.043695688E-1,-2.005933523E-1,3.899097443E-1
2.259124319E1,-2.795031071E-1,-2.956715822E-1,4.419775009E-1
2.260790913E1,-7.359766960E-2,-3.247017860E-1,3.772249222E-1
2.262457506E1,1.324293613E-1,-2.699525356E-1,2.024984360E-1
2.264124100E1,3.335368633E-2,-1.411865950E-1,3.144741058E-2
2.265790694E1,-2.960008383E-1,-1.069113016E-1,-2.775840759E-1
2.267457288E1,-4.856929779E-1,-6.482684612E-2,-5.045328140E-1
2.269123881E1,-5.670510530E-1,-8.392965794E-2,-3.445444107E-1
2.270790475E1,-4.714964628E-1,-7.075250149E-2,-1.002721786E-1
2.272457069E1,-4.726896286E-1,-7.634174824E-2,-4.235076904E-2
2.274123663E1,-5.596690178E-1,-5.771005154E-2,-4.925060272E-2
2.275790256E1,-7.747089863E-2,-1.418861151E-1,-9.039974213E-2
2.277456850E1,-1.493446827E-1,-2.347915173E-1,1.745767593E-1
2.279123444E1,1.634427309E-1,-4.515241385E-1,3.581218719E-1
2.280790038E1,4.593373537E-1,-3.613686562E-1,6.755847931E-1
2.282456631E1,6.286904812E-1,-4.676676989E-1,6.667804718E-1
2.284123225E1,5.919015408E-1,-5.347436666E-1,7.004241943E-1
2.285789819E1,5.660781860E-1,-5.266488791E-1,8.040208817E-1
2.287456413E1,7.149622440E-1,-4.711762667E-1,5.905952454E-1
2.289123006E1,7.846250534E-1,-3.514171839E-1,2.004346848E-1
2.290789600E1,7.586774826E-1,-1.667999029E-1,-1.040945053E-1
2.292456194E1,7.400050163E-1,-7.157409191E-2,-2.557144165E-1
2.294122788E1,6.304204464E-1,-3.081607819E-2,-1.185741425E-1
2.295789381E1,6.208875179E-1,8.591532707E-3,-9.402179718E-2
2.297455975E1,6.054270267E-1,6.947922707E-2,-2.379722595E-1
2.299122569E1,6.132085323E-1,2.114748955E-2,-4.107065201E-1
2.300789163E1,5.247011185E-1,-7.746577263E-3,-4.177446365E-1
2.302455756E1,3.139262199E-1,-4.799878597E-2,-1.876802444E-1
2.304122350E1,2.283279896E-1,-5.583655834E-2,-9.973430634E-2
2.305788944E1,1.527018547E-1,-7.471978664E-2,-1.257820129E-1
2.307455538E1,1.801924706E-1,-7.242429256E-2,-1.444091797E-1
2.309122131E1,1.458034515E-1,-5.467259884E-2,-8.892822266E-2
2.310788725E1,9.250426292E-2,-7.588887215E-2,-2.510738373E-2
2.312455319E1,1.674025059E-1,-4.377436638E-2,-1.050167084E-1
2.314121913E1,1.444137096E-1,-7.065582275E-2,-2.807521820E-2
2.315788506E1,1.185283661E-1,-8.110678196E-2,1.153764725E-1
2.317455100E1,1.616218090E-1,-8.996117115E-2,1.395349503E-1
2.319121694E1,2.383823395E-1,-4.231631756E-2,-7.554149628E-2
2.320788288E1,1.831834316E-1,-1.111817360E-2,-5.203723907E-2
2.322454881E1,7.851266861E-2,-3.243386745E-2,3.199386597E-2
2.324121475E1,2.069473267E-3,-1.784646511E-2,1.221160889E-1
2.325788069E1,-6.407964230E-2,-3.909468651E-3,1.135921478E-2
2.327454663E1,5.448722839E-2,5.171084404E-2,-1.269330978E-1
2.329121256E1,1.221417189E-1,5.978834629E-2,-1.963195801E-1
2.330787850E1,-6.677556038E-2,7.355213165E-5,-9.983825684E-2
2.332454444E1,-2.584916353E-1,2.811229229E-2,9.389495850E-2
2.334121038E1,-1.452142000E-1,3.999161720E-2,1.014261246E-1
2.335787631E1,5.400991440E-2,6.010878086E-2,-1.464242935E-1
2.337454225E1,8.170962334E-2,8.432817459E-2,-3.387441635E-1
2.339120819E1,1.751017570E-2,3.608119488E-2,-1.786174774E-1
2.340787413E1,1.164422035E-1,4.020535946E-2,4.333782196E-2
2.342454006E1,1.498448849E-1,5.594098568E-2,1.739940643E-1
2.344120600E1,6.142115593E-2,4.454183578E-2,2.136898041E-1
2.345787194E1,6.407463551E-2,9.301447868E-2,5.581855774E-3
2.347453788E1,2.142267227E-1,1.514365673E-1,-4.085941315E-1
2.349120381E1,2.318232059E-1,1.993042231E-1,-2.966241837E-1
2.350786975E1,2.238438129E-1,1.248089075E-1,-1.112270355E-1
