"Time (s)","Acceleration x (m/s^2)","Acceleration y (m/s^2)","Acceleration z (m/s^2)"
1.111136900E-2,-2.925524712E0,2.943770170E0,1.048893833E1
2.777730600E-2,-2.512762785E0,2.812164783E0,1.032502937E1
4.444324400E-2,-2.543570518E0,2.703889608E0,9.256933212E0
6.110918100E-2,-2.573480844E0,2.691327333E0,8.250751495E0
7.777511900E-2,-2.510669231E0,2.585743904E0,7.945965767E0
9.444105600E-2,-2.385943174E0,2.534896374E0,8.071887970E0
1.111069940E-1,-2.221735716E0,2.682952404E0,8.205587387E0
1.277729310E-1,-2.007279158E0,2.786741018E0,8.137989998E0
1.444388690E-1,-1.616351724E0,2.846262455E0,8.412566185E0
1.611048060E-1,-1.110269666E0,2.825325251E0,8.924330711E0
1.777707440E-1,-9.110672474E-1,2.738884687E0,9.363413811E0
1.944366810E-1,-8.943174481E-1,2.740679264E0,9.885947227E0
2.111026190E-1,-7.567301393E-1,2.458027124E0,9.996913910E0
2.277685560E-1,-8.482556343E-1,2.504687071E0,9.962816238E0
2.444344940E-1,-9.014959335E-1,2.609073877E0,1.008245754E1
2.611004310E-1,-7.809575200E-1,2.496611357E0,9.984650612E0
2.777663690E-1,-6.484549642E-1,2.534298182E0,9.436694145E0
2.944323060E-1,-4.453641176E-1,2.611466885E0,8.916853905E0
3.110982440E-1,-4.064807594E-1,2.725425005E0,8.094919205E0
3.277641810E-1,2.626122832E-1,2.824128866E0,8.086843491E0
3.444301190E-1,6.658028960E-1,2.411067963E0,8.258229256E0
3.610960560E-1,7.911269665E-1,2.341377020E0,8.729914665E0
3.777619940E-1,1.065703392E0,2.405983210E0,9.241379738E0
3.944279310E-1,1.747657895E0,2.327917337E0,9.006285667E0
4.110938690E-1,2.176272154E0,2.329711914E0,8.951250076E0
4.277598060E-1,2.009970903E0,2.329412937E0,8.542376518E0
4.444257440E-1,1.933101535E0,2.221137524E0,8.596813202E0
4.610916810E-1,1.928914189E0,2.120639086E0,8.283951759E0
4.777576190E-1,1.181157112E0,2.228914261E0,7.820641518E0
4.944235560E-1,5.147559643E-1,1.941177368E0,8.760422707E0
5.110894940E-1,1.470090389E0,1.543669701E0,9.016156197E0
5.277554310E-1,2.077568293E0,1.907677889E0,8.926724434E0
5.444213690E-1,1.930708766E0,2.222334146E0,8.800801277E0
5.610873060E-1,1.297508121E0,2.324028969E0,8.633603096E0
5.777532440E-1,6.478567123E-1,2.352443695E0,9.592227936E0
5.944191810E-1,9.604191780E-1,1.659721613E0,1.055085278E1
6.110851190E-1,1.558923960E0,1.834098577E0,1.013629627E1
6.277510560E-1,1.491326690E0,2.293819666E0,1.008634567E1
6.444169940E-1,1.792822361E0,2.274677038E0,1.002443123E1
6.610829310E-1,1.584945917E0,2.921636343E0,9.253643036E0
6.777488690E-1,1.995614052E0,3.514159203E0,9.486644745E0
6.944148060E-1,1.908874273E0,2.131107569E0,9.769596100E0
7.110807440E-1,2.053640127E0,1.937588096E0,9.107980728E0
7.277466810E-1,2.137388945E0,2.011167526E0,8.539086342E0
7.444126190E-1,2.523231506E0,1.630708575E0,7.599305630E0
7.610785560E-1,2.834896564E0,1.706381679E0,8.837890625E0
7.777444940E-1,3.143271685E0,2.287239313E0,1.187109184E1
7.944104310E-1,2.988037348E0,2.812463999E0,1.334297752E1
8.110763690E-1,2.918047190E0,1.785943031E0,1.337857056E1
8.277423060E-1,4.073481560E0,-9.661021233E-1,1.353470230E1
8.444082440E-1,3.564707518E0,-4.154538214E-1,1.231346512E1
8.610741810E-1,2.737987280E0,6.284150481E-1,1.120110226E1
8.777401190E-1,2.055434704E0,3.062812984E-1,1.083619690E1
8.944060560E-1,1.925025821E0,1.136590727E-2,1.122832012E1
9.110719940E-1,2.433799744E0,-2.003988922E-1,9.777970314E0
9.277379310E-1,1.903191328E0,8.566305041E-1,9.091529846E0
9.444038690E-1,2.353341103E0,1.086341500E0,1.013121128E1
9.610698060E-1,2.833999395E0,3.990031779E-1,1.076142120E1
9.777357440E-1,2.301596165E0,5.153541565E-1,1.030080223E1
9.944016810E-1,2.178664923E0,5.889334679E-1,1.003759193E1
1.011067619E0,1.805683732E0,1.887338907E-1,9.568299294E0
1.027733556E0,1.412662625E0,5.368895531E-1,8.204091072E0
1.044399494E0,1.605883121E0,1.134796143E0,7.469195843E0
1.061065431E0,1.564906001E0,6.116653085E-1,7.545466900E0
1.077731369E0,6.879364848E-1,1.428215981E0,6.932605267E0
1.094397306E0,5.428716540E-1,1.092323542E0,7.928617954E0
1.111063244E0,8.895317912E-1,8.566305041E-1,9.302696228E0
1.127729181E0,1.432403445E0,8.871390224E-1,1.071894836E1
1.144395119E0,2.527418852E0,2.001596212E0,8.083851814E0
1.161061056E0,1.102792144E0,1.142273664E0,5.646163940E0
1.177726994E0,2.171187401E0,1.367797256E0,6.269793510E0
1.194392931E0,2.111067772E0,9.445667267E-1,7.756334782E0
1.211058869E0,3.390330553E0,7.642077208E-1,9.496515274E0
1.227724806E0,4.697110653E0,1.427318692E0,1.012971592E1
1.244390744E0,3.180958509E0,1.018744230E0,1.017817020E1
1.261056681E0,2.691028118E0,1.136291623E0,1.027956581E1
1.277722619E0,2.767897606E0,9.257232547E-1,1.080179977E1
1.294388556E0,3.008974552E0,1.156929731E0,1.053499985E1
1.311054494E0,3.467798233E0,1.081256747E0,9.776774406E0
1.327720431E0,3.889832258E0,1.263709426E0,9.548259735E0
1.344386369E0,3.946661949E0,1.293320656E0,9.675378799E0
1.361052306E0,3.872185230E0,1.388136268E0,9.475577354E0
1.377718244E0,3.782155275E0,1.549651742E0,1.009023380E1
1.394384181E0,3.513561010E0,1.249053478E0,1.070877838E1
1.411050119E0,3.048156977E0,7.908278704E-1,1.139432240E1
1.427716056E0,3.506083488E0,2.090429783E0,1.105753231E1
1.444381994E0,3.683152199E0,1.501496196E0,1.010339451E1
1.461047931E0,4.009473324E0,1.611266971E0,9.629017830E0
1.477713869E0,4.017848492E0,1.619940877E0,9.234500885E0
1.494379806E0,4.048655987E0,1.287338614E0,9.144471169E0
1.511045744E0,3.690330744E0,1.594517231E0,8.746664047E0
1.527711681E0,3.823730469E0,1.639083505E0,8.684151649E0
1.544377619E0,3.567698479E0,1.745265007E0,8.060522079E0
1.561043556E0,3.199502945E0,2.097009897E0,7.543074131E0
1.577709494E0,3.038286448E0,2.107478619E0,7.628019333E0
1.594375431E0,3.309871912E0,2.056331873E0,7.963912010E0
1.611041369E0,3.139682293E0,2.199901342E0,7.996514320E0
1.627707306E0,2.996711254E0,2.504687071E0,7.603493214E0
1.644373244E0,3.214757204E0,2.486441851E0,7.838288784E0
1.661039181E0,3.482753277E0,2.210968018E0,8.253742218E0
1.677705119E0,3.707080364E0,2.222932339E0,8.149953842E0
1.694371056E0,4.276871204E0,2.189731836E0,7.261020184E0
1.711036994E0,4.759623528E0,2.371885538E0,6.917650223E0
1.727702931E0,4.418047905E0,2.465205431E0,6.921239376E0
1.744368869E0,4.090530396E0,2.554338217E0,6.724729061E0
1.761034806E0,4.191029072E0,2.668595552E0,6.983751774E0
1.777700744E0,4.441976070E0,2.478066921E0,7.709076405E0
1.794366681E0,4.859224796E0,2.146062851E0,8.777770996E0
1.811032619E0,5.118546963E0,2.142473459E0,9.072686195E0
1.827698556E0,5.256134033E0,2.160419703E0,9.049356461E0
1.844364494E0,5.513960838E0,2.333301067E0,8.924032211E0
1.861030431E0,5.764608860E0,2.542374134E0,8.836395264E0
1.877696369E0,5.448756218E0,2.348854542E0,9.015557289E0
1.894362306E0,4.946861744E0,1.982154489E0,9.238089561E0
1.911028244E0,4.670490742E0,1.802094579E0,9.575777054E0
1.927694181E0,4.637589455E0,1.736590981E0,9.321838379E0
1.944360119E0,4.354039669E0,1.870290041E0,8.811868668E0
1.961026056E0,4.404289246E0,2.292623281E0,8.600402832E0
1.977691994E0,4.488337040E0,2.682653189E0,9.134899139E0
1.994357931E0,4.511667252E0,2.441875458E0,9.834201813E0
2.011023869E0,4.254737854E0,2.191526413E0,9.795318604E0
2.027689806E0,3.746562004E0,2.424527645E0,9.576973915E0
2.044355744E0,3.341576815E0,2.590230465E0,9.209076881E0
2.061021681E0,2.732304335E0,2.735594511E0,9.326025963E0
2.077687619E0,2.515753984E0,2.799303293E0,1.041924667E1
2.094353556E0,2.868396044E0,2.521436930E0,1.158006477E1
2.111019494E0,3.481257915E0,2.040180445E0,1.180648613E1
2.127685431E0,3.140280724E0,2.132304192E0,1.087597752E1
2.144351369E0,2.911466837E0,2.397907495E0,9.705587387E0
2.161017306E0,3.171088219E0,2.466701031E0,9.095118523E0
2.177683244E0,3.440878868E0,2.551945448E0,8.719146729E0
2.194349181E0,3.294916868E0,2.344667196E0,8.784949303E0
2.211015119E0,3.556930780E0,1.872383714E0,9.233005524E0
2.227681056E0,3.613162279E0,1.721037745E0,8.923134804E0
2.244346994E0,3.708575964E0,1.719243050E0,8.494819641E0
2.261012931E0,3.553939819E0,1.894517303E0,7.821837902E0
2.277678869E0,3.304488182E0,1.792224169E0,7.121040344E0
2.294344806E0,3.063411236E0,1.700399637E0,6.943373203E0
2.311010744E0,3.372384310E0,1.306481123E0,7.590033531E0
2.327676681E0,3.899104595E0,9.547362328E-1,8.251948357E0
2.344342619E0,4.370789528E0,8.129615188E-1,8.124529839E0
2.361008556E0,4.775774956E0,6.924230456E-1,7.677072525E0
2.377674494E0,4.949553490E0,4.292125702E-1,7.222435951E0
2.394340431E0,4.728217602E0,4.971089065E-1,6.775277138E0
2.411006369E0,4.363910198E0,4.085744619E-1,6.495615959E0
2.427672306E0,4.489234447E0,-9.361918271E-2,7.465905666E0
2.444338244E0,4.975276470E0,-4.160520434E-1,9.063115120E0
2.461004181E0,5.769693375E0,-3.873381615E-1,1.034536839E1
2.477670119E0,6.819544315E0,-3.041875660E-1,1.145085239E1
2.494336056E0,8.131110191E0,-5.428716540E-1,1.240857983E1
2.511001994E0,9.128917694E0,-1.167996526E0,1.230509090E1
2.527667931E0,8.917152405E0,-1.427916884E0,1.105454159E1
2.544333869E0,7.847261906E0,-1.214955688E0,9.440283775E0
2.560999806E0,6.902096748E0,-1.161117196E0,8.220243454E0
2.577665744E0,6.081059456E0,-8.168498278E-1,7.567899704E0
2.594331681E0,5.295914650E0,-5.769693851E-1,7.690532207E0
2.610997619E0,4.593920231E0,-8.670991063E-1,8.443971634E0
2.627663556E0,4.005585194E0,-9.978070259E-1,8.695816994E0
2.644329494E0,3.428615808E0,-9.927222729E-1,7.919943810E0
2.660995431E0,2.793022156E0,-1.845464408E-1,7.796115398E0
2.677661369E0,2.778366089E0,3.266202807E-1,5.990730762E0
2.694327306E0,2.596810818E0,8.988040090E-1,5.223232746E0
2.710993244E0,2.613859653E0,9.945169091E-1,4.761417866E0
2.727659181E0,2.935993433E0,7.528418303E-1,5.181657314E0
2.744325119E0,3.241078377E0,1.009771109E0,5.355436325E0
2.760991056E0,3.130709410E0,1.454237938E0,5.137689114E0
2.777656994E0,3.156133175E0,1.761117458E0,4.925924301E0
2.794322931E0,3.206980467E0,2.141576290E0,4.666901588E0
2.810988869E0,2.707478762E0,2.924627542E0,4.244867325E0
2.827654806E0,2.111665964E0,3.711866140E0,3.887140274E0
2.844320744E0,1.395015597E0,4.319643021E0,4.904089928E0
2.860986681E0,1.001396298E0,5.062016487E0,8.062914848E0
2.877652619E0,-1.612164229E-1,5.840580940E0,1.199851036E1
2.894318556E0,-1.516152263E0,6.961319447E0,1.508405495E1
2.910984494E0,-1.591227055E0,8.658429146E0,1.771107483E1
2.927650431E0,-3.320041299E-1,1.106171989E1,2.097099686E1
2.944316369E0,1.091725349E0,1.280997562E1,2.533939362E1
2.960982306E0,2.479263306E0,1.268644619E1,2.991387177E1
2.977648244E0,4.143471718E0,1.017577744E1,3.272603607E1
2.994314181E0,5.707180977E0,7.412067413E0,3.197439194E1
3.010980119E0,7.274180889E0,5.415256977E0,3.107768059E1
3.027646056E0,1.010399246E1,2.576172590E0,3.134537888E1
3.044311994E0,1.427767372E1,-1.555334687E0,3.006491852E1
3.060977931E0,1.827667809E1,-5.967699528E0,2.468884468E1
3.077643869E0,1.851626015E1,-8.223832130E0,1.623171234E1
3.094309806E0,1.482592869E1,-7.712067604E0,9.352945328E0
3.110975744E0,9.694820404E0,-6.990332127E0,4.986941338E0
3.127641681E0,4.606781960E0,-6.971787930E0,2.257927179E0
3.144307619E0,1.653440475E0,-7.100102901E0,9.669994712E-1
3.160973556E0,1.417448282E0,-8.484949112E0,7.118647099E-1
3.177639494E0,1.712363720E0,-9.588040352E0,3.523431420E-1
3.194305431E0,1.560718536E0,-1.037139034E1,-9.768698215E-1
3.210971369E0,9.430712461E-1,-1.057478046E1,-3.183052301E0
3.227637306E0,6.454638839E-1,-1.044497013E1,-5.392225742E0
3.244303244E0,6.565307379E-1,-1.021585751E1,-6.752246380E0
3.260969181E0,7.417750359E-1,-9.903892517E0,-7.158128738E0
3.277635119E0,5.156532526E-1,-9.017950058E0,-6.506682873E0
3.294301056E0,1.907976985E0,-8.661719322E0,-4.921437740E0
3.310966994E0,4.077968121E0,-8.725427628E0,-3.081357241E0
3.327632931E0,7.283452988E0,-7.306184769E0,-4.923232496E-1
3.344298869E0,1.199402332E1,-3.498007536E0,4.312763691E0
3.360964806E0,1.729591942E1,2.188236237E0,1.476820183E1
3.377630744E0,2.393899345E1,5.713761330E0,3.076242638E1
3.394296681E0,2.580808830E1,5.307280540E0,3.598984528E1
3.410962619E0,1.802094460E1,8.750253677E0,2.896870804E1
3.427628556E0,8.744869232E0,1.166261768E1,2.037219238E1
3.444294494E0,1.377368569E0,1.264457226E1,1.686281967E1
3.460960431E0,-3.120539904E0,1.204935741E1,1.518575001E1
3.477626369E0,-5.784349442E0,1.181725407E1,1.242921829E1
3.494292306E0,-5.470291615E0,1.224227905E1,8.787641525E0
3.510958244E0,-3.843471289E0,1.286321640E1,4.454538345E0
3.527624181E0,-2.814557552E0,1.350479221E1,4.824528694E-1
3.544290119E0,-3.092125177E0,1.428335667E1,-8.386843204E-1
3.560956056E0,-3.863511324E0,1.386192036E1,-9.927222729E-1
3.577621994E0,-4.567599297E0,1.231795216E1,1.818246126E0
3.594287931E0,-4.197010994E0,1.091964626E1,8.609375954E0
3.610953869E0,-1.657627940E0,1.040728283E1,1.797637939E1
3.627619806E0,2.833999395E0,1.020897770E1,2.745584488E1
3.644285744E0,7.763513088E0,1.168893814E1,3.513172150E1
3.660951681E0,1.497577953E1,1.123490047E1,4.044199371E1
3.677617619E0,2.186351967E1,6.628417969E0,4.288895416E1
3.694283556E0,2.532324219E1,-1.193719387E0,3.928476334E1
3.710949494E0,2.500439835E1,-6.989734173E0,3.142224693E1
3.727615431E0,1.923470497E1,-1.048086262E1,2.212224388E1
3.744281369E0,1.096720314E1,-1.147059345E1,1.278066349E1
3.760947306E0,4.337589264E0,-1.120409298E1,5.255835056E0
3.777613244E0,1.520339727E0,-1.122413254E1,1.821237087E0
3.794279181E0,1.321735382E0,-1.248604774E1,-5.874379873E-1
3.810945119E0,2.913261652E-1,-1.372911930E1,-3.794717550E0
3.827611056E0,-1.250848055E0,-1.463809299E1,-6.431907177E0
3.844276994E0,-2.407179594E0,-1.474995708E1,-7.034300327E0
3.860942931E0,-2.605783939E0,-1.443470287E1,-6.853343010E0
3.877608869E0,-1.968993902E0,-1.351526070E1,-6.400202274E0
3.894274806E0,-6.852445602E-1,-1.230419350E1,-5.221437931E0
3.910940744E0,1.748555183E0,-1.110688496E1,-3.504288673E0
3.927606681E0,5.552545071E0,-1.013988495E1,-1.080957651E0
3.944272619E0,1.103689480E1,-7.912167072E0,3.206382275E0
3.960938556E0,1.754058647E1,-3.904189348E0,8.830412865E0
3.977604494E0,2.298455620E1,2.108973980E0,1.697199249E1
3.994270431E0,2.736402130E1,7.382156849E0,2.708884621E1
4.010936369E0,3.151646614E1,6.044867992E0,3.355844116E1
4.027602306E0,2.732214546E1,6.588637352E0,2.991566658E1
4.044268244E0,1.883061600E1,7.718647480E0,2.142204475E1
4.060934181E0,9.597910881E0,8.446963310E0,1.491356659E1
4.077600119E0,1.826920033E0,9.069993973E0,1.058076286E1
4.094266056E0,-2.405683994E0,9.329915047E0,7.225128174E0
4.110931994E0,-3.162115097E0,8.648259163E0,4.959125042E0
4.127597931E0,-2.604587555E0,8.257929802E0,2.118246317E0
4.144263869E0,-2.198704958E0,8.827122688E0,-1.937289000E0
4.160929806E0,-2.411067963E0,9.910174370E0,-5.118845940E0
4.177595744E0,-3.567100286E0,1.076411247E1,-5.973681927E0
4.194261681E0,-4.832305431E0,1.099322510E1,-5.259424210E0
4.210927619E0,-5.507679462E0,1.087478065E1,-2.573779821E0
4.227593556E0,-5.362614632E0,1.039113140E1,5.715855360E-1
4.244259494E0,-4.095016956E0,9.986445427E0,4.377668858E0
4.260925431E0,-1.225424290E0,1.010369396E1,7.656434059E0
4.277591369E0,1.665105462E0,9.803094864E0,1.120409298E1
4.294257306E0,3.813561201E0,9.502496719E0,1.706441498E1
4.310923244E0,5.654240131E0,9.106484413E0,2.501965332E1
4.327589181E0,7.111169815E0,7.857730389E0,3.084049225E1
4.344255119E0,9.067900658E0,6.998407841E0,3.422872925E1
4.360921056E0,1.515434361E1,3.959224224E0,3.808565903E1
4.377586994E0,2.427040100E1,-2.235793591E0,3.738277054E1
4.394252931E0,2.496701050E1,-7.288537979E0,2.801935577E1
4.410918869E0,1.691276932E1,-8.839685440E0,1.473799324E1
4.427584806E0,7.688737392E0,-8.005487442E0,5.298307419E0
4.444250744E0,2.354238272E0,-7.518846989E0,3.393022537E0
4.460916681E0,2.330010980E-1,-8.994320869E0,3.718147278E0
4.477582619E0,-1.417747438E-1,-1.097976589E1,2.108076811E0
4.494248556E0,8.730811477E-1,-1.219861031E1,-1.547857165E0
4.510914494E0,1.874178290E0,-1.287428284E1,-5.404788017E0
4.527580431E0,2.486740828E0,-1.260060406E1,-8.411369324E0
4.544246369E0,1.761715651E0,-1.206969643E1,-9.618847847E0
4.560912306E0,3.846462369E-1,-1.145533943E1,-8.773283958E0
4.577578244E0,-2.452643216E-2,-1.089631653E1,-7.055835724E0
4.594244181E0,7.220342159E-1,-1.053141022E1,-4.666303158E0
4.610910119E0,3.041875839E0,-9.770493507E0,-2.436491728E0
4.627576056E0,6.054439545E0,-9.846465111E0,-1.676770449E0
4.644241994E0,8.604290962E0,-9.601799011E0,4.821537733E-1
4.660907931E0,1.219232845E1,-8.318049431E0,5.327619553E0
4.677573869E0,1.730040741E1,-5.107779026E0,1.213609695E1
4.694239806E0,2.215783691E1,5.673980713E-1,2.102603149E1
4.710905744E0,2.612992287E1,4.037888050E0,3.345465088E1
4.727571681E0,2.894388199E1,2.260918379E0,4.056342697E1
4.744237619E0,2.443131828E1,5.039882660E0,3.404059219E1
4.760903556E0,1.550279903E1,7.161119938E0,2.368146706E1
4.777569494E0,5.779862881E0,8.735896111E0,1.583211136E1
4.794235431E0,-9.831510186E-1,1.023828983E1,1.040937710E1
4.810901369E0,-3.423830032E0,1.133210850E1,6.196812630E0
4.827567306E0,-4.910670280E0,1.326820183E1,3.885046721E0
4.844233244E0,-5.633601665E0,1.514297771E1,2.081157446E0
4.860899181E0,-6.946363926E0,1.708236122E1,-2.602194622E-2
4.877565119E0,-6.950850487E0,1.753131485E1,-2.778665423E-1
4.894231056E0,-5.856134415E0,1.648206139E1,2.221137524E0
4.910896994E0,-4.943272591E0,1.434317684E1,7.949255943E0
4.927562931E0,-3.591925859E0,1.100967598E1,1.565354633E1
4.944228869E0,-1.773679852E-1,7.945666790E0,2.232234383E1
4.960894806E0,4.799404144E0,7.007380962E0,2.508844566E1
4.977560744E0,8.324031830E0,7.640581608E0,2.710978317E1
4.994226681E0,8.014759064E0,6.422934055E0,3.289204025E1
5.010892619E0,8.695218086E0,1.955833435E0,3.798994827E1
5.027558556E0,1.697468376E1,-4.596911430E0,3.851487350E1
5.044224494E0,2.547249413E1,-9.653244972E0,3.056801033E1
5.060890431E0,2.172503471E1,-9.781859398E0,1.904357719E1
5.077556369E0,1.292213917E1,-8.742476463E0,8.646763802E0
5.094222306E0,3.657728434E0,-7.571488857E0,4.313960075E0
5.110888244E0,-1.342672586E0,-7.680063248E0,4.120440483E0
5.127554181E0,-1.829612017E0,-1.004417229E1,2.647060156E0
5.144220119E0,-1.960619092E0,-1.129143143E1,-1.462911963E0
5.160886056E0,-1.969292998E0,-1.174905872E1,-5.930012703E0
5.177551994E0,-1.156929731E0,-1.193390369E1,-9.317352295E0
5.194217931E0,-2.035095692E0,-1.151545906E1,-1.020867825E1
5.210883869E0,-2.211865425E0,-1.117298603E1,-8.028517723E0
5.227549806E0,-7.301099896E-1,-1.097049332E1,-3.702893019E0
5.244215744E0,1.022333503E0,-1.120768261E1,-2.404786795E-1
5.260881681E0,2.813361168E0,-1.222223854E1,1.847259045E0
5.277547619E0,4.776073933E0,-1.203500080E1,1.167398334E0
5.294213556E0,8.840283394E0,-1.058853912E1,7.208378315E-1
5.310879494E0,1.336540985E1,-8.012665749E0,4.716253281E0
5.327545431E0,1.712961960E1,-4.352544308E0,1.315334606E1
5.344211369E0,1.847468376E1,1.019043326E0,2.561486816E1
5.360877306E0,2.071167374E1,3.039183855E0,4.075724792E1
5.377543244E0,2.263311195E1,1.561316729E0,4.486841583E1
5.394209181E0,1.763629913E1,3.586242914E0,3.495973587E1
5.410875119E0,9.940981865E0,5.706283569E0,2.293729782E1
5.427541056E0,2.291725874E0,8.403593063E0,1.378893948E1
5.444206994E0,-2.193919182E0,9.627223015E0,7.760521889E0
5.460872931E0,-3.781856298E0,1.009920692E1,4.159324169E0
5.477538869E0,-4.091128349E0,1.066869926E1,1.558923960E0
5.494204806E0,-4.654937267E0,1.196740341E1,-2.123630047E-1
5.510870744E0,-6.487839699E0,1.440509129E1,-1.641775489E0
5.527536681E0,-8.036594391E0,1.629422569E1,-3.038585663E0
5.544202619E0,-9.254839897E0,1.674018669E1,-6.391827464E-1
5.560868556E0,-9.381061554E0,1.545584011E1,7.489833832E0
5.577534494E0,-7.699504852E0,1.262034512E1,1.582582951E1
5.594200431E0,-3.570091486E0,1.026879883E1,1.918236160E1
5.610866369E0,1.651047587E0,1.079402256E1,2.186112595E1
5.627532306E0,4.684548378E0,1.054905796E1,3.011845779E1
5.644198244E0,3.967299938E0,6.664011002E0,4.248486328E1
5.660864181E0,5.075475693E0,1.450349569E0,4.992654419E1
5.677530119E0,1.092502975E1,-4.959424019E0,4.783940506E1
5.694196056E0,1.610698700E1,-9.102297783E0,3.648934937E1
5.710861994E0,1.547707558E1,-9.750154495E0,2.185334969E1
5.727527931E0,1.086371422E1,-9.028418541E0,8.931808472E0
5.744193869E0,5.416453362E0,-8.242675781E0,1.635494232E0
5.760859806E0,1.333699465E0,-9.981659889E0,-1.190429255E-1
5.777525744E0,-2.071287155E0,-1.276840115E1,-8.297112584E-1
5.794191681E0,-3.591626883E0,-1.570858192E1,-2.867797852E0
5.810857619E0,-4.033700943E0,-1.700848198E1,-7.230811119E0
5.827523556E0,-3.342773199E0,-1.614826202E1,-1.182323551E1
5.844189494E0,-2.048256159E0,-1.438325691E1,-1.404736423E1
5.860855431E0,-7.369893789E-1,-1.375185108E1,-1.017667484E1
5.877521369E0,5.988038778E-1,-1.450469303E1,-3.069094181E0
5.894187306E0,2.127817631E0,-1.603520203E1,2.218445778E0
5.910853244E0,4.928915501E0,-1.567298794E1,4.810770035E0
5.927519181E0,1.060917759E1,-1.262901878E1,5.774778366E0
5.944185119E0,1.901576233E1,-8.680263519E0,9.777372360E0
5.960851056E0,2.206242371E1,-1.403988719E0,1.796471405E1
5.977516994E0,2.460898399E1,3.261417150E0,3.221756363E1
5.994182931E0,2.885116005E1,4.187439568E-3,4.106711960E1
6.010848869E0,2.545125771E1,1.307677627E0,3.717728424E1
6.027514806E0,1.761775398E1,2.461317301E0,2.824487877E1
6.044180744E0,7.771289825E0,4.632803917E0,1.738714600E1
6.060846681E0,6.155536175E-1,7.601100445E0,8.172685623E0
6.077512619E0,-1.207478166E0,8.544769287E0,3.484847069E0
6.094178556E0,-8.216354847E-1,8.410771370E0,2.230409861E0
6.110844494E0,-3.655036688E-1,8.248658180E0,1.499103427E0
6.127510431E0,-3.858426511E-1,9.373284340E0,4.414757788E-1
6.144176369E0,-2.020140409E0,1.165214920E1,-6.149554253E-1
6.160842306E0,-4.059124470E0,1.396451283E1,1.106680464E-2
6.177508244E0,-5.784947872E0,1.493599892E1,2.401197433E0
6.194174181E0,-6.539883614E0,1.404317665E1,6.866802692E0
6.210840119E0,-6.414260387E0,1.180738354E1,1.142752266E1
6.227506056E0,-5.634499073E0,9.418747902E0,1.366241932E1
6.244171994E0,-4.269991875E0,8.519046783E0,1.511815262E1
6.260837931E0,-2.198704958E0,8.572586060E0,1.941984940E1
6.277503869E0,3.513261795E0,6.206982136E0,3.061466980E1
6.294169806E0,1.417687607E1,-2.242373943E0,4.163720703E1
6.310835744E0,1.980808449E1,-7.015456676E0,4.447180557E1
6.327501681E0,2.010718727E1,-8.653344154E0,3.775335693E1
6.344167619E0,1.405992699E1,-8.253443718E0,2.527299309E1
6.360833556E0,7.156334400E0,-7.034300327E0,1.602234077E1
6.377499494E0,3.613760471E0,-7.466803074E0,1.100997543E1
6.394165431E0,2.473281384E0,-9.013463974E0,6.523133755E0
6.410831369E0,2.674876690E0,-1.058465099E1,1.841277003E0
6.427497306E0,3.563211918E0,-1.203529930E1,-1.581356645E0
6.444163244E0,5.196014404E0,-1.341177082E1,-5.367998600E0
6.460829181E0,5.823831081E0,-1.419841099E1,-9.591330528E0
6.477495119E0,5.245964527E0,-1.399113274E1,-1.241097260E1
6.494161056E0,4.467998028E0,-1.402672672E1,-1.191326618E1
6.510826994E0,3.265903711E0,-1.550519180E1,-8.525926590E0
6.527492931E0,9.161519408E-1,-1.646052551E1,-5.279464245E0
6.544158869E0,2.670988142E-1,-1.709492302E1,-3.154637575E0
6.560824806E0,2.636591434E0,-1.720260048E1,-2.669193745E0
6.577490744E0,5.497210979E0,-1.652184296E1,-2.223231316E0
6.594156681E0,9.336793900E0,-1.476521111E1,5.994319916E0
6.610822619E0,1.585813332E1,-1.432642746E1,2.223769760E1
6.627488556E0,2.013769722E1,-1.312941742E1,3.062005424E1
6.644154494E0,1.689721680E1,-8.273483276E0,2.610031128E1
6.660820431E0,1.179302597E1,-3.094218731E0,1.830359840E1
6.677486369E0,7.688138962E0,2.189432621E0,1.356162167E1
6.694152306E0,4.116253376E0,5.402395248E0,1.065523911E1
6.710818244E0,1.689931035E0,6.395416737E0,1.130189991E1
6.727484181E0,-8.054839373E-1,8.115556717E0,1.800928116E1
6.744150119E0,-3.730709553E0,1.316142178E1,2.196102715E1
6.760816056E0,-4.800301552E0,1.817498398E1,1.868495369E1
6.777481994E0,-3.070589542E0,2.106611061E1,1.693520164E1
6.794147931E0,-3.385843933E-1,2.004138565E1,1.743918991E1
6.810813869E0,3.197409213E-1,1.512682629E1,2.222812653E1
6.827479806E0,6.113662124E-1,8.962317467E0,2.662882614E1
6.844145744E0,4.570291042E0,3.613760471E0,2.262084770E1
6.860811681E0,1.479781342E1,-4.475176334E0,1.711496353E1
6.877477619E0,2.329921341E1,-1.195424271E1,2.106641006E1
6.894143556E0,2.185634041E1,-1.597029686E1,3.273082352E1
6.910809494E0,1.968156433E1,-1.942433548E1,3.559024429E1
6.927475431E0,1.570409489E1,-1.636750603E1,2.289422798E1
6.944141369E0,1.135902786E1,-1.332233906E1,1.241964722E1
6.960807306E0,8.782257080E0,-1.462971783E1,1.021884823E1
6.977473244E0,7.690831184E0,-1.758904076E1,6.086443424E0
6.994139181E0,7.992625713E0,-2.006770706E1,4.112663865E-1
7.010805119E0,8.979366302E0,-2.067817497E1,2.862114906E0
7.027471056E0,1.358016586E1,-2.129432678E1,7.936693668E0
7.044136994E0,1.928106499E1,-2.185364914E1,5.769992828E0
7.060802931E0,1.932204247E1,-1.891945076E1,-1.569990754E0
7.077468869E0,8.779565811E0,-1.181037426E1,-1.113200951E1
7.094134806E0,-7.179664135E0,2.467000246E0,-1.405813217E1
7.110800744E0,-1.060917759E1,6.878467560E0,-4.439284325E0
7.127466681E0,-9.895218849E0,9.364012718E0,3.525824070E0
7.144132619E0,-2.795714140E0,6.821937561E0,2.193022013E0
7.160798556E0,3.781257868E0,3.209672451E0,-3.240779161E0
7.177464494E0,6.017051697E0,-4.190430641E-1,-7.048657417E0
7.194130431E0,7.298707485E0,-4.880161762E0,-8.089236259E0
7.210796369E0,9.553942680E0,-8.921041489E0,-2.892623425E0
7.227462306E0,1.147208881E1,-1.277557945E1,3.985246181E0
7.244128244E0,1.447747421E1,-1.503231049E1,7.481758118E0
7.260794181E0,1.951466560E1,-1.509751415E1,5.206482887E0
7.277460119E0,2.023939133E1,-1.187946701E1,-4.837988377E0
7.294126056E0,1.938425636E1,-1.316411400E1,-1.576391602E1
7.310791994E0,1.603669739E1,-1.886890221E1,-1.134168053E1
7.327457931E0,7.346264839E0,-2.811117935E1,2.320649147E1
7.344123869E0,-1.703390598E0,-2.765265465E1,4.391966248E1
7.360789806E0,-1.651346684E0,-2.033719826E1,3.353870010E1
7.377455744E0,2.888735056E0,-1.231167030E1,1.675275040E1
7.394121681E0,1.101206875E1,-6.329015732E0,7.763513088E0
7.410787619E0,1.453221035E1,-8.330612183E0,1.305524063E1
7.427453556E0,7.629515171E0,-1.017069244E1,2.312932205E1
7.444119494E0,-1.187438220E-1,-7.475776196E0,2.524517632E1
7.460785431E0,-5.892325640E-1,-4.782953262E0,1.832662773E1
7.477451369E0,2.568096876E0,-2.645265341E0,8.083553314E0
7.494117306E0,1.601097465E0,-2.315055877E-1,3.742075443E0
7.510783244E0,-7.432705164E-1,-7.590631485E0,1.547288895E1
7.527449181E0,-7.196115017E0,-1.660050583E1,2.994527817E1
7.544115119E0,-1.182832050E1,-1.131446171E1,3.262105179E1
7.560781056E0,-5.409274578E0,-5.291428089E0,2.842374229E1
7.577446994E0,3.147459030E0,8.533403873E-1,2.254218483E1
7.594112931E0,9.006584167E0,4.466502666E0,1.509871101E1
7.610778869E0,1.296012592E1,2.585444927E0,1.016471100E1
7.627444806E0,1.343270779E1,7.345965505E-1,7.760521889E0
7.644110744E0,1.301067448E1,-7.178468257E-2,5.926722527E0
7.660776681E0,1.231795216E1,4.492524564E-1,4.608875751E0
7.677442619E0,1.153131104E1,8.443672657E-1,3.114856958E0
7.694108556E0,1.219202995E1,-5.874379873E-1,1.325025558E0
7.710774494E0,1.143380356E1,-2.702095032E0,2.585145712E0
7.727440431E0,9.694820404E0,-4.252045631E0,5.532505035E0
7.744106369E0,5.788836002E0,-3.092723370E0,6.344569206E0
7.760772306E0,1.666002750E0,-1.178465188E-1,6.105885029E0
7.777438244E0,-2.205285072E0,3.475574970E0,9.244371414E0
7.794104181E0,-4.790730000E0,5.164309502E0,1.571964836E1
7.810770119E0,-5.420042515E0,5.342874050E0,2.173251343E1
7.827436056E0,-4.342075825E0,6.878767014E0,2.205344963E1
7.844101994E0,-2.624926329E0,1.093161011E1,1.907438660E1
7.860767931E0,-2.839981318E0,1.529761410E1,1.748106575E1
7.877433869E0,-5.599205017E0,1.853899193E1,1.799911118E1
7.894099806E0,-6.163611889E0,1.871905136E1,1.852254105E1
7.910765744E0,-2.888436079E0,1.633550072E1,1.826591110E1
7.927431681E0,2.997907639E0,1.378983688E1,1.858236122E1
7.944097619E0,9.164211273E0,1.104526901E1,2.074906158E1
7.960763556E0,1.286740398E1,6.342475414E0,2.490060997E1
7.977429494E0,1.300917816E1,9.526425004E-1,2.677239609E1
7.994095431E0,1.329422379E1,-5.039882660E0,2.281616211E1
8.010761369E0,1.395165157E1,-1.181515980E1,1.526291847E1
8.027427306E0,1.109103203E1,-1.659811401E1,8.764909744E0
8.044093244E0,7.074978352E0,-2.052593231E1,3.061616659E0
8.060759181E0,1.773380637E0,-2.162274170E1,-5.465805054E0
8.077425119E0,-1.812264085E0,-2.116152573E1,-1.479183102E1
8.094091056E0,-2.205883265E0,-2.230589294E1,-1.573938942E1
8.110756994E0,-1.070489049E0,-2.400210571E1,-8.867501259E0
8.127422931E0,1.808375716E0,-2.739901543E1,-1.642373681E0
8.144088869E0,7.271489143E0,-3.050101089E1,2.114656925E0
8.160754806E0,1.574088478E1,-2.826521683E1,8.593224287E-1
8.177420744E0,2.510788727E1,-2.282214355E1,-3.511168242E0
8.194086681E0,3.120569801E1,-1.672074509E1,-1.165304661E0
8.210752619E0,2.865135956E1,-7.873582840E0,1.917817497E1
8.227418556E0,1.864128494E1,-4.934299469E0,4.131626892E1
8.244084494E0,9.063713074E0,2.196312189E0,4.846213531E1
8.260750431E0,4.633700848E0,1.576541138E1,4.672614288E1
8.277416369E0,2.736192703E0,2.617658234E1,4.483222580E1
8.294082306E0,-6.416353703E0,3.428615570E1,3.526781464E1
8.310748244E0,-5.341976643E0,3.597070312E1,2.844138908E1
8.327414181E0,-1.871187329E0,2.985465050E1,2.694766998E1
8.344080119E0,-2.365903378E0,1.934268188E1,2.809263420E1
8.360746056E0,-2.841177702E0,1.207298660E1,3.199742317E1
8.377411994E0,2.571686029E0,7.191030025E0,4.404558182E1
8.394077931E0,1.261406326E1,-3.008974493E-1,6.153263092E1
8.410743869E0,2.446302223E1,-1.013539886E1,7.244808960E1
8.427409806E0,3.652374649E1,-1.891047668E1,6.537670135E1
8.444075744E0,3.670230865E1,-2.502802849E1,4.495545578E1
8.460741681E0,2.808784866E1,-2.912812996E1,2.745315361E1
8.477407619E0,1.787618065E1,-3.206651688E1,1.514088440E1
8.494073556E0,7.393522739E0,-3.213889694E1,2.961417198E0
8.510739494E0,-6.400800347E-1,-2.991835976E1,-1.217378426E1
8.527405431E0,-2.780759096E0,-2.646701050E1,-2.140708923E1
8.544071369E0,-1.120439172E0,-2.558974266E1,-2.119053841E1
8.560737306E0,-7.959126234E-1,-2.775674248E1,-1.541187191E1
8.577403244E0,-2.788236618E0,-3.332155228E1,-9.325727463E0
8.594069181E0,-5.757430553E0,-3.949383545E1,-7.456035137E0
8.610735119E0,-7.506583691E0,-4.238346863E1,-5.988337994E0
8.627401056E0,-5.483152866E0,-4.292723846E1,-1.569990754E0
8.644066994E0,5.961119533E-1,-4.340729904E1,4.081856251E0
8.660732931E0,1.023141098E1,-4.371507645E1,1.066241741E1
8.677398869E0,2.309971237E1,-4.131058884E1,1.944706726E1
8.694064806E0,3.081626511E1,-3.429573059E1,3.329253769E1
8.710730744E0,3.225375366E1,-2.579313278E1,5.190959549E1
8.727396681E0,3.182693481E1,-1.728963852E1,6.156014633E1
8.744062619E0,3.016272545E1,-1.090977573E1,6.142704773E1
8.760728556E0,2.539323235E1,-4.377369881E0,5.666233826E1
8.777394494E0,1.846930122E1,5.277968407E0,4.673751068E1
8.794060431E0,1.263978672E1,1.588295841E1,3.616631699E1
8.810726369E0,8.479864120E0,2.372633171E1,2.772174835E1
8.827392306E0,2.295913219E0,2.820868683E1,2.059681892E1
8.844058244E0,-4.960620403E0,2.929143906E1,1.605613899E1
8.860724181E0,-1.114397335E1,2.686661339E1,1.449063492E1
8.877390119E0,-1.486630821E1,2.203011894E1,1.592961884E1
8.894056056E0,-1.537418461E1,1.677458382E1,2.248206520E1
8.910721994E0,-1.196381378E1,1.197368431E1,3.553491211E1
8.927387931E0,-3.565903902E0,6.757630348E0,5.122973633E1
8.944053869E0,9.534799576E0,-1.073779106E0,6.404449463E1
8.960719806E0,2.225354958E1,-1.174038410E1,6.706782532E1
8.977385744E0,2.835046196E1,-2.113041878E1,6.013043594E1
8.994051681E0,2.811327362E1,-2.712443924E1,4.771467972E1
9.010717619E0,2.338206482E1,-3.047827911E1,3.237369537E1
9.027383556E0,1.606780434E1,-3.122394180E1,1.722264099E1
9.044049494E0,9.128917694E0,-2.922473907E1,4.226323128E0
9.060715431E0,4.084548473E0,-2.600758934E1,-6.384648800E0
9.077381369E0,1.047158957E0,-2.449532509E1,-1.174487114E1
9.094047306E0,-1.430608869E0,-2.493291283E1,-1.047906780E1
9.110713244E0,-4.688735962E0,-2.651815796E1,-7.650153160E0
9.127379181E0,-7.874181271E0,-2.848655319E1,-7.834699631E0
9.144045119E0,-9.689435959E0,-2.969074249E1,-8.606385231E0
9.160711056E0,-9.064311028E0,-2.968834877E1,-7.141079903E0
9.177376994E0,-5.483152866E0,-3.010290527E1,-3.049353361E0
9.194042931E0,1.322034448E-1,-3.206352615E1,2.700599432E0
9.210708869E0,7.619046211E0,-3.315106201E1,8.229216576E0
9.227374806E0,1.691007805E1,-3.033680344E1,1.374586868E1
9.244040744E0,2.489582443E1,-2.534836578E1,2.123570251E1
9.260706681E0,2.828465843E1,-1.878126526E1,3.267788315E1
9.277372619E0,2.871835899E1,-1.192044449E1,4.330979156E1
9.294038556E0,2.571387100E1,-4.924428940E0,4.548546600E1
9.310704494E0,1.975753593E1,9.855438471E-1,4.105096436E1
9.327370431E0,1.363520050E1,6.182754517E0,3.512184906E1
9.344036369E0,8.548059464E0,1.110359478E1,2.920051193E1
9.360702306E0,4.030410767E0,1.608634758E1,2.316670990E1
9.377368244E0,-2.961117961E-2,2.016700745E1,1.783011818E1
9.394034181E0,-4.025026798E0,2.319004059E1,1.259522057E1
9.410700119E0,-7.749155998E0,2.509203529E1,9.169595718E0
9.427366056E0,-9.946066856E0,2.408734894E1,1.148614693E1
9.444031994E0,-1.006480980E1,1.968365860E1,1.916830444E1
9.460697931E0,-7.610372543E0,1.428275871E1,2.618106842E1
9.477363869E0,-2.909971476E0,1.060857964E1,2.972932625E1
9.494029806E0,2.937788010E0,8.397910118E0,3.372474289E1
9.510695744E0,8.563314438E0,4.037290096E0,4.337948227E1
9.527361681E0,1.550489235E1,-4.342673779E0,5.668477249E1
9.544027619E0,2.550120735E1,-1.484118366E1,6.275297165E1
9.560693556E0,3.179672432E1,-2.174298096E1,5.286612701E1
9.577359494E0,2.906741142E1,-2.464338112E1,3.531686401E1
9.594025431E0,2.052742767E1,-2.596691132E1,1.926730728E1
9.610691369E0,1.175683498E1,-2.647448921E1,7.684250832E0
9.627357306E0,6.066702843E0,-2.734218597E1,1.104885817E0
9.644023244E0,2.441875458E0,-2.845185852E1,-3.388236761E0
9.660689181E0,-8.330013752E-1,-2.872733116E1,-9.032905579E0
9.677355119E0,-3.824927092E0,-2.814946556E1,-1.491416454E1
9.694021056E0,-6.648457527E0,-2.734398079E1,-1.769821358E1
9.710686994E0,-9.008678436E0,-2.694408035E1,-1.632802391E1
9.727352931E0,-1.026700401E1,-2.632045174E1,-1.256172085E1
9.744018869E0,-9.685847282E0,-2.544677162E1,-7.552047253E0
9.760684806E0,-7.061219692E0,-2.451416969E1,-2.782852650E0
9.777350744E0,-2.732304335E0,-2.369163704E1,9.529415965E-1
9.794016681E0,2.284248352E0,-2.233849525E1,4.350749969E0
9.810682619E0,7.415058136E0,-1.995973015E1,8.980861664E0
9.827348556E0,1.248275757E1,-1.625593948E1,1.627149391E1
9.844014494E0,1.843849373E1,-1.180439186E1,2.409961319E1
9.860680431E0,2.643022156E1,-6.773482800E0,2.977030373E1
9.877346369E0,3.339184189E1,-6.768696904E-1,3.197259712E1
9.894012306E0,3.509642792E1,4.532604218E0,3.059193802E1
9.910678244E0,3.064338493E1,7.859824181E0,2.883799934E1
9.927344181E0,2.280928230E1,9.828518867E0,2.691805840E1
9.944010119E0,1.530000687E1,1.174457169E1,2.310419846E1
9.960676056E0,1.024905777E1,1.434616852E1,1.803769493E1
9.977341994E0,7.031907558E0,1.730578995E1,1.256501102E1
9.994007931E0,5.276174068E0,1.968784523E1,8.507082939E0
1.001067387E1,5.330909729E0,2.016431618E1,7.808079243E0
1.002733981E1,6.604489803E0,1.900110626E1,1.060678482E1
1.004400574E1,8.391927719E0,1.671266937E1,1.375065422E1
1.006067168E1,1.043599701E1,1.492194080E1,1.472004700E1
1.007733762E1,1.345543957E1,1.418375492E1,1.600409508E1
1.009400356E1,1.750200272E1,1.284227943E1,2.113580322E1
1.011066949E1,2.233281136E1,9.352945328E0,3.088805008E1
1.012733543E1,2.884487915E1,2.703291416E0,4.113142395E1
1.014400137E1,3.439891815E1,-5.419145107E0,4.313990021E1
1.016066731E1,3.449552917E1,-1.176162052E1,3.509971619E1
1.017733324E1,2.744447899E1,-1.498295784E1,2.399791718E1
1.019399918E1,1.739282990E1,-1.686192131E1,1.598854160E1
1.021066512E1,8.805288315E0,-1.911087608E1,1.134347439E1
1.022733106E1,2.764607430E0,-2.168106651E1,7.749754429E0
1.024399699E1,-1.108175993E0,-2.326900291E1,4.007379532E0
1.026066293E1,-3.198904753E0,-2.361536407E1,-3.101696372E-1
1.027732887E1,-5.066802025E0,-2.303181458E1,-5.140979290E0
1.029399481E1,-7.396214962E0,-2.216621208E1,-7.869993687E0
1.031066074E1,-9.407382011E0,-2.184886360E1,-7.643273830E0
1.032732668E1,-1.062981510E1,-2.180908203E1,-5.578567028E0
1.034399262E1,-1.018684387E1,-2.224038887E1,-2.910270452E0
1.036065856E1,-7.500302792E0,-2.251765823E1,-4.136592150E-1
1.037732449E1,-2.441875458E0,-2.164756775E1,6.454638839E-1
1.039399043E1,4.217947960E0,-1.949253082E1,-1.448255897E0
1.041065637E1,1.161745262E1,-1.725464439E1,-3.281756163E0
1.042732231E1,1.834666824E1,-1.284287739E1,4.455734730E0
1.044398824E1,2.519552422E1,-9.644570351E0,1.924158478E1
1.046065418E1,2.937159920E1,-7.732705593E0,2.895554733E1
1.047732012E1,3.037150002E1,-3.195315599E0,2.888974380E1
1.049398606E1,2.743161774E1,2.785843849E0,2.335215378E1
1.051065199E1,2.289512444E1,6.611967087E0,1.898136520E1
1.052731793E1,1.882343864E1,8.667402267E0,1.704377747E1
1.054398387E1,1.463659668E1,1.075334454E1,1.556411457E1
1.056064981E1,1.055533886E1,1.309801197E1,1.408295727E1
1.057731574E1,7.006484032E0,1.586561012E1,1.205653572E1
1.059398168E1,4.251148701E0,1.867388725E1,1.007168961E1
1.061064762E1,2.491526604E0,2.040599060E1,9.549455643E0
1.062731356E1,1.356431365E0,2.040569305E1,1.107398319E1
1.064397949E1,2.063809484E-1,1.866551208E1,1.317518044E1
1.066064543E1,-6.284150481E-1,1.647009659E1,1.421037579E1
1.067731137E1,-5.416752100E-1,1.457438374E1,1.483938885E1
1.069397731E1,-4.905286431E-1,1.226949692E1,1.708206177E1
1.071064324E1,1.159621716E0,8.264211655E0,2.258196449E1
1.072730918E1,7.758129120E0,-1.633101404E-1,3.516252899E1
1.074397512E1,1.414756393E1,-8.592027664E0,4.673062897E1
1.076064106E1,1.897179413E1,-1.615484238E1,4.500331116E1
1.077730699E1,1.889013863E1,-1.972373772E1,3.104448128E1
1.079397293E1,1.666959953E1,-2.077059746E1,1.809661865E1
1.081063887E1,1.477089405E1,-2.116451645E1,9.806385040E0
1.082730481E1,1.276690483E1,-2.041855431E1,4.844269276E0
1.084397074E1,1.089661503E1,-1.917189407E1,2.424228430E0
1.086063668E1,9.107980728E0,-1.827937126E1,1.458724499E0
1.087730262E1,6.398108482E0,-1.694387627E1,4.866403043E-1
1.089396856E1,2.517249346E0,-1.466949844E1,-1.383649707E0
1.091063449E1,-2.872583628E0,-1.080838013E1,-4.443770885E0
1.092730043E1,-8.919844627E0,-5.549254894E0,-7.025925636E0
1.094396637E1,-1.293051434E1,-1.742872238E0,-5.934200287E0
1.096063231E1,-1.477567959E1,-5.144568533E-2,-2.829512656E-1
1.097729824E1,-1.429561996E1,5.575276613E-1,6.958926678E0
1.099396418E1,-1.112572765E1,9.550353289E-1,1.158694458E1
1.101063012E1,-4.459623337E0,1.572084427E0,1.179631615E1
1.102729606E1,5.056034088E0,2.600399971E0,8.612068176E0
1.104396199E1,1.469671631E1,2.632703066E0,6.824030876E0
1.106062793E1,2.007488441E1,1.219741344E0,1.049162960E1
1.107729387E1,2.261157608E1,-2.440080881E0,1.724656868E1
1.109395981E1,2.358545494E1,-4.599603176E0,2.020768547E1
1.111062574E1,2.370629120E1,-4.695316315E0,1.712752533E1
1.112729168E1,2.005125618E1,-3.180360317E0,9.852148056E0
1.114395762E1,1.134706402E1,-3.406781256E-1,1.366301775E0
1.116062356E1,1.421635747E0,2.966800928E0,-3.176172972E0
1.117728949E1,-5.666203976E0,5.554339409E0,-1.338784218E0
1.119395543E1,-8.427222252E0,5.641079426E0,4.455136776E0
1.121062137E1,-6.352046967E0,3.808476448E0,9.626026154E0
1.122728731E1,-2.458625287E-1,1.974078655E0,1.014766216E1
1.124395324E1,6.707081795E0,2.528914452E0,9.109476089E0
1.126061918E1,1.214865971E1,4.834698200E0,1.184207916E1
1.127728512E1,1.709911156E1,4.364209175E0,1.917757607E1
1.129395106E1,2.092044830E1,-2.868396044E-1,2.428385925E1
1.131061699E1,1.986969948E1,-3.592823267E0,2.141247177E1
1.132728293E1,1.292901897E1,-3.045166016E0,1.465603828E1
1.134394887E1,3.726522207E0,-8.174480200E-1,1.106022453E1
1.136061481E1,-3.634697676E0,1.524826288E0,1.189262772E1
1.137728074E1,-6.318846226E0,2.327019930E0,1.225573826E1
1.139394668E1,-4.555934429E0,1.639980793E0,8.883354187E0
1.141061262E1,5.593222976E-1,1.085743308E0,3.365804195E0
1.142727856E1,6.103492260E0,1.414756417E0,-9.532406926E-1
1.144394449E1,9.116354942E0,3.371487141E0,-2.216950178E0
1.146061043E1,1.099561787E1,4.987539768E0,1.923231244E0
1.147727637E1,1.419960785E1,4.482355118E0,1.092802143E1
1.149394231E1,1.906601143E1,2.071287155E0,2.055315018E1
1.151060824E1,2.397159576E1,-1.642074585E0,2.504388046E1
1.152727418E1,2.313261223E1,-2.607279301E0,2.334437752E1
1.154394012E1,1.697169304E1,-2.582154751E0,1.921466446E1
1.156060606E1,1.003878784E1,-3.116352320E0,1.637587929E1
1.157727199E1,4.630411148E0,-3.744169235E0,1.353888988E1
1.159393793E1,1.643869162E0,-4.389034748E0,1.010818005E1
1.161060387E1,9.520443082E-1,-4.976771832E0,7.643871784E0
1.162726981E1,2.074577332E0,-5.265406132E0,5.700900078E0
1.164393574E1,3.751646757E0,-5.358427048E0,2.915953398E0
1.166060168E1,4.371686935E0,-4.820042133E0,-3.646063507E-1
1.167726762E1,3.538386583E0,-3.155833960E0,-3.388834953E0
1.169393356E1,1.737488389E0,-2.030908167E-1,-5.076373100E0
1.171059949E1,-1.408774406E-1,3.170190811E0,-4.308875561E0
1.172726543E1,-1.253240824E0,6.820441723E0,-7.459624410E-1
1.174393137E1,-4.124628007E-1,1.183819103E1,4.253840446E0
1.176059731E1,2.358126640E0,1.761147308E1,9.878767967E0
1.177726324E1,5.910571098E0,2.335364914E1,1.709342766E1
1.179392918E1,1.034536839E1,2.651127815E1,2.605275345E1
1.181059512E1,1.639083481E1,2.601955414E1,3.387818146E1
1.182726106E1,2.303330994E1,2.239113617E1,3.722603989E1
1.184392699E1,2.781267548E1,1.608694649E1,3.552653503E1
1.186059293E1,2.933660316E1,7.741678715E0,3.083660507E1
1.187725887E1,2.744776917E1,-5.730810165E-1,2.568784904E1
1.189392481E1,2.328066826E1,-8.171489716E0,2.068176460E1
1.191059074E1,1.807777596E1,-1.594098473E1,1.586052608E1
1.192725668E1,1.195005512E1,-2.247369003E1,1.063848972E1
1.194392262E1,5.167898655E0,-2.615773964E1,4.392025948E0
1.196058856E1,-1.457827210E0,-2.823111916E1,-2.656033039E0
1.197725449E1,-7.253243446E0,-2.949692345E1,-7.120740891E0
1.199392043E1,-1.086909771E1,-3.059762192E1,-7.452445984E0
1.201058637E1,-1.177747345E1,-3.176322556E1,-5.032404900E0
1.202725231E1,-9.007481575E0,-3.274248886E1,-4.043870270E-1
1.204391824E1,-2.117049932E0,-3.295335388E1,4.126422882E0
1.206058418E1,8.256733894E0,-3.161128044E1,5.023432255E0
1.207725012E1,1.963131523E1,-2.952683258E1,3.804887056E0
1.209391606E1,2.800320435E1,-2.537857628E1,5.799603939E0
1.211058199E1,3.279423141E1,-2.046282196E1,1.477597904E1
1.212724793E1,3.330629730E1,-1.395015621E1,3.233301544E1
1.214391387E1,3.337120056E1,-4.224827290E0,4.873461914E1
1.216057981E1,3.440968704E1,8.577970505E0,5.006383133E1
1.217724574E1,3.546312714E1,2.216531372E1,3.854597855E1
1.219391168E1,3.244667435E1,3.137588692E1,2.794218636E1
1.221057762E1,2.479741859E1,3.532105255E1,2.160270119E1
1.222724356E1,1.551356697E1,3.625096512E1,1.602892113E1
1.224390949E1,8.704490662E0,3.444109344E1,1.337797260E1
1.226057543E1,5.697310925E0,2.946701241E1,1.725913048E1
1.227724137E1,5.497210979E0,2.245364952E1,2.559692192E1
1.229390731E1,7.770093441E0,1.533589935E1,3.469054413E1
1.231057324E1,1.326640701E1,8.983852386E0,4.304777527E1
1.232723918E1,1.985384750E1,3.299403429E0,4.863920593E1
1.234390512E1,2.702124786E1,-2.597707987E0,5.302106094E1
1.236057106E1,3.407469177E1,-1.105334473E1,5.400152206E1
1.237723699E1,3.729483414E1,-2.074188423E1,4.830480957E1
1.239390293E1,3.514039612E1,-2.809413147E1,3.871886063E1
1.241056887E1,2.830529785E1,-3.301287842E1,2.779951477E1
1.242723481E1,1.842862320E1,-3.512334442E1,1.718943977E1
1.244390074E1,7.910372734E0,-3.422245026E1,7.661220074E0
1.246056668E1,-9.813563824E-1,-3.141895866E1,1.618146300E-1
1.247723262E1,-6.811169624E0,-2.905185699E1,-2.980260611E0
1.249389856E1,-1.050060272E1,-2.907728195E1,-2.888735056E0
1.251056449E1,-1.294008541E1,-3.144378281E1,-2.978166819E0
1.252723043E1,-1.497727489E1,-3.471237946E1,-2.395813704E0
1.254389637E1,-1.594427490E1,-3.675555038E1,-3.888336942E-2
1.256056231E1,-1.265892887E1,-3.817479324E1,4.220340729E0
1.257722824E1,-3.774677753E0,-3.870241165E1,8.372785568E0
1.259389418E1,9.198608398E0,-3.745305634E1,1.083649540E1
1.261056012E1,2.359353065E1,-3.412314606E1,1.491805267E1
1.262722606E1,3.476352692E1,-2.784946442E1,2.570340157E1
1.264389199E1,3.975465393E1,-1.923410606E1,4.197698975E1
1.266055793E1,3.828276825E1,-1.027238750E1,5.396562958E1
1.267722387E1,3.117339516E1,-1.402792215E0,5.502474976E1
1.269388981E1,2.233999062E1,6.125326633E0,4.939294434E1
1.271055574E1,1.410000610E1,1.309083366E1,4.224169540E1
1.272722168E1,8.715856552E0,1.941954994E1,3.317229843E1
1.274388762E1,5.623432159E0,2.485813713E1,2.301656151E1
1.276055356E1,2.639582396E0,2.929143906E1,1.452742481E1
1.277721949E1,-8.282157183E-1,3.134268570E1,9.580264091E0
1.279388543E1,-3.067598581E0,2.979004288E1,9.201300621E0
1.281055137E1,-3.399602890E0,2.514168739E1,1.433031559E1
1.282721731E1,-2.342872381E0,1.938126564E1,2.605723953E1
1.284388324E1,1.121037364E0,1.398485184E1,4.183431625E1
1.286054918E1,7.706085205E0,8.644968987E0,5.624539185E1
1.287721512E1,1.675185204E1,4.597210586E-1,6.614659119E1
1.289388106E1,2.492094803E1,-1.077876854E1,6.665327454E1
1.291054699E1,2.859094048E1,-2.031057739E1,5.757878876E1
1.292721293E1,2.663121796E1,-2.685105896E1,4.352514648E1
1.294387887E1,1.929153442E1,-3.018785095E1,2.757997322E1
1.296054481E1,9.957731247E0,-3.076182938E1,1.252104282E1
1.297721074E1,2.024028778E0,-2.963570595E1,1.603191197E-1
1.299387668E1,-3.499802113E0,-2.856073189E1,-5.706583023E0
1.301054262E1,-8.443373680E0,-2.921995354E1,-5.028815746E0
1.302720856E1,-1.349821186E1,-3.068765068E1,-2.572284460E0
1.304387449E1,-1.637946892E1,-3.220649719E1,-2.347358942E0
1.306054043E1,-1.611984825E1,-3.357010651E1,-2.766103029E0
1.307720637E1,-1.432582951E1,-3.411357498E1,-1.617249012E0
1.309387231E1,-1.041924667E1,-3.511018753E1,2.213361025E0
1.311053824E1,-3.966103554E0,-3.844248962E1,9.178568840E0
1.312720418E1,5.122435093E0,-4.097319794E1,1.718644905E1
1.314387012E1,1.853031731E1,-3.872903061E1,2.307369041E1
1.316053606E1,3.065714264E1,-3.171297646E1,2.893700218E1
1.317720199E1,3.714019775E1,-2.241446686E1,4.099563217E1
1.319386793E1,3.742224884E1,-1.456212044E1,5.084867859E1
1.321053387E1,3.255913925E1,-6.532405853E0,5.115406036E1
1.322719981E1,2.740469933E1,1.899003863E0,4.538945389E1
1.324386574E1,2.264178467E1,9.656235695E0,3.436930847E1
1.326053168E1,1.833111572E1,1.552582932E1,2.271057892E1
1.327719762E1,1.369681549E1,2.004856300E1,1.341685581E1
1.329386356E1,9.364909172E0,2.281586266E1,6.838387966E0
1.331052949E1,4.582554340E0,2.383251381E1,2.477169752E0
1.332719543E1,-1.131805062E0,2.358395958E1,5.362913609E-1
1.334386137E1,-5.744868279E0,2.175045967E1,1.440479279E0
1.336052731E1,-6.990332127E0,1.849711800E1,6.176174164E0
1.337719324E1,-4.498506546E0,1.442363548E1,1.468804264E1
1.339385918E1,1.470688581E0,1.089751244E1,2.445674133E1
1.341052512E1,1.192433262E1,8.717949867E0,3.265395355E1
1.342719106E1,2.309791756E1,4.786841869E0,4.086343002E1
1.344385699E1,3.089313507E1,-2.979961395E0,5.008805847E1
1.346052293E1,3.595515060E1,-1.276002598E1,5.552903748E1
1.347718887E1,3.614837265E1,-2.059472466E1,5.059174728E1
1.349385481E1,3.085574722E1,-2.425155640E1,3.773212051E1
1.351052074E1,2.235225296E1,-2.549642181E1,2.448754883E1
1.352718668E1,1.331815147E1,-2.565704155E1,1.424237919E1
1.354385262E1,5.742774487E0,-2.525385094E1,6.106782436E0
1.356051856E1,4.983053207E-1,-2.452254295E1,5.084748194E-2
1.357718449E1,-2.763710260E0,-2.417857552E1,-4.531108856E0
1.359385043E1,-5.157131195E0,-2.371197510E1,-8.697610855E0
1.361051637E1,-6.958926678E0,-2.351875496E1,-1.224407387E1
1.362718231E1,-8.895019531E0,-2.374696922E1,-1.428126240E1
1.364384824E1,-1.091785145E1,-2.412413788E1,-1.415175152E1
1.366051418E1,-1.172542953E1,-2.459313202E1,-1.127169037E1
1.367718012E1,-1.016142082E1,-2.484168625E1,-6.436692715E0
1.369384606E1,-6.579664230E0,-2.484677124E1,-2.120339870E0
1.371051199E1,-1.464108348E0,-2.437807655E1,1.150947690E0
1.372717793E1,4.770390987E0,-2.341705894E1,3.840480328E0
1.374384387E1,1.166530991E1,-2.289033890E1,6.396912098E0
1.376050981E1,1.692263985E1,-2.046431732E1,1.392054462E1
1.377717574E1,2.159701920E1,-1.737219238E1,2.700270462E1
1.379384168E1,2.540788841E1,-1.276032448E1,3.733341599E1
1.381050762E1,2.672364235E1,-5.670989513E0,3.709114456E1
1.382717356E1,2.492035103E1,2.306381941E0,3.085335350E1
1.384383949E1,2.084896278E1,8.324031830E0,2.542374039E1
1.386050543E1,1.596760464E1,1.292513084E1,2.004258156E1
1.387717137E1,1.186421299E1,1.768595123E1,1.446730518E1
1.389383731E1,9.016156197E0,2.205673981E1,9.789336205E0
1.391050324E1,7.226922512E0,2.536272430E1,6.656533718E0
1.392716918E1,6.561419010E0,2.662344170E1,6.397809505E0
1.394383512E1,6.451648235E0,2.466401863E1,9.491130829E0
1.396050106E1,6.584748745E0,1.980748749E1,1.436411476E1
1.397716699E1,7.334898949E0,1.453609848E1,1.888355827E1
1.399383293E1,9.300004005E0,9.778269768E0,2.234447670E1
1.401049887E1,1.292572880E1,4.141676903E0,2.626242447E1
1.402716481E1,1.693789482E1,-2.067099571E0,3.332364273E1
1.404383074E1,1.843639946E1,-7.627720356E0,4.001935959E1
1.406049668E1,1.809422493E1,-1.160608673E1,3.892135239E1
1.407716262E1,1.575643826E1,-1.293320656E1,3.170729256E1
1.409382856E1,1.230000591E1,-1.314018536E1,2.511745834E1
1.411049449E1,8.852247238E0,-1.372552967E1,1.949881172E1
1.412716043E1,5.717350483E0,-1.440150261E1,1.368186092E1
1.414382637E1,3.262314558E0,-1.532513142E1,8.240582466E0
1.416049231E1,1.471286774E0,-1.643629837E1,3.115455151E0
1.417715824E1,4.815555736E-2,-1.728664780E1,-1.365404367E0
1.419382418E1,-9.397810698E-1,-1.780678749E1,-4.106083870E0
1.421049012E1,-1.572981834E0,-1.830838394E1,-5.274379253E0
1.422715606E1,-2.047957182E0,-1.865534210E1,-5.191826820E0
1.424382199E1,-2.120339870E0,-1.831346893E1,-3.846163273E0
1.426048793E1,-7.082754970E-1,-1.699292946E1,-2.725425005E0
1.427715387E1,1.341476202E0,-1.414457321E1,-1.885843396E0
1.429381981E1,3.988237143E0,-9.817452431E0,2.775076151E0
1.431048574E1,7.383054256E0,-5.373980522E0,1.228116226E1
1.432715168E1,9.202198029E0,-2.380260229E0,1.961336899E1
1.434381762E1,7.373483181E0,1.715952992E0,2.167867470E1
1.436048356E1,5.231906891E0,6.611369133E0,1.856501389E1
1.437714949E1,5.295017242E0,1.123041439E1,1.335195065E1
1.439381543E1,6.729514599E0,1.380389500E1,9.235996246E0
1.441048137E1,9.624830246E0,1.236401367E1,7.849953651E0
1.442714731E1,1.356072426E1,8.246563911E0,8.223832130E0
1.444381324E1,1.777268982E1,4.667499542E0,7.954938889E0
1.446047918E1,2.093929100E1,3.032603502E0,7.047161579E0
1.447714512E1,2.147737694E1,1.986940145E0,6.836892605E0
1.449381106E1,1.924068642E1,4.666004330E-2,6.305386543E0
1.451047699E1,1.258205986E1,-4.423730969E-1,4.123132706E0
1.452714293E1,2.630310297E0,2.086840391E0,1.750349760E0
1.454380887E1,-4.864010334E0,4.219144344E0,2.166401863E0
1.456047481E1,-7.836793423E0,4.716253281E0,5.893821239E0
1.457714074E1,-7.884948730E0,4.643272400E0,8.481958389E0
1.459380668E1,-7.256234646E0,5.147858620E0,7.349554539E0
1.461047262E1,-5.775675774E0,5.874678612E0,6.576673031E0
1.462713856E1,-3.302095175E0,5.668895721E0,8.369195938E0
1.464380449E1,3.260220960E-2,5.103292465E0,9.526425362E0
1.466047043E1,4.018446445E0,5.316552639E0,1.137218857E1
1.467713637E1,8.733802795E0,3.105883837E0,1.689392662E1
1.469380231E1,1.464078426E1,-2.870489836E0,2.381366920E1
1.471046824E1,1.999950981E1,-7.472784996E0,2.637219620E1
1.472713418E1,2.208994102E1,-9.067601204E0,2.373321152E1
1.474380012E1,1.966122627E1,-9.478269577E0,1.994716835E1
1.476046606E1,1.236670589E1,-8.223234177E0,1.532064533E1
1.477713199E1,3.651746511E0,-5.402096272E0,9.179166794E0
1.479379793E1,-3.645465374E0,-1.468594909E0,2.619542599E0
1.481046387E1,-8.745168686E0,2.494816780E0,-1.342074394E0
1.482712981E1,-1.035194874E1,4.770989418E0,-7.178468108E-1
1.484379574E1,-8.881858826E0,5.999703884E0,2.505584478E0
1.486046168E1,-6.199504375E0,5.911468506E0,6.351149559E0
1.487712762E1,-3.057728291E0,4.143770695E0,9.191130638E0
1.489379356E1,1.210768223E0,1.657029629E0,9.862318039E0
1.491045949E1,7.168597698E0,5.350949764E-1,7.688737392E0
1.492712543E1,1.432493210E1,1.920240223E-1,4.109074593E0
1.494379137E1,2.088665009E1,-2.398206472E0,3.924827337E0
1.496045731E1,2.314487648E1,-8.812167168E0,1.021735287E1
1.497712324E1,1.971386719E1,-1.422473240E1,1.806670761E1
1.499378918E1,1.384158134E1,-1.558505249E1,2.011556244E1
1.501045512E1,8.061120033E0,-1.294876003E1,1.807358742E1
1.502712106E1,5.353641510E0,-9.495018959E0,1.497009659E1
1.504378699E1,5.997909069E0,-7.129714012E0,1.103480053E1
1.506045293E1,6.700501442E0,-5.542076111E0,7.633104324E0
1.507711887E1,6.288038731E0,-4.026821613E0,7.313662529E0
1.509378481E1,5.352744102E0,-2.776272535E0,9.784550667E0
1.511045074E1,4.262215137E0,-1.255932808E0,1.281266785E1
1.512711668E1,3.450151205E0,3.164508045E-1,1.530628872E1
1.514378262E1,3.431307554E0,1.879562140E0,1.677219200E1
1.516044856E1,4.968098164E0,3.582952738E0,1.614646721E1
1.517711449E1,6.859025955E0,5.388935566E0,1.491087437E1
1.519378043E1,7.426125050E0,7.145865917E0,1.472632790E1
1.521044637E1,6.365506649E0,9.350552559E0,1.454118347E1
1.522711231E1,4.060021877E0,1.234935760E1,1.372792244E1
1.524377824E1,9.774680734E-1,1.580070496E1,1.184836006E1
1.526044418E1,-2.949153900E0,1.900409698E1,1.016411209E1
1.527711012E1,-6.568896294E0,2.110948181E1,1.085922718E1
1.529377606E1,-8.974281311E0,2.168944168E1,1.572174168E1
1.531044199E1,-7.952546120E0,2.015893173E1,2.476541519E1
1.532710793E1,-3.093321562E0,1.634088516E1,3.540988541E1
1.534377387E1,3.119343519E0,1.174277687E1,4.453670883E1
1.536043981E1,9.282656670E0,6.271588326E0,5.171786880E1
1.537710574E1,1.568435383E1,-1.177866936E0,5.405266571E1
1.539377168E1,2.052234268E1,-9.205188751E0,5.022116089E1
1.541043762E1,2.164696884E1,-1.570678711E1,4.196681976E1
1.542710356E1,1.854886246E1,-2.035933113E1,3.195435143E1
1.544376949E1,1.280309677E1,-2.362942314E1,2.265464592E1
1.546043543E1,6.886842728E0,-2.573450851E1,1.321795273E1
1.547710137E1,2.487040043E0,-2.682055092E1,3.475873947E0
1.549376731E1,-8.437690735E-1,-2.857179832E1,-2.935395241E0
1.551043324E1,-4.927719116E0,-3.054318428E1,-4.498207569E0
1.552709918E1,-9.718449593E0,-3.317678452E1,-3.094517946E0
1.554376512E1,-1.401296806E1,-3.693052673E1,-2.001895189E0
1.556043106E1,-1.681705666E1,-4.002923203E1,-1.026820064E0
1.557709699E1,-1.447687626E1,-4.165814590E1,2.869293451E0
1.559376293E1,-5.339583874E0,-4.204578400E1,9.072386742E0
1.561042887E1,9.203095436E0,-4.101477432E1,1.432553005E1
1.562709481E1,2.375923347E1,-3.773840332E1,1.897986984E1
1.564376074E1,3.146561813E1,-3.213590622E1,2.865106010E1
1.566042668E1,3.127748299E1,-2.514946365E1,4.182354736E1
1.567709262E1,2.789223671E1,-1.645454407E1,5.525296783E1
1.569375856E1,2.553351212E1,-7.095317364E0,6.031558228E1
1.571042449E1,2.512673187E1,1.481755376E0,5.569055557E1
1.572709043E1,2.586671257E1,1.034297562E1,4.404319000E1
1.574375637E1,2.447109795E1,1.884347916E1,3.130709267E1
1.576042231E1,2.014666939E1,2.448964310E1,2.061117554E1
1.577708824E1,1.327567959E1,2.785245514E1,1.244417286E1
1.579375418E1,6.224030972E0,2.971885681E1,7.954340458E0
1.581042012E1,5.670989752E-1,2.986362267E1,7.666903019E0
1.582708606E1,-2.080559254E0,2.733859634E1,1.153400326E1
1.584375199E1,-1.578066587E0,2.229033852E1,1.979612160E1
1.586041793E1,2.209173441E0,1.721396637E1,2.955614471E1
1.587708387E1,8.382356644E0,1.399741459E1,3.608346558E1
1.589374981E1,1.581984806E1,1.066600704E1,4.112125397E1
1.591041574E1,2.334736824E1,2.970091105E0,4.796801758E1
1.592708168E1,3.004129028E1,-8.509475708E0,5.400630569E1
1.594374762E1,3.384498215E1,-1.879532242E1,5.394439316E1
1.596041356E1,3.319144058E1,-2.527448845E1,4.598646164E1
1.597707949E1,2.785963440E1,-2.817608452E1,3.522743225E1
1.599374543E1,1.998006821E1,-2.875335312E1,2.563999176E1
1.601041137E1,1.155703449E1,-2.786561584E1,1.629930878E1
1.602707731E1,4.152743816E0,-2.614487839E1,7.661519051E0
1.604374324E1,-1.375573874E0,-2.550958252E1,1.415055513E0
1.606040918E1,-5.604887962E0,-2.648914528E1,-3.457927704E0
1.607707512E1,-9.499805450E0,-2.802234650E1,-8.174480438E0
1.609374106E1,-1.304088306E1,-2.985255623E1,-1.204367447E1
1.611040699E1,-1.528295803E1,-3.059642410E1,-1.449721527E1
1.612707293E1,-1.553031635E1,-2.997100067E1,-1.436561012E1
1.614373887E1,-1.341565895E1,-3.002812958E1,-1.058345413E1
1.616040481E1,-9.218947411E0,-3.183859825E1,-3.675375462E0
1.617707074E1,-4.417748928E0,-3.357907867E1,4.290630341E0
1.619373668E1,2.051247120E0,-3.343132019E1,9.235398293E0
1.621040262E1,1.127587795E1,-3.113899803E1,1.164975643E1
1.622706856E1,2.057468605E1,-2.604348183E1,1.673629951E1
1.624373449E1,2.805764008E1,-2.156381798E1,2.590948296E1
1.626040043E1,3.160589790E1,-1.826292038E1,3.609752274E1
1.627706637E1,3.091945648E1,-1.177537918E1,3.808745575E1
1.629373231E1,2.841805840E1,-3.350250721E0,3.202763367E1
1.631039824E1,2.375384903E1,3.249752283E0,2.525145721E1
1.632706418E1,1.784955978E1,7.217949390E0,2.124168396E1
1.634373012E1,1.234756279E1,1.020090199E1,1.830599022E1
1.636039606E1,8.556135178E0,1.248754311E1,1.550907993E1
1.637706199E1,6.459125519E0,1.464018631E1,1.265713406E1
1.639372793E1,5.044070244E0,1.706471443E1,1.020808029E1
1.641039387E1,3.451646566E0,1.938814545E1,9.501300812E0
1.642705981E1,1.862214208E0,2.054537392E1,1.092473125E1
1.644372574E1,6.346961856E-1,2.012244225E1,1.275195026E1
1.646039168E1,3.628117442E-1,1.856381798E1,1.345095348E1
1.647705762E1,1.425823212E0,1.605912971E1,1.345693588E1
1.649372356E1,3.416053534E0,1.291526031E1,1.498953819E1
1.651038949E1,6.163013935E0,8.388637543E0,1.905225182E1
1.652705543E1,1.061725330E1,2.235793591E0,2.587149811E1
1.654372137E1,2.021097565E1,-6.321238995E0,3.843561172E1
1.656038731E1,3.267758179E1,-1.585424423E1,5.029653549E1
1.657705324E1,4.043989944E1,-2.309612274E1,4.817140961E1
1.659371918E1,3.801926041E1,-2.525414848E1,3.829264069E1
1.661038512E1,2.892533684E1,-2.550778770E1,3.203989410E1
1.662705106E1,1.815045738E1,-2.530469704E1,2.563012123E1
1.664371699E1,9.473184586E0,-2.391087914E1,1.737338829E1
1.666038293E1,4.807180882E0,-2.272164536E1,9.278469086E0
1.667704887E1,2.330908298E0,-2.205374908E1,2.676970363E-1
1.669371481E1,3.068794906E-1,-2.134248161E1,-9.749555588E0
1.671038074E1,-2.737688303E0,-2.054088783E1,-1.761177254E1
1.672704668E1,-6.422635078E0,-2.024477577E1,-2.149921227E1
1.674371262E1,-9.895816803E0,-2.019392776E1,-2.231695938E1
1.676037856E1,-1.185523987E1,-2.059322929E1,-2.058934212E1
1.677704449E1,-1.167846966E1,-2.093091774E1,-1.594876099E1
1.679371043E1,-9.303893089E0,-2.074726868E1,-9.401699066E0
1.681037637E1,-5.040181637E0,-2.008325958E1,-3.276970625E0
1.682704231E1,5.641079545E-1,-1.845165443E1,1.980958104E0
1.684370824E1,6.697211266E0,-1.633370590E1,6.358626842E0
1.686037418E1,1.214925766E1,-1.476610851E1,8.462516785E0
1.687704012E1,1.470060539E1,-1.386790276E1,1.094267750E1
1.689370606E1,1.563021660E1,-1.307199001E1,2.069761658E1
1.691037199E1,1.572443390E1,-1.256201935E1,3.162444115E1
1.692703793E1,1.545703602E1,-1.041625595E1,3.346960831E1
1.694370387E1,1.546780396E1,-7.144370079E0,2.797000313E1
1.696036981E1,1.487916946E1,-3.483650684E0,2.302164650E1
1.697703574E1,1.297627735E1,-7.725825906E-1,2.082413673E1
1.699370168E1,1.034177971E1,9.373882413E-1,1.928465462E1
1.701036762E1,7.701898098E0,2.358724833E0,1.821296883E1
1.702703356E1,6.387639999E0,4.237389565E0,1.678176308E1
1.704369949E1,6.622136593E0,6.637391090E0,1.374317646E1
1.706036543E1,6.979863644E0,9.241679192E0,9.419645309E0
1.707703137E1,6.600601196E0,1.148495007E1,6.092724800E0
1.709369731E1,5.035396099E0,1.289432335E1,5.502594948E0
1.711036324E1,2.577069998E0,1.345723438E1,7.103692055E0
1.712702918E1,5.703890920E-1,1.337857056E1,9.008678436E0
1.714369512E1,1.749751568E-1,1.269661617E1,9.899406433E0
1.716036106E1,9.906286001E-1,1.139342499E1,1.012582684E1
1.717702699E1,2.216351986E0,9.551250458E0,1.106112194E1
1.719369293E1,3.576671600E0,7.441678524E0,1.271127224E1
1.721035887E1,7.079464912E0,3.965804338E0,1.659572029E1
1.722702481E1,1.303908920E1,-1.397707582E0,2.765026283E1
1.724369074E1,1.836700821E1,-8.106583595E0,3.924647903E1
1.726035668E1,2.126142502E1,-1.337707520E1,3.995804596E1
1.727702262E1,1.965584183E1,-1.408445358E1,3.276850891E1
1.729368856E1,1.509033585E1,-1.429262829E1,2.725305367E1
1.731035449E1,1.010668468E1,-1.495095444E1,2.259901428E1
1.732702043E1,6.253642082E0,-1.454776382E1,1.696421432E1
1.734368637E1,4.256831646E0,-1.333041477E1,1.152084255E1
1.736035231E1,3.633501291E0,-1.192642593E1,6.628716946E0
1.737701824E1,3.383152008E0,-1.054576778E1,2.555833578E0
1.739368418E1,3.213560820E0,-9.440881729E0,-1.235294715E-1
1.741035012E1,2.955136061E0,-8.825627327E0,-1.851745605E0
1.742701606E1,2.622832775E0,-8.456534386E0,-3.291327477E0
1.744368199E1,2.121835470E0,-8.242675781E0,-5.124528885E0
1.746034793E1,1.220040441E0,-7.916354656E0,-6.862017155E0
1.747701387E1,2.338984162E-1,-7.475477219E0,-7.950153351E0
1.749367981E1,-6.047859192E-1,-7.185347080E0,-8.005187988E0
1.751034574E1,-1.036391258E0,-6.990930557E0,-6.990332127E0
1.752701168E1,-1.266102314E0,-6.955636501E0,-5.494219780E0
1.754367762E1,-1.377069473E0,-6.929913521E0,-3.862314939E0
1.756034356E1,-9.266205430E-1,-7.012764931E0,-2.166401863E0
1.757700949E1,3.254238665E-1,-7.326224804E0,-1.603191197E-1
1.759367543E1,2.544168711E0,-7.919046402E0,2.504986286E0
1.761034137E1,6.097510338E0,-8.829216003E0,3.973880291E0
1.762700731E1,1.018893814E1,-9.242876053E0,7.089634418E0
1.764367324E1,1.196441269E1,-8.391927719E0,1.792104530E1
1.766033918E1,1.158156109E1,-9.335597992E0,3.564378357E1
1.767700512E1,1.119511986E1,-9.062516212E0,4.340251160E1
1.769367106E1,1.039083195E1,-6.413064003E0,3.672713470E1
1.771033699E1,9.033802986E0,-2.438884497E0,2.634587479E1
1.772700293E1,7.807481289E0,1.149153113E0,1.739791489E1
1.774366887E1,6.955636501E0,3.528516054E0,1.050568771E1
1.776033481E1,6.537191391E0,4.906782150E0,6.781857491E0
1.777700074E1,6.525526524E0,5.643771172E0,5.621936798E0
1.779366668E1,6.402894497E0,5.914160252E0,5.613262653E0
1.781033262E1,5.981159210E0,6.013462543E0,5.573482037E0
1.782699856E1,5.350650311E0,6.306882381E0,4.676173687E0
1.784366449E1,4.261318207E0,6.478268147E0,3.322733402E0
1.786033043E1,2.737987280E0,6.513263226E0,2.161616087E0
1.787699637E1,1.097109199E0,6.422934055E0,1.536790371E0
1.789366231E1,-4.304089844E-1,6.142973900E0,1.526022673E0
1.791032824E1,-1.482353687E0,5.612664700E0,2.042274237E0
1.792699418E1,-1.755733609E0,4.991727352E0,3.137289524E0
1.794366012E1,-1.556830287E0,4.781756878E0,4.474877357E0
1.796032606E1,-8.802596331E-1,5.073980331E0,6.037390709E0
1.797699199E1,1.108774185E0,4.687838554E0,1.216720390E1
1.799365793E1,3.991527319E0,1.600200176E0,2.385913277E1
1.801032387E1,7.515556812E0,-3.470191002E0,3.454099274E1
1.802698981E1,1.119362450E1,-6.494719028E0,3.607150269E1
1.804365574E1,1.201914787E1,-5.786742687E0,2.989233780E1
1.806032168E1,9.629017830E0,-4.777569294E0,2.438346100E1
1.807698762E1,6.218048573E0,-5.276772022E0,2.009941101E1
1.809365356E1,3.390031576E0,-5.762814045E0,1.590329742E1
1.811031949E1,1.947458506E0,-5.313262463E0,1.221864986E1
1.812698543E1,1.604088426E0,-4.476073742E0,9.237193108E0
1.814365137E1,1.989332914E0,-3.526123285E0,6.841678143E0
1.816031731E1,2.529213428E0,-2.613859653E0,4.807479858E0
1.817698324E1,2.796312332E0,-1.949851394E0,3.150749207E0
1.819364918E1,2.758027315E0,-1.568196177E0,2.311466694E0
1.821031512E1,2.573480844E0,-1.470090389E0,2.065304995E0
1.822698106E1,2.396710873E0,-1.607976794E0,1.999203324E0
1.824364699E1,2.455634356E0,-1.893021822E0,1.943869352E0
1.826031293E1,2.648256540E0,-2.240878344E0,1.940579176E0
1.827697887E1,2.942274570E0,-2.312364101E0,2.028216362E0
1.829364481E1,3.234498024E0,-2.110469580E0,1.849951029E0
1.831031074E1,3.656532049E0,-1.923231244E0,1.412363529E0
1.832697668E1,4.251148701E0,-1.948056698E0,9.918249846E-1
1.834364262E1,5.208576679E0,-2.231606245E0,9.846464992E-1
1.836030856E1,6.730112553E0,-2.493321180E0,1.583151340E0
1.837697449E1,7.637590885E0,-1.390229940E0,4.280460835E0
1.839364043E1,7.011867523E0,6.747759581E-1,1.071356392E1
1.841030637E1,6.473781586E0,3.290131222E-3,2.003719711E1
1.842697231E1,6.391827583E0,-2.241775751E0,2.598306274E1
1.844363824E1,6.699604511E0,-2.345863581E0,2.523351097E1
1.846030418E1,6.752545357E0,-4.438686073E-1,2.076461601E1
1.847697012E1,6.336493492E0,1.560120344E0,1.631546211E1
1.849363606E1,5.308476925E0,2.703889608E0,1.295145130E1
1.851030199E1,3.910470486E0,3.194418192E0,1.058405304E1
1.852696793E1,2.798106909E0,3.071187973E0,9.422038078E0
1.854363387E1,1.873879194E0,2.728715181E0,8.978767395E0
1.856029981E1,1.003789067E0,2.427817583E0,8.740981102E0
1.857696574E1,3.963112533E-1,2.312064886E0,8.477770805E0
1.859363168E1,3.005983531E-1,2.370988131E0,8.006683350E0
1.861029762E1,4.277170599E-1,2.540878534E0,7.282256603E0
1.862696356E1,6.927221417E-1,2.535793781E0,6.704988003E0
1.864362949E1,8.533403873E-1,2.610868692E0,6.343372822E0
1.866029543E1,9.667003751E-1,2.568695068E0,5.924928188E0
1.867696137E1,8.895317912E-1,2.477169752E0,5.675177097E0
1.869362731E1,7.935197949E-1,2.449652195E0,6.007181168E0
1.871029324E1,8.350951076E-1,2.407179594E0,6.899405003E0
1.872695918E1,1.092323542E0,2.280958176E0,8.147261620E0
1.874362512E1,1.561915040E0,1.936391711E0,9.289237022E0
1.876029106E1,2.095215321E0,1.535893083E0,1.006690407E1
1.877695699E1,2.609672308E0,1.267597795E0,1.060349464E1
1.879362293E1,2.913859844E0,1.325324655E0,1.150020504E1
1.881028887E1,3.077469110E0,1.401595831E0,1.286381435E1
1.882695481E1,3.372982502E0,1.182652593E0,1.407847118E1
1.884362074E1,3.507878065E0,8.021938205E-1,1.407906914E1
1.886028668E1,3.457927704E0,5.853442550E-1,1.315693569E1
1.887695262E1,3.159423113E0,6.505486369E-1,1.201346493E1
1.889361856E1,2.600100994E0,9.858429432E-1,1.099322510E1
1.891028449E1,2.207378864E0,1.413859129E0,1.030080223E1
1.892695043E1,1.982752681E0,1.478166223E0,9.959226608E0
1.894361637E1,1.881955028E0,1.038485050E0,1.004088211E1
1.896028231E1,1.768295884E0,7.082754970E-1,9.783653259E0
1.897694824E1,1.765604019E0,6.795616150E-1,8.901300430E0
1.899361418E1,1.817049742E0,1.067497969E0,8.060222626E0
1.901028012E1,1.877468467E0,1.549651742E0,7.696813107E0
1.902694606E1,1.989332914E0,1.839781523E0,7.946264744E0
1.904361199E1,1.975574136E0,1.752742529E0,8.921639442E0
1.906027793E1,1.791027784E0,1.583450437E0,9.875477791E0
1.907694387E1,1.498804331E0,1.473380566E0,1.020957565E1
1.909360981E1,1.290030479E0,1.530210137E0,9.958928108E0
1.911027574E1,1.336989641E0,1.717747569E0,9.548559189E0
1.912694168E1,1.549651742E0,1.957628012E0,9.256035805E0
1.914360762E1,1.700997829E0,1.957927108E0,9.283254623E0
1.916027356E1,1.539183140E0,1.577468276E0,1.005942631E1
1.917693949E1,1.217946768E0,1.204187989E0,1.070818043E1
1.919360543E1,8.443672657E-1,1.057926655E0,1.059093189E1
1.921027137E1,6.652047038E-1,1.209571838E0,9.961021423E0
1.922693731E1,8.521439433E-1,1.618744493E0,9.182157516E0
1.924360324E1,1.144666553E0,1.979462504E0,8.555537224E0
1.926026918E1,1.292722464E0,2.104188442E0,8.270193100E0
1.927693512E1,1.235593796E0,1.864008784E0,8.747561455E0
1.929360106E1,1.168893814E0,1.393520117E0,9.774082184E0
1.931026699E1,1.105184913E0,1.044467092E0,1.057268715E1
1.932693293E1,1.440778375E0,7.707880139E-1,1.090050316E1
1.934359887E1,2.064706802E0,7.031907439E-1,1.098395348E1
1.936026481E1,2.757428885E0,7.375875711E-1,1.105065346E1
1.937693074E1,3.284149170E0,6.337988973E-1,1.110060310E1
1.939359668E1,3.575774431E0,3.753740489E-1,1.121755219E1
1.941026262E1,3.775275946E0,6.699903309E-2,1.128156090E1
1.942692856E1,3.751048565E0,-5.174478889E-2,1.111017418E1
1.944359449E1,3.655036688E0,7.956135273E-2,1.071715355E1
1.946026043E1,3.591925859E0,2.087737769E-1,1.025862885E1
1.947692637E1,3.786342621E0,2.419741899E-1,9.795019150E0
1.949359231E1,3.943670750E0,2.937189937E-1,9.505488396E0
1.951025824E1,3.930809498E0,4.106681943E-1,9.768399239E0
1.952692418E1,3.721736431E0,8.410771489E-1,1.002682400E1
1.954359012E1,3.388236761E0,1.248156071E0,9.904491425E0
1.956025606E1,3.067598581E0,1.736590981E0,9.710074425E0
1.957692199E1,2.850450039E0,2.133500576E0,9.378069878E0
1.959358793E1,3.171387196E0,2.394916296E0,9.041579247E0
1.961025387E1,3.757628918E0,2.422433853E0,8.608478546E0
1.962691981E1,4.131208420E0,2.423929453E0,8.334500313E0
1.964358574E1,4.152743816E0,2.320738792E0,8.340781212E0
1.966025168E1,4.152145386E0,1.933101535E0,8.498408318E0
1.967691762E1,4.339384079E0,1.553839207E0,8.844171524E0
1.969358356E1,4.555335999E0,1.391127229E0,9.114261627E0
1.971024949E1,4.706083775E0,1.276870012E0,9.264710426E0
1.972691543E1,4.560719967E0,1.166800141E0,9.303893089E0
1.974358137E1,4.042674065E0,1.039083242E0,9.503394127E0
1.976024731E1,3.488436222E0,1.021436214E0,9.511769295E0
1.977691324E1,3.003590584E0,1.144666553E0,9.240483284E0
1.979357918E1,3.022135019E0,1.254736423E0,8.937790871E0
1.981024512E1,3.095415115E0,1.593320727E0,8.284849167E0
1.982691106E1,2.973381281E0,2.006082773E0,7.298408031E0
1.984357699E1,2.848954439E0,1.730309844E0,7.374978542E0
1.986024293E1,3.000599623E0,5.485545993E-1,8.267500877E0
1.987690887E1,2.866601467E0,2.192423791E-1,7.853542805E0
1.989357481E1,2.455335140E0,4.761717021E-1,7.458128929E0
1.991024074E1,1.936092615E0,5.443671346E-1,7.550850868E0
1.992690668E1,1.576870084E0,2.371885478E-1,8.098507881E0
1.994357262E1,1.829312921E0,-4.100699723E-1,9.674181938E0
1.996023856E1,1.607079506E0,-7.139584422E-1,9.603294373E0
1.997690449E1,6.397809386E-1,-4.971089065E-1,9.487242699E0
1.999357043E1,1.594218016E-1,1.163510010E-1,8.939286232E0
2.001023637E1,4.639084935E-1,7.456633449E-1,7.652844906E0
2.002690231E1,1.387238979E0,3.257229924E-1,8.035098076E0
2.004356824E1,2.507079840E0,5.665007830E-1,9.025727272E0
2.006023418E1,3.257529020E0,1.250249863E0,9.292527199E0
2.007690012E1,3.221636534E0,1.292423368E0,9.411869049E0
2.009356606E1,2.727219582E0,1.185045362E0,9.640981674E0
2.011023199E1,2.335095882E0,1.255035520E0,1.028584766E1
2.012689793E1,2.281855583E0,1.424327731E0,1.113410282E1
2.014356387E1,2.575873613E0,1.635494232E0,1.122532940E1
2.016022981E1,3.057130098E0,1.960619092E0,1.053260708E1
2.017689574E1,3.516851187E0,2.235793591E0,9.638289452E0
2.019356168E1,3.240779161E0,2.690130949E0,9.458827972E0
2.021022762E1,1.837388635E0,3.246163130E0,9.530313492E0
2.022689356E1,1.245763302E0,2.603690147E0,1.013928699E1
2.024355949E1,1.292124271E0,1.693819284E0,1.111795139E1
2.026022543E1,1.485942841E0,1.919342875E0,1.114247799E1
2.027689137E1,1.824527264E0,2.259422779E0,1.078475094E1
2.029355731E1,1.992922187E0,2.260918379E0,1.013300610E1
2.031022324E1,1.765304923E0,2.415554523E0,9.439086914E0
2.032688918E1,1.553241014E0,2.515753984E0,9.107980728E0
2.034355512E1,1.537986755E0,2.453540564E0,9.062815666E0
2.036022106E1,1.403390527E0,2.347358942E0,9.137890816E0
2.037688699E1,1.048355460E0,2.341077805E0,9.284450531E0
2.039355293E1,7.944171429E-1,2.428415775E0,9.370891571E0
2.041021887E1,7.447660565E-1,2.277369022E0,8.872586250E0
2.042688481E1,1.040279627E0,1.775474429E0,8.559425354E0
2.044355074E1,1.501795292E0,1.255334616E0,9.068798065E0
2.046021668E1,1.812264085E0,6.768696904E-1,9.928419113E0
2.047688262E1,1.990529299E0,7.028916478E-2,1.076919746E1
2.049354856E1,2.092224360E0,-3.619144261E-1,1.121605682E1
2.051021449E1,2.114656925E0,-3.311068416E-1,1.115563869E1
2.052688043E1,2.033899307E0,2.198405862E-1,1.029990482E1
2.054354637E1,1.986641049E0,7.052844763E-1,9.238089561E0
2.056021231E1,2.124228239E0,7.130611539E-1,8.570492744E0
2.057687824E1,2.000100613E0,5.994020700E-1,8.651249886E0
2.059354418E1,1.640878081E0,9.900303483E-1,9.340682030E0
2.061021012E1,1.398903966E0,1.449153185E0,1.021585751E1
2.062687606E1,1.510469317E0,1.503589988E0,1.076889801E1
2.064354199E1,1.618744493E0,1.352542996E0,1.062203884E1
2.066020793E1,1.398604870E0,1.299601793E0,1.017727280E1
2.067687387E1,1.075274706E0,1.323829174E0,9.562018394E0
2.069353981E1,8.715856671E-1,1.146760225E0,9.379864693E0
2.071020574E1,5.685944557E-1,9.523434043E-1,9.703494072E0
2.072687168E1,4.561318159E-1,7.914260626E-1,1.017039394E1
2.074353762E1,4.106681943E-1,1.223629713E0,1.039352417E1
2.076020356E1,5.386841893E-1,1.670489311E0,9.731609344E0
2.077686949E1,8.126623631E-1,1.518844128E0,8.900103569E0
2.079353543E1,8.697910309E-1,1.653141379E0,8.491230011E0
2.081020137E1,8.605188727E-1,1.969592094E0,8.529216766E0
2.082686731E1,1.020837903E0,1.901396751E0,8.812167168E0
2.084353324E1,1.175175071E0,1.718345761E0,9.221639633E0
2.086019918E1,1.090828061E0,1.704287887E0,9.534799576E0
2.087686512E1,9.972088337E-1,1.490130305E0,9.872187614E0
2.089353106E1,1.731506228E0,3.260220885E-1,1.068634605E1
2.091019699E1,1.449452281E0,8.162516356E-1,1.238106251E1
2.092686293E1,6.723831892E-1,1.901396751E0,1.244088268E1
2.094352887E1,1.698904037E0,2.018345833E0,1.083200932E1
2.096019481E1,2.779861689E0,1.886740685E0,9.281459808E0
2.097686074E1,2.853441000E0,3.013161898E0,9.151350021E0
2.099352668E1,1.797907114E0,3.007778168E0,9.302696228E0
2.101019262E1,1.084846020E0,2.886043310E0,9.109476089E0
2.102685856E1,1.106381416E0,2.723929405E0,9.308977127E0
2.104352449E1,7.612167001E-1,2.819941521E0,9.117850304E0
2.106019043E1,6.116653085E-1,2.773879766E0,9.304789543E0
2.107685637E1,6.430711150E-1,2.909971476E0,9.740881920E0
2.109352231E1,4.301098585E-1,3.331706524E0,1.031366348E1
2.111018824E1,9.361918271E-2,3.590430260E0,1.073210907E1
2.112685418E1,-2.183450572E-2,3.685245991E0,1.086401272E1
2.114352012E1,1.238285750E-1,4.261617184E0,1.102792168E1
2.116018606E1,-2.536391914E-1,4.915156841E0,1.114427280E1
2.117685199E1,-1.585244946E-2,4.686642170E0,1.119631672E1
2.119351793E1,2.638086975E-1,4.186542511E0,1.074975586E1
2.121018387E1,4.037888348E-1,3.353840113E0,9.920642853E0
2.122684981E1,3.595215976E-1,2.574677229E0,9.000303268E0
2.124351574E1,1.265204996E-1,2.164308071E0,8.111370087E0
2.126018168E1,-3.053839803E-1,2.427219391E0,7.619943619E0
2.127684762E1,-1.642074585E-1,2.714358091E0,7.857132435E0
2.129351356E1,8.593224287E-1,2.868994236E0,8.290831566E0
2.131017949E1,1.769791484E0,2.653341293E0,8.168498039E0
2.132684543E1,2.378166676E0,2.106880426E0,7.376174927E0
2.134351137E1,2.393719912E0,1.841277003E0,5.834599018E0
2.136017731E1,1.659721613E0,1.928914189E0,4.856831551E0
2.137684324E1,8.892326951E-1,1.812563181E0,5.841179371E0
2.139350853E1,1.040578723E0,1.283450246E0,8.702396393E0
2.141017437E1,1.715952992E0,1.130309582E0,1.076560783E1
2.142684031E1,2.384746790E0,1.785643935E0,9.759127617E0
2.144350624E1,2.805285454E0,2.694019079E0,7.919943810E0
2.146017218E1,3.216551781E0,2.918346405E0,7.525127888E0
2.147683812E1,3.769593000E0,2.364108801E0,8.197212219E0
2.149350406E1,4.380361080E0,1.471585870E0,9.402297020E0
2.151016999E1,4.086043835E0,1.294517040E0,9.580562592E0
2.152683593E1,3.401397467E0,1.679761529E0,8.704490662E0
2.154350187E1,3.136093140E0,2.054238319E0,8.803493500E0
2.156016781E1,3.396611691E0,1.889133453E0,1.022363377E1
2.157683374E1,3.858725548E0,1.682154298E0,1.139462185E1
2.159349968E1,3.906881094E0,1.871187329E0,1.100997543E1
2.161016562E1,3.718147278E0,2.195115566E0,1.010130119E1
2.162683156E1,3.680161238E0,2.239981174E0,9.083752632E0
2.164349749E1,3.929014683E0,1.780559182E0,8.646763802E0
2.166016343E1,3.786641836E0,1.427318692E0,9.096913338E0
2.167682937E1,3.328117132E0,1.491625786E0,9.643074989E0
2.169349531E1,2.980559587E0,1.944766641E0,9.709476471E0
2.171016124E1,3.041277647E0,2.535494804E0,9.824331284E0
2.172682718E1,3.200699329E0,2.736790895E0,9.985248566E0
2.174349312E1,3.154039383E0,2.707179785E0,9.933204651E0
2.176015906E1,3.393321514E0,2.460718870E0,9.697811127E0
2.177682499E1,3.411566973E0,2.185544491E0,9.454340935E0
2.179349093E1,3.001197815E0,2.142473459E0,9.360123634E0
2.181015687E1,2.737389088E0,2.340180635E0,9.304491043E0
2.182682281E1,2.918346405E0,2.669193745E0,9.329615593E0
2.184348874E1,3.164507866E0,2.592922449E0,9.160024643E0
2.186015468E1,3.194418192E0,2.205584288E0,9.180362701E0
2.187682062E1,3.007778168E0,1.981855392E0,9.323334694E0
2.189348656E1,3.093919754E0,2.168495417E0,9.566504478E0
2.191015249E1,3.069393158E0,2.257030010E0,9.764511108E0
2.192681843E1,3.109472990E0,2.221137524E0,9.315258980E0
