"Time (s)","Gyroscope x (rad/s)","Gyroscope y (rad/s)","Gyroscope z (rad/s)"
2.777730600E-2,-1.087339297E-1,-3.291034102E-1,-3.184896111E-1
4.444324400E-2,1.259908639E-2,-6.039925665E-2,-3.894262910E-1
6.110918100E-2,-1.748600416E-2,5.696314201E-2,-3.109301627E-1
7.777511900E-2,-4.573849961E-2,7.712167501E-2,-1.475238502E-1
9.444105600E-2,5.001455545E-2,-3.749182448E-2,1.359174121E-2
1.111069940E-1,2.004400045E-1,-3.067304790E-1,1.749363989E-1
1.277729310E-1,2.548069656E-1,-6.100248694E-1,2.669478953E-1
1.444388690E-1,1.639408320E-1,-7.969494462E-1,3.020726442E-1
1.611048060E-1,2.977965865E-3,-8.432224989E-1,2.389244884E-1
1.777707440E-1,-1.700494885E-1,-8.140536547E-1,8.964440972E-2
1.944366810E-1,-3.100138903E-1,-7.947350740E-1,-9.697478265E-3
2.111026190E-1,-3.608683646E-1,-7.556397319E-1,-5.719221383E-2
2.277685560E-1,-4.282162189E-1,-7.069995999E-1,-1.130099874E-2
2.444344940E-1,-4.323395491E-1,-7.722094655E-1,1.069013327E-1
2.611004310E-1,-3.410152495E-1,-9.073632956E-1,1.721111536E-1
2.777663690E-1,-2.199113220E-1,-1.049694777E0,2.673296928E-1
2.944323060E-1,-1.352301836E-1,-1.144684196E0,3.615556061E-1
3.110982440E-1,-1.987601221E-1,-1.280296206E0,3.350593448E-1
3.277641810E-1,-2.893971801E-1,-1.348407626E0,2.307541668E-1
3.444301190E-1,-3.170388341E-1,-1.432936072E0,1.813504845E-1
3.610960560E-1,-2.730565667E-1,-1.465999126E0,2.374736816E-1
3.777619940E-1,-8.704823256E-2,-1.513188362E0,3.186423481E-1
3.944279310E-1,7.834340632E-2,-1.399491191E0,3.089448512E-1
4.110938690E-1,8.720094711E-2,-1.154152632E0,2.474002391E-1
4.277598060E-1,1.366809942E-2,-8.810960650E-1,1.393535286E-1
4.444257440E-1,-7.353284955E-2,-6.094139814E-1,4.825831577E-2
4.610916810E-1,-2.044106275E-1,-4.612029195E-1,1.289688200E-1
4.777576190E-1,-4.692205191E-1,-2.583194375E-1,4.308123887E-1
4.944235560E-1,-7.460185885E-1,-2.472475171E-1,8.322269320E-1
5.110894940E-1,-7.935897112E-1,-3.371210098E-1,9.706641436E-1
5.277554310E-1,-5.923097730E-1,-1.824958436E-2,8.109993339E-1
5.444213690E-1,-3.495673835E-1,3.959167302E-1,6.702713966E-1
5.610873060E-1,-2.023489624E-1,6.218603253E-1,7.466294765E-1
5.777532440E-1,-7.452550530E-2,5.807796717E-1,9.069051147E-1
5.944191810E-1,2.500727773E-1,3.657552972E-2,1.047633052E0
6.110851190E-1,6.808087826E-1,-2.539670467E-1,1.014264584E0
6.277510560E-1,9.824233055E-1,-6.604975462E-2,9.724967480E-1
6.444169940E-1,1.001054645E0,1.182023361E-1,8.343649507E-1
6.610829310E-1,6.032289863E-1,6.047561392E-2,7.348703146E-1
6.777488690E-1,2.596175298E-3,-3.907243907E-1,6.107884049E-1
6.944148060E-1,-3.019199073E-1,-1.011133909E0,4.365392327E-1
7.110807440E-1,-2.873355150E-1,-1.394986033E0,1.535561383E-1
7.277466810E-1,-2.813795805E-1,-1.344360709E0,1.573740393E-1
7.444126190E-1,-5.364156365E-1,-8.398627043E-1,2.474002391E-1
7.610785560E-1,-1.193400741E0,-2.572504282E-1,2.053269297E-1
7.777444940E-1,-1.725234866E0,-2.676351368E-1,7.200568914E-2
7.944104310E-1,-1.648036838E0,-2.952767611E-1,-4.115701467E-2
8.110763690E-1,-1.348942161E0,7.254019380E-2,1.067486182E-1
8.277423060E-1,-9.333250523E-1,4.718930274E-2,3.252854943E-2
8.444082440E-1,-3.046688139E-1,1.864664704E-1,-2.690859437E-1
8.610741810E-1,3.759872615E-1,4.353938699E-1,-2.535852492E-1
8.777401190E-1,8.198568821E-1,6.227766275E-1,8.025235683E-2
8.944060560E-1,9.383646846E-1,4.735729098E-1,4.078285992E-1
9.110719940E-1,6.863829494E-1,3.453676701E-1,6.740893126E-1
9.277379310E-1,3.125337064E-1,3.403280377E-1,9.062942863E-1
9.444038690E-1,1.701258421E-1,3.052796721E-1,1.073365808E0
9.610698060E-1,2.912297845E-1,1.563050300E-1,9.504292607E-1
9.777357440E-1,5.142717957E-1,1.278998107E-1,8.396336436E-1
9.944016810E-1,7.360920310E-1,5.352702737E-2,8.814015388E-1
1.011067619E0,9.479094148E-1,-2.932151034E-2,9.054543376E-1
1.027733556E0,1.176754594E0,2.190713882E-1,8.052725196E-1
1.044399494E0,1.332906961E0,8.747583628E-1,5.718457699E-1
1.061065431E0,8.847612739E-1,6.293434501E-1,7.559451740E-3
1.077731369E0,6.414080039E-3,-1.207221523E-1,-5.713876486E-1
1.094397306E0,-4.392881393E-1,-7.349466681E-1,-6.827940941E-1
1.111063244E0,-8.162680268E-2,-1.150258422E0,-6.496546865E-1
1.127729181E0,5.870410800E-1,-2.031049013E0,-3.126864135E-1
1.144395119E0,1.050000191E0,-2.944750071E0,5.696314201E-2
1.161061056E0,6.462185979E-1,-2.110308647E0,-5.465712547E-1
1.177726994E0,-4.940368980E-2,-1.442022681E0,-7.649554014E-1
1.194392931E0,-4.511236250E-1,-9.503529072E-1,-4.631882310E-1
1.211058869E0,-5.521454215E-1,-7.344885468E-1,-2.311359644E-1
1.227724806E0,-5.771908760E-1,5.421424750E-3,-2.857320011E-1
1.244390744E0,-5.372555852E-1,1.954003721E-1,-5.113701820E-1
1.261056681E0,-4.496728480E-1,-1.151480079E-1,-6.020836234E-1
1.277722619E0,-3.290270567E-1,-5.138136148E-1,-6.272054315E-1
1.294388556E0,-1.288161129E-1,-8.582650423E-1,-6.433933377E-1
1.311054494E0,-1.386663020E-1,-8.768963814E-1,-6.315578222E-1
1.327720431E0,-3.426951468E-1,-6.793580055E-1,-6.362920403E-1
1.344386369E0,-5.859720111E-1,-4.242455959E-1,-6.184242368E-1
1.361052306E0,-8.707877398E-1,-1.766162813E-1,-6.306415200E-1
1.377718244E0,-1.158581376E0,-5.955931544E-2,-6.804270148E-1
1.394384181E0,-1.217377186E0,-4.123337194E-2,-7.444151044E-1
1.411050119E0,-1.030834317E0,1.655443609E-1,-6.247619390E-1
1.427716056E0,-7.117338181E-1,1.510363221E-1,-6.020072699E-1
1.444381994E0,-3.788888752E-1,-2.742782831E-1,-6.214022040E-1
1.461047931E0,-3.077994883E-1,-4.474584460E-1,-6.488147378E-1
1.477713869E0,-3.319286406E-1,-3.059668839E-1,-6.351466775E-1
1.494379806E0,-3.104720116E-1,1.854738146E-1,-5.644390583E-1
1.511045744E0,-2.472475171E-1,5.407680273E-1,-4.531853199E-1
1.527711681E0,-1.190422773E-1,4.973966479E-1,-4.105011225E-1
1.544377619E0,-2.977965865E-3,2.409861535E-1,-4.212676287E-1
1.561043556E0,-2.939786762E-2,-9.842558950E-2,-4.207331240E-1
1.577709494E0,-1.333975941E-1,-3.818668425E-1,-3.781253099E-1
1.594375431E0,-1.526398361E-1,-5.304597020E-1,-2.339612097E-1
1.611041369E0,-1.445458829E-1,-4.367683232E-1,1.259908639E-2
1.627707306E0,-3.157407343E-1,-3.368919194E-1,2.883281708E-1
1.644373244E0,-5.587885380E-1,-4.287507236E-1,4.155407548E-1
1.661039181E0,-6.064360142E-1,-7.573196292E-1,4.082867503E-1
1.677705119E0,-4.108829200E-1,-9.024763703E-1,3.999637067E-1
1.694371056E0,-3.657552972E-2,-6.608793139E-1,3.670533597E-1
1.711036994E0,3.257436454E-1,-1.339320987E-1,3.757582009E-1
1.727702931E0,5.143481493E-1,2.542724609E-1,4.430296719E-1
1.744368869E0,4.163043499E-1,2.853502035E-1,5.290852785E-1
1.761034806E0,1.398880333E-1,-8.903354406E-2,5.151117444E-1
1.777700744E0,-4.993819445E-2,-4.537961781E-1,3.985128999E-1
1.794366681E0,2.214384731E-3,-5.996401310E-1,3.251327872E-1
1.811032619E0,2.262490392E-1,-3.669770062E-1,3.526980579E-1
1.827698556E0,3.098611534E-1,2.321286127E-2,4.751000702E-1
1.844364494E0,1.427896470E-1,3.092502952E-1,5.051851869E-1
1.861030431E0,-1.146898642E-1,4.709767401E-1,3.346011937E-1
1.877696369E0,-2.832121849E-1,5.477929711E-1,1.530979872E-1
1.894362306E0,-3.249800503E-1,6.508000493E-1,9.010255337E-2
1.911028244E0,-2.218202800E-1,7.367792726E-1,1.133154184E-1
1.927694181E0,-2.336557768E-2,8.212313652E-1,1.864664704E-1
1.944360119E0,5.047270283E-2,8.926261663E-1,2.961930633E-1
1.961026056E0,-9.758564830E-2,7.706822753E-1,3.042870164E-1
1.977691994E0,-2.670242786E-1,4.402807951E-1,1.769980639E-1
1.994357931E0,-2.645808160E-1,1.430950761E-1,3.359756246E-2
2.011023869E0,-1.440113783E-1,1.195004210E-1,-2.977965865E-3
2.027689806E0,-6.070468575E-2,3.778962195E-1,7.254019380E-2
2.044355744E0,-5.795579776E-2,5.991056561E-1,1.255327165E-1
2.061021681E0,-1.993709952E-1,4.840339720E-1,1.682168841E-1
2.077687619E0,-3.716348708E-1,3.642281145E-2,2.249509543E-1
2.094353556E0,-2.901607752E-1,-4.441750646E-1,2.788597643E-1
2.111019494E0,6.910407543E-2,-5.139663815E-1,2.922987938E-1
2.127685431E0,4.176788032E-1,-2.028071135E-1,3.564395905E-1
2.144351369E0,4.886154532E-1,9.239330143E-2,5.157225728E-1
2.161017306E0,4.075995386E-1,1.137735620E-1,5.961276889E-1
2.177683244E0,3.418551981E-1,-8.918625861E-2,4.975493550E-1
2.194349181E0,3.140608668E-1,-3.001636863E-1,3.730092943E-1
2.211015119E0,4.218784869E-1,-4.297433794E-1,4.147008359E-1
2.227681056E0,6.491202116E-1,-3.116937578E-1,5.826122761E-1
2.244346994E0,7.765618563E-1,-3.649916872E-2,6.826413870E-1
2.261012931E0,8.159626126E-1,1.482110620E-1,5.916988850E-1
2.277678869E0,7.572432756E-1,1.912770271E-1,4.454731345E-1
2.294344806E0,6.236929297E-1,7.941242307E-2,3.662897944E-1
2.311010744E0,5.593994260E-1,-1.596647799E-1,3.272708058E-1
2.327676681E0,6.882155538E-1,-3.340666890E-1,3.316995800E-1
2.344342619E0,8.246674538E-1,-3.350593448E-1,3.614028692E-1
2.361008556E0,7.987820506E-1,-2.687804997E-1,3.235292733E-1
2.377674494E0,6.374374032E-1,-1.274416596E-1,2.016617358E-1
2.394340431E0,4.280634820E-1,6.101011857E-2,3.924806044E-2
2.411006369E0,1.559232324E-1,1.220202371E-1,-8.903354406E-2
2.427672306E0,-1.528689116E-1,-7.780890167E-2,-1.266017258E-1
2.444338244E0,-2.874882221E-1,-3.938550651E-1,-1.054505333E-1
2.461004181E0,-2.922987938E-1,-7.059305906E-1,-7.376192510E-2
2.477670119E0,-3.886627257E-1,-1.033201456E0,-1.347720474E-1
2.494336056E0,-5.416843295E-1,-1.267238975E0,-2.975675166E-1
2.511001994E0,-5.794052482E-1,-1.081307054E0,-4.866301417E-1
2.527667931E0,-6.007854939E-1,-4.662425518E-1,-6.404153705E-1
2.544333869E0,-8.076395988E-1,1.672242284E-1,-7.064651251E-1
2.560999806E0,-1.156596065E0,5.891790986E-1,-7.463240623E-1
2.577665744E0,-1.564348340E0,5.899426341E-1,-9.096540213E-1
2.594331681E0,-1.961563110E0,1.571449637E-1,-1.129565358E0
2.610997619E0,-2.161850452E0,-2.622137070E-1,-1.257388830E0
2.627663556E0,-1.989357471E0,-3.030653000E-1,-1.175151110E0
2.644329494E0,-1.689499259E0,-1.585957706E-1,-9.293544292E-1
2.660995431E0,-1.398422241E0,2.794706225E-1,-6.353757381E-1
2.677661369E0,-1.197753072E0,4.616610706E-1,-4.555523992E-1
2.694327306E0,-1.210275888E0,4.061487317E-1,-5.000692010E-1
2.710993244E0,-1.294040680E0,1.985310465E-1,-5.103011727E-1
2.727659181E0,-1.224860191E0,2.573267929E-2,-4.806742370E-1
2.744325119E0,-8.897245526E-1,-1.023198515E-1,-4.486801922E-1
2.760991056E0,-6.243801713E-1,-3.494146466E-1,-3.807214797E-1
2.777656994E0,-4.883863926E-1,-3.823249936E-1,-3.158934414E-1
2.794322931E0,-4.783071280E-1,-3.312414289E-1,-3.129154742E-1
2.810988869E0,-6.286562085E-1,-3.058905303E-1,-3.281871080E-1
2.827654806E0,-1.041448116E0,-2.215912044E-1,-2.638935745E-1
2.844320744E0,-1.730198145E0,-2.075413018E-1,-1.144607887E-1
2.860986681E0,-2.187354088E0,-4.886918366E-1,-2.176205814E-2
2.877652619E0,-1.927049279E0,-1.020220518E0,3.863719851E-2
2.894318556E0,-1.030681610E0,-1.029078126E0,2.974147797E-1
2.910984494E0,-1.903607398E-1,-6.557633281E-1,8.362739086E-1
2.927650431E0,3.057378232E-1,-2.349538654E-1,1.244331598E0
2.944316369E0,5.609265566E-1,-3.167333901E-1,1.238986492E0
2.960982306E0,1.172096848E0,-4.672352076E-1,9.769254923E-1
2.977648244E0,2.502254963E0,-2.647335231E-1,7.938951254E-1
2.994314181E0,4.211836338E0,5.381718874E-1,7.073050737E-1
3.010980119E0,5.203880787E0,1.140026450E0,7.731257081E-1
3.027646056E0,5.570476055E0,6.959276795E-1,8.100066781E-1
3.044311994E0,6.036794662E0,-3.801106215E-1,6.186532974E-1
3.060977931E0,6.411407471E0,-1.276783705E0,3.407098353E-1
3.077643869E0,6.109793186E0,-1.328249097E0,1.053741761E-2
3.094309806E0,5.095452309E0,-6.908116937E-1,-4.205803871E-1
3.110975744E0,3.975355387E0,-7.513637096E-2,-7.631992102E-1
3.127641681E0,3.045848131E0,2.489273995E-1,-6.862302423E-1
3.144307619E0,2.306243658E0,-1.763872057E-2,-2.278525680E-1
3.160973556E0,1.944077134E0,-7.573959827E-1,2.729802132E-1
3.177639494E0,1.965075612E0,-1.702938318E0,5.448913574E-1
3.194305431E0,2.158338070E0,-2.471406221E0,6.666825414E-1
3.210971369E0,2.123365879E0,-2.587775946E0,8.140536547E-1
3.227637306E0,1.608025193E0,-2.108628750E0,9.690605998E-1
3.244303244E0,6.440805793E-1,-1.387197614E0,1.075351119E0
3.260969181E0,-5.938369036E-1,-7.891609073E-1,1.135444880E0
3.277635119E0,-1.879401803E0,-4.636463821E-1,1.217377186E0
3.294301056E0,-3.044779062E0,-2.490037531E-1,1.348178625E0
3.310966994E0,-3.965276003E0,2.057087123E-1,1.475162029E0
3.327632931E0,-4.503982544E0,8.778890371E-1,1.521969557E0
3.344298869E0,-5.052386284E0,1.005025268E0,1.378569126E0
3.360964806E0,-6.573821545E0,-2.570977211E-1,1.096884012E0
3.377630744E0,-7.857018948E0,-2.798829794E0,7.143300176E-1
3.394296681E0,-6.461803913E0,-2.921842575E0,1.592829973E-1
3.410962619E0,-4.401662350E0,5.099193454E-1,-3.226893246E-1
3.427628556E0,-4.047437191E0,3.216508389E0,-6.328558922E-1
3.444294494E0,-4.186180115E0,3.313177824E0,-1.095815063E0
3.460960431E0,-3.452531338E0,1.248913050E0,-1.413159251E0
3.477626369E0,-1.901392937E0,-1.073900223E0,-1.107039690E0
3.494292306E0,-2.280816436E-1,-2.167653561E0,-3.255145550E-1
3.510958244E0,9.306524992E-1,-1.743866205E0,1.608865112E-1
3.527624181E0,1.143386126E0,-1.157588735E-1,1.349247545E-1
3.544290119E0,8.283326626E-1,1.735390425E0,-2.556469142E-1
3.560956056E0,4.092030525E-1,2.850295067E0,-6.508764029E-1
3.577621994E0,-6.261364091E-3,3.064632177E0,-7.321214676E-1
3.594287931E0,2.093739063E-1,2.456439972E0,-3.037525117E-1
3.610953869E0,1.445153356E0,1.627649188E0,4.906771481E-1
3.627619806E0,3.247739077E0,9.884555936E-1,1.172783971E0
3.644285744E0,4.932122231E0,4.669297636E-1,1.481194377E0
3.660951681E0,5.674857616E0,-9.827287495E-2,1.419420719E0
3.677617619E0,6.002510071E0,-1.950185746E-1,9.372956753E-1
3.694283556E0,6.471043110E0,3.589594066E-1,3.486510813E-1
3.710949494E0,6.224635601E0,6.779071689E-1,7.345648855E-2
3.727615431E0,5.780995369E0,6.181951761E-1,-3.097084463E-1
3.744281369E0,5.644390583E0,1.298851222E-1,-4.146244824E-1
3.760947306E0,5.201131821E0,-6.515636444E-1,-8.933897316E-2
3.777613244E0,4.529715061E0,-1.246164203E0,3.676642478E-1
3.794279181E0,4.101346016E0,-1.536935806E0,4.994583130E-1
3.810945119E0,3.645564556E0,-1.441335440E0,3.210858107E-1
3.827611056E0,2.666653872E0,-1.001589179E0,2.512181401E-1
3.844276994E0,1.354363561E0,-5.577195287E-1,4.573086500E-1
3.860942931E0,1.405752599E-1,-3.563632369E-1,8.695660233E-1
3.877608869E0,-9.075160027E-1,-2.757290900E-1,1.305494428E0
3.894274806E0,-1.888717532E0,-3.110065162E-1,1.588401198E0
3.910940744E0,-2.820591688E0,-3.692677617E-1,1.746004224E0
3.927606681E0,-3.633805513E0,8.857538924E-3,1.818238974E0
3.944272619E0,-4.111119747E0,8.111520410E-1,1.928041935E0
3.960938556E0,-4.435336590E0,1.489364743E0,1.791513681E0
3.977604494E0,-5.093314171E0,1.161788464E0,1.167591691E0
3.994270431E0,-5.982275009E0,-5.151880980E-1,4.202749729E-1
4.010936369E0,-5.916836262E0,-1.709046960E0,-3.226893246E-1
4.027602306E0,-4.712134361E0,-1.669951528E-1,-9.902117848E-1
4.044268244E0,-3.829816818E0,2.734765291E0,-1.535866737E0
4.060934181E0,-3.483456373E0,4.157927513E0,-2.110919714E0
4.077600119E0,-3.064479589E0,3.243997335E0,-2.241415501E0
4.094266056E0,-2.386954069E0,8.827759624E-1,-1.750051260E0
4.110931994E0,-1.390404582E0,-1.497916818E0,-1.032132387E0
4.127597931E0,-2.624427676E-1,-2.878623962E0,-4.309650958E-1
4.144263869E0,3.158934414E-1,-2.641837358E0,-9.224057943E-2
4.160929806E0,1.155297980E-1,-9.859357476E-1,-1.837939471E-1
4.177595744E0,-4.482983947E-1,8.762091398E-1,-4.622719288E-1
4.194261681E0,-9.342412949E-1,1.975002170E0,-6.857720613E-1
4.210927619E0,-1.140026450E0,1.820911527E0,-7.923679948E-1
4.227593556E0,-8.731548190E-1,9.520327449E-1,-6.347648501E-1
4.244259494E0,-2.103665620E-1,2.936732471E-1,-3.119991720E-1
4.260925431E0,7.617483735E-1,3.439932168E-1,-8.956804872E-2
4.277591369E0,1.557934284E0,9.972367287E-1,-6.543888897E-2
4.294257306E0,2.087172270E0,1.800142169E0,-6.391172856E-2
4.310923244E0,2.845942736E0,1.655061722E0,3.688096255E-2
4.327589181E0,4.103025913E0,9.760091901E-1,7.727439702E-2
4.344255119E0,5.143328667E0,2.509890795E-1,2.861901522E-1
4.360921056E0,5.176468372E0,-1.476078391E0,5.358811021E-1
4.377586994E0,4.775740623E0,-2.984227180E0,4.334085584E-1
4.394252931E0,5.136532784E0,-1.277470946E0,-2.691622972E-1
4.410918869E0,5.240303516E0,1.842826366E0,-7.321978211E-1
4.427584806E0,3.896553755E0,3.400531530E0,-3.300960660E-1
4.444250744E0,2.423605919E0,2.913290501E0,4.776198864E-1
4.460916681E0,2.237673998E0,1.071075082E0,1.277012825E0
4.477582619E0,3.070358992E0,-7.913753390E-1,2.100153208E0
4.494248556E0,3.727878571E0,-2.041204691E0,2.652451277E0
4.510914494E0,3.594710112E0,-2.394131899E0,2.732856274E0
4.527580431E0,2.551353216E0,-1.928958297E0,2.328998327E0
4.544246369E0,9.563851953E-1,-1.269071579E0,1.783419728E0
4.560912306E0,-7.286853194E-1,-5.395463109E-1,1.479819894E0
4.577578244E0,-2.131459951E0,6.719512399E-3,1.479438186E0
4.594244181E0,-3.250029802E0,3.878991306E-1,1.630627155E0
4.610910119E0,-3.987343550E0,3.620901108E-1,1.599167585E0
4.627576056E0,-4.684569359E0,6.005564332E-1,1.230358005E0
4.644241994E0,-5.350640774E0,1.346346021E0,7.744238377E-1
4.660907931E0,-5.798252106E0,2.153756380E0,6.212494969E-1
4.677573869E0,-5.987849236E0,2.279518366E0,4.153880477E-1
4.694239806E0,-6.561451435E0,1.177136421E0,-2.719875574E-1
4.710905744E0,-7.635427952E0,-1.251280189E0,-1.004032612E0
4.727571681E0,-6.993638039E0,-2.136652231E0,-1.302745461E0
4.744237619E0,-5.127369881E0,1.047633067E-1,-1.428278208E0
4.760903556E0,-4.294990063E0,2.585637808E0,-1.815337420E0
4.777569494E0,-3.842339516E0,3.442757607E0,-2.188499451E0
4.794235431E0,-3.122511625E0,2.614882946E0,-2.050673008E0
4.810901369E0,-2.197967768E0,8.241329193E-1,-1.541593671E0
4.827567306E0,-1.281517982E0,-4.077522457E-1,-9.663881063E-1
4.844233244E0,-4.152353406E-1,-6.303361058E-1,-6.067414284E-1
4.860899181E0,6.032289471E-3,1.556178033E-1,-5.276344419E-1
4.877565119E0,-9.162971377E-2,1.560530424E0,-6.469057798E-1
4.894231056E0,-3.190241456E-1,2.624504089E0,-1.019304276E0
4.910896994E0,-9.857830405E-2,2.506378174E0,-1.307097912E0
4.927562931E0,1.037630200E0,1.682168841E0,-9.500474334E-1
4.944228869E0,2.991252184E0,1.554421782E0,5.276344717E-2
4.960894806E0,4.733667374E0,2.397949696E0,9.854776263E-1
4.977560744E0,5.232285976E0,3.098764420E0,1.144836903E0
4.994226681E0,5.356215000E0,2.168417215E0,8.058833480E-1
5.010892619E0,5.967232704E0,-4.365392327E-1,1.156519771E0
5.027558556E0,6.388805866E0,-3.046153545E0,2.091295481E0
5.044224494E0,6.535260677E0,-3.753229618E0,1.954843640E0
5.060890431E0,5.841012478E0,-2.450484037E0,7.474694252E-1
5.077556369E0,4.465574265E0,-6.955459118E-1,-1.173623949E-1
5.094222306E0,3.095862627E0,6.096430421E-1,-2.180787325E-1
5.110888244E0,2.597320795E0,4.360810816E-1,4.281398654E-1
5.127554181E0,3.135492563E0,-7.055488229E-1,1.143004417E0
5.144220119E0,3.722686291E0,-1.490662813E0,1.517693520E0
5.160886056E0,3.459480047E0,-1.446222425E0,1.674304008E0
5.177551994E0,2.308686972E0,-5.682569742E-1,1.511661291E0
5.194217931E0,5.397753716E-1,8.260418773E-1,1.348484039E0
5.210883869E0,-1.415755510E0,1.377576470E0,1.392313600E0
5.227549806E0,-2.751411438E0,8.195514679E-1,1.278081894E0
5.244215744E0,-3.241630316E0,6.490438432E-2,1.063210130E0
5.260881681E0,-3.173671722E0,1.351538301E-2,1.035110354E0
5.277547619E0,-3.191997528E0,1.027245522E0,1.290910006E0
5.294213556E0,-3.859214544E0,2.690630198E0,1.276401997E0
5.310879494E0,-4.736111164E0,3.608225584E0,6.438514590E-1
5.327545431E0,-5.464796543E0,2.985448837E0,-2.402989268E-1
5.344211369E0,-6.611847878E0,9.128610492E-1,-1.098029494E0
5.360877306E0,-7.445983410E0,-1.467831731E0,-1.645058870E0
5.377543244E0,-6.234943867E0,-1.505323529E0,-1.807854295E0
5.394209181E0,-4.328740597E0,1.382081509E0,-1.961486816E0
5.410875119E0,-3.182910919E0,3.614181519E0,-2.358548880E0
5.427541056E0,-2.467588186E0,3.596237421E0,-2.656651020E0
5.444206994E0,-1.972635031E0,1.811595917E0,-2.525849581E0
5.460872931E0,-1.484554172E0,-4.996110201E-1,-2.084041595E0
5.477538869E0,-9.673043489E-1,-1.849011302E0,-1.535485029E0
5.494204806E0,-6.146826744E-1,-1.729434490E0,-1.081688762E0
5.510870744E0,-3.168097436E-1,-6.475166678E-1,-9.517273307E-1
5.527536681E0,-4.115701318E-1,4.014145136E-1,-1.036637545E0
5.544202619E0,-9.835686684E-1,8.362739086E-1,-1.187979221E0
5.560868556E0,-8.428406715E-1,3.807978332E-1,-9.834159613E-1
5.577534494E0,1.008614063E0,-1.356119812E-1,-3.604865670E-1
5.594200431E0,3.471315384E0,3.758345544E-1,4.470766485E-1
5.610866369E0,4.395172119E0,1.672165990E0,7.752637863E-1
5.627532306E0,3.955502272E0,2.644510031E0,4.537961781E-1
5.644198244E0,4.330573082E0,2.625649452E0,4.046979249E-1
5.660864181E0,6.091696262E0,1.362457514E0,1.206381559E0
5.677530119E0,7.768062115E0,-3.824777007E-1,2.126343966E0
5.694196056E0,8.487202644E0,-1.254639864E0,2.534401655E0
5.710861994E0,8.235297203E0,-9.050725102E-1,2.278601885E0
5.727527931E0,7.108633518E0,-4.925860763E-1,1.705610871E0
5.744193869E0,5.317883492E0,2.359465137E-2,1.322140455E0
5.760859806E0,3.925493479E0,6.519454122E-1,1.179121733E0
5.777525744E0,3.620442867E0,6.669116020E-1,1.411937594E0
5.794191681E0,3.932136536E0,2.596175298E-2,2.009974241E0
5.810857619E0,4.015748501E0,-6.523272395E-1,2.492404699E0
5.827523556E0,3.097389936E0,-7.718276381E-1,2.608698130E0
5.844189494E0,1.028238177E0,-2.636645138E-1,2.270202637E0
5.860855431E0,-1.609934092E0,4.306596518E-2,1.626351118E0
5.877521369E0,-3.397629976E0,-2.610683441E-1,1.050458312E0
5.894187306E0,-3.946415663E0,-4.001927972E-1,8.934661150E-1
5.910853244E0,-3.729482174E0,5.034289360E-1,1.394451618E0
5.927519181E0,-3.537059784E0,1.912770391E0,1.816330075E0
5.944185119E0,-4.176405907E0,2.589455843E0,1.440113664E0
5.960851056E0,-5.987772942E0,1.885892272E0,9.697478265E-3
5.977516994E0,-8.040202141E0,-5.978839099E-2,-9.610430002E-1
5.994182931E0,-8.309288025E0,-9.428697824E-1,-1.287168503E0
6.010848869E0,-7.059993267E0,1.433699608E0,-1.564577460E0
6.027514806E0,-5.300168037E0,4.198779106E0,-2.427347660E0
6.044180744E0,-3.596695423E0,5.123781204E0,-3.157407284E0
6.060846681E0,-2.819599152E0,3.773082733E0,-3.062875986E0
6.077512619E0,-2.692997456E0,8.681151867E-1,-2.548527956E0
6.094178556E0,-2.376645803E0,-1.679725409E0,-2.097785950E0
6.110844494E0,-1.902767420E0,-2.521497011E0,-1.534874082E0
6.127510431E0,-1.547931314E0,-1.905974507E0,-1.125823736E0
6.144176369E0,-1.361312151E0,-5.675697327E-1,-1.058628678E0
6.160842306E0,-1.409952283E0,2.598465979E-1,-1.157054305E0
6.177508244E0,-1.468747973E0,1.458439697E-2,-1.216995358E0
6.194174181E0,-1.038012028E0,-6.854666471E-1,-9.742529392E-1
6.210840119E0,2.128100246E-1,-1.182252407E0,-4.363865256E-1
6.227506056E0,1.880776286E0,-1.026405573E0,1.040760875E-1
6.244171994E0,2.996826172E0,-1.632536054E-1,5.579485893E-1
6.260837931E0,3.080209255E0,1.010675788E0,9.232457280E-1
6.277503869E0,2.745531797E0,1.145905972E0,1.312824726E0
6.294169806E0,2.799287796E0,-6.585885882E-1,1.492342710E0
6.310835744E0,3.520413637E0,-1.969351649E0,1.266170025E0
6.327501681E0,4.516275883E0,-9.948696494E-1,7.860302329E-1
6.344167619E0,4.887910843E0,1.340390086E0,4.673115611E-1
6.360833556E0,4.424646378E0,3.114494085E0,7.339540124E-1
6.377499494E0,4.090503216E0,3.137248755E0,1.310763121E0
6.394165431E0,4.334314823E0,1.789681077E0,1.925751209E0
6.410831369E0,4.675406456E0,8.491020650E-2,2.458959818E0
6.427497306E0,4.762836456E0,-1.156825185E0,2.723158836E0
6.444163244E0,4.594542980E0,-1.691331863E0,2.469344616E0
6.460829181E0,3.833710909E0,-1.436906695E0,1.669188023E0
6.477495119E0,2.268293619E0,-6.117047071E-1,6.895136237E-1
6.494161056E0,3.233001828E-1,3.969093859E-1,-3.012326956E-1
6.510826994E0,-1.241048217E0,1.037630200E0,-1.185230374E0
6.527492931E0,-2.021580696E0,1.405065298E0,-1.517769933E0
6.544158869E0,-2.219653606E0,1.449582100E0,-1.065653563E0
6.560824806E0,-2.415588379E0,8.242856860E-1,-3.983601928E-1
6.577490744E0,-3.573711634E0,-3.255909383E-1,-1.613446623E-1
6.594156681E0,-5.970210552E0,-2.176587582E0,-1.954767257E-1
6.610822619E0,-7.676737785E0,-4.465345383E0,-4.802924395E-1
6.627488556E0,-7.093209267E0,-4.683194637E0,-5.237401724E-1
6.644154494E0,-5.740448952E0,-1.121547699E0,2.922987938E-1
6.660820431E0,-5.552379131E0,2.654207468E0,5.671879649E-1
6.677486369E0,-5.860942364E0,3.689317942E0,-4.345539212E-1
6.694152306E0,-6.375290394E0,2.282572508E0,-1.685910463E0
6.710818244E0,-7.166283607E0,3.003927469E-1,-2.218508244E0
6.727484181E0,-6.927359104E0,-9.011782408E-1,-1.896124244E0
6.744150119E0,-4.693121433E0,-1.341306329E0,-9.676098228E-1
6.760816056E0,-2.514395714E0,-1.062064767E0,-1.313359290E-1
6.777481994E0,-2.045557022E0,-5.367974043E-1,1.020144150E-1
6.794147931E0,-2.076787472E0,8.261945844E-2,-2.551887631E-1
6.810813869E0,-1.707214355E0,7.162389755E-1,-5.237401724E-1
6.827479806E0,4.423424602E-1,1.241659045E0,2.180787325E-1
6.844145744E0,2.936197996E0,1.706221700E0,1.181412458E0
6.860811681E0,3.319362879E0,1.688353896E0,1.111315727E0
6.877477619E0,1.524718523E0,-3.889681399E-1,-1.815795600E-1
6.894143556E0,2.450331300E-1,-2.897789717E0,-8.649081588E-1
6.910809494E0,2.571206331E0,-1.667431831E0,-3.478111327E-1
6.927475431E0,5.514276505E0,1.871307850E0,-4.466948658E-2
6.944141369E0,5.456320763E0,3.128162146E0,-1.175151095E-1
6.960807306E0,5.239158154E0,1.942091823E0,-3.620901108E-1
6.977473244E0,5.834751129E0,-5.094612241E-1,-7.338776588E-1
6.994139181E0,5.063000202E0,-2.018831730E0,-1.315268278E0
7.010805119E0,3.078682184E0,-2.381303549E0,-1.876347542E0
7.027471056E0,2.527376652E0,-2.424904108E0,-2.241644621E0
7.044136994E0,3.404502153E0,-2.332434416E0,-3.020649910E0
7.060802931E0,3.542175770E0,-1.913381219E0,-4.070039272E0
7.077468869E0,2.084728718E0,-4.435641766E-1,-4.768486977E0
7.094134806E0,-9.105703235E-1,2.443535566E0,-4.424493790E0
7.110800744E0,-2.887557745E0,3.212690592E0,-3.328907728E0
7.127466681E0,-1.777540207E0,1.917580843E0,-2.081750870E0
7.144132619E0,3.770562708E-1,6.814960241E-1,-1.072373152E0
7.160798556E0,1.084972262E0,2.971857190E-1,-9.022472501E-1
7.177464494E0,4.337903559E-1,9.789108038E-1,-1.274874806E0
7.194130431E0,-1.222416759E0,2.231183529E0,-1.371238708E0
7.210796369E0,-3.086546898E0,2.679176569E0,-1.604665399E0
7.227462306E0,-3.119610071E0,2.468962669E0,-2.038303137E0
7.244128244E0,-1.515020967E0,1.336648464E0,-1.812817574E0
7.260794181E0,1.718820781E-1,-7.588467598E-1,-1.397658587E0
7.277460119E0,4.321868420E-1,-1.294804215E0,-1.614133835E0
7.294126056E0,-2.308839798E0,9.622647166E-1,-2.774853230E0
7.310791994E0,-9.396398544E0,3.472842693E0,-5.363240242E0
7.327457931E0,-1.365504265E1,2.819751740E0,-7.646881580E0
7.344123869E0,-8.744453430E0,-1.448436737E0,-5.836812973E0
7.360789806E0,-4.474584460E-1,-3.232009172E0,-1.220736861E0
7.377455744E0,1.427132845E0,-5.577500820E0,1.287244797E0
7.394121681E0,-2.124587774E0,-5.842845440E0,9.718858600E-1
7.410787619E0,-6.183555126E0,-2.836703300E0,-1.408196092E0
7.427453556E0,-7.294260025E0,9.596685767E-1,-3.560654402E0
7.444119494E0,-4.631042480E0,2.571969748E0,-3.532249212E0
7.460785431E0,-1.335426807E0,7.850375772E-1,-2.227289438E0
7.477451369E0,-3.410152495E-1,-2.488663197E0,-2.121380568E0
7.494117306E0,-3.318828344E0,-4.432740211E0,-4.176940441E0
7.510783244E0,-7.719650745E0,-3.028362036E0,-5.972577572E0
7.527449181E0,-8.027221680E0,4.594466686E-1,-5.619650364E0
7.544115119E0,-4.572093964E0,3.306305647E0,-2.273867846E0
7.560781056E0,-1.632841587E0,2.493855476E0,1.406745195E0
7.577446994E0,6.032289565E-2,-1.673769504E-1,2.862665176E0
7.594112931E0,6.572905183E-1,-1.186757565E0,2.660468817E0
7.610778869E0,3.049742281E-1,8.478803039E-1,1.658956051E0
7.627444806E0,1.859319657E-1,3.795302868E0,2.752709389E-1
7.644110744E0,5.288561583E-1,4.792768478E0,-9.301179647E-1
7.660776681E0,7.921388745E-1,3.083416224E0,-1.707596183E0
7.677442619E0,6.863065958E-1,2.132681608E-1,-2.438419580E0
7.694108556E0,-1.045342386E-1,-1.320765972E0,-3.260872602E0
7.710774494E0,-1.279303551E0,-8.657481074E-1,-3.946721077E0
7.727440431E0,-1.636888504E0,5.203804374E-1,-4.328053474E0
7.744106369E0,-1.204930782E0,1.426598310E0,-4.298502922E0
7.760772306E0,-1.192178965E0,1.178052783E0,-3.844935656E0
7.777438244E0,-1.824194908E0,-1.656970680E-1,-3.245142698E0
7.794104181E0,-2.156199932E0,-2.350836754E0,-2.502407551E0
7.810770119E0,-1.521664143E0,-4.143572330E0,-1.315191865E0
7.827436056E0,-1.607337892E-1,-3.384343624E0,1.928042024E-1
7.844101994E0,3.384954333E-1,-5.891027451E-1,1.184314132E0
7.860767931E0,1.796706021E-1,1.984317899E0,1.198898435E0
7.877433869E0,7.153990269E-1,3.347004414E0,1.074511170E0
7.894099806E0,2.467359304E0,3.071046352E0,1.550222039E0
7.910765744E0,4.483747482E0,1.745698810E0,2.282419920E0
7.927431681E0,5.701888084E0,7.878628373E-1,2.679863691E0
7.944097619E0,5.981511593E0,7.964149714E-1,2.345186234E0
7.960763556E0,6.014498234E0,1.280754328E0,1.539684653E0
7.977429494E0,6.699735641E0,1.104443550E0,1.027016401E0
7.994095431E0,7.529366493E0,2.526689470E-1,1.059392214E0
8.010761369E0,7.572432518E0,-6.624065042E-1,1.099632978E0
8.027427306E0,6.571835995E0,-1.941939116E0,1.098563910E0
8.044093244E0,5.655844212E0,-3.240943193E0,1.276630998E0
8.060759181E0,4.855229855E0,-3.513388872E0,1.355356216E0
8.077425119E0,2.436052322E0,-1.947207808E0,1.610621333E0
8.094091056E0,-1.336572170E0,1.589775532E-1,2.037463188E0
8.110756994E0,-4.215883255E0,5.775726438E-1,2.034179688E0
8.127422931E0,-5.222435951E0,-4.819723070E-1,2.230648994E0
8.144088869E0,-4.874166489E0,-1.474093080E0,3.419162989E0
8.160754806E0,-4.295143127E0,-1.175991058E0,4.778184414E0
8.177420744E0,-4.735805511E0,1.692859083E-1,4.669297695E0
8.194086681E0,-7.904666424E0,1.060384870E0,2.563952208E0
8.210752619E0,-1.175532913E1,4.512763396E-2,-4.389063418E-1
8.227418556E0,-1.229006481E1,-2.703305721E0,-1.677663803E0
8.244084494E0,-9.440151215E0,-3.129383802E0,-1.769217104E-1
8.260750431E0,-6.248535633E0,-7.883973718E-1,1.792506337E0
8.277416369E0,-2.618471861E0,6.843212843E-1,1.191339016E0
8.294082306E0,4.037052691E-1,8.644500375E-1,4.388299882E-1
8.310748244E0,1.648189545E0,6.489674449E-1,1.793651730E-1
8.327414181E0,2.202549219E0,1.396360517E0,-1.204396248E0
8.344080119E0,2.902447701E0,3.187186956E0,-2.529285669E0
8.360746056E0,3.194517374E0,4.728704453E0,-2.678336620E0
8.377411994E0,3.268050194E0,4.464505196E0,-1.892688155E0
8.394077931E0,4.345386505E0,2.554560184E0,-1.102000117E0
8.410743869E0,7.030060768E0,1.708817840E0,1.282816082E-1
8.427409806E0,1.046548843E1,3.661065340E0,7.996983528E-1
8.444075744E0,1.227861118E1,5.417988777E0,7.192932814E-2
8.460741681E0,1.214017391E1,5.449601173E0,-1.471420527E-1
8.477407619E0,1.220721626E1,3.435503483E0,6.024653912E-1
8.494073556E0,1.285954380E1,-3.921751976E-1,2.041815519E0
8.510739494E0,1.218201828E1,-4.035601616E0,3.354105711E0
8.527405431E0,9.051641464E0,-5.226177216E0,3.763767004E0
8.544071369E0,4.714043617E0,-4.613937855E0,2.723540545E0
8.560737306E0,1.631237984E0,-3.619908333E0,6.220130324E-1
8.577403244E0,1.685986817E-1,-1.751731157E0,-3.068068326E-1
8.594069181E0,-2.167195559E0,5.791761875E-1,3.646099269E-1
8.610735119E0,-5.558029652E0,1.619173408E0,1.582597971E0
8.627401056E0,-8.004695892E0,1.094135165E0,2.209574223E0
8.644066994E0,-9.665560722E0,4.149298966E-1,2.529591084E0
8.660732931E0,-1.086713219E1,1.568700790E0,3.175733328E0
8.677398869E0,-1.256067753E1,2.749731541E0,2.758130789E0
8.694064806E0,-1.512195778E1,2.221638918E0,1.202105522E0
8.710730744E0,-1.454041481E1,-7.573959827E-1,1.335197687E0
8.727396681E0,-1.182863331E1,-3.701764107E0,1.876958370E0
8.744062619E0,-9.146172523E0,-4.108676434E0,1.515479207E0
8.760728556E0,-5.260614872E0,-1.224096656E0,8.832340837E-1
8.777394494E0,-2.981860161E0,2.010890484E0,4.394408464E-1
8.794060431E0,-2.250044107E0,2.908098221E0,-3.698022664E-1
8.810726369E0,-1.197218657E0,1.811748624E0,-2.007225275E0
8.827392306E0,-2.975675166E-1,8.704059720E-1,-3.167104721E0
8.844058244E0,3.118464649E-1,8.677334189E-1,-3.486968994E0
8.860724181E0,7.794634700E-1,1.618180752E0,-3.743226767E0
8.877390119E0,8.011491299E-1,2.428569317E0,-3.649077177E0
8.894056056E0,1.101541877E0,2.549825907E0,-2.548909664E0
8.910721994E0,2.886641502E0,1.981950760E0,-9.510400891E-1
8.927387931E0,5.963414669E0,2.270966291E0,3.530798554E-1
8.944053869E0,9.313931465E0,3.704207659E0,8.012255430E-1
8.960719806E0,1.159421349E1,5.240532398E0,4.166097939E-1
8.977385744E0,1.179282093E1,5.968530655E0,7.123447061E-1
8.994051681E0,1.192514992E1,5.413101673E0,1.398574948E0
9.010717619E0,1.206045628E1,3.292026758E0,1.960723281E0
9.027383556E0,1.153587627E1,5.419898033E-1,2.841972113E0
9.044049494E0,1.037897396E1,-2.186055899E0,3.587914228E0
9.060715431E0,8.248125076E0,-3.915184975E0,3.459556341E0
9.077381369E0,5.179980755E0,-4.673955441E0,2.662683249E0
9.094047306E0,3.170464516E0,-4.814530849E0,1.564348340E0
9.110713244E0,2.610683441E0,-3.454058647E0,1.173013091E0
9.127379181E0,1.002047300E0,-8.047379851E-1,1.465082765E0
9.144045119E0,-1.879783630E0,1.897880554E0,2.219195366E0
9.160711056E0,-4.645932198E0,3.380220175E0,2.610454321E0
9.177376994E0,-6.871923447E0,2.932456255E0,2.536081553E0
9.194042931E0,-7.966669559E0,2.262032270E0,2.808374405E0
9.210708869E0,-8.061353683E0,2.535623312E0,3.286070824E0
9.227374806E0,-8.767436981E0,2.505996466E0,2.723922491E0
9.244040744E0,-1.075946712E1,1.800676703E0,1.091462612E0
9.260706681E0,-1.219981003E1,7.650317550E-1,3.095557392E-1
9.277372619E0,-1.037828732E1,-9.804379940E-2,-1.212566569E-1
9.294038556E0,-7.657189846E0,2.193004489E-1,-8.069523573E-1
9.310704494E0,-6.036489487E0,1.285717607E0,-1.420031548E0
9.327370431E0,-4.763141632E0,1.195920467E0,-1.777921915E0
9.344036369E0,-3.468795538E0,3.461312652E-1,-1.946062446E0
9.360702306E0,-2.099465847E0,-2.432768941E-1,-1.986150503E0
9.377368244E0,-5.424479246E-1,-2.458730787E-1,-1.948429585E0
9.394034181E0,2.790888548E-1,4.242455959E-1,-2.103436470E0
9.410700119E0,-4.452440739E-1,1.043051600E0,-2.604727507E0
9.427366056E0,-1.080467105E0,8.874338269E-1,-2.790812016E0
9.444031994E0,4.694495797E-1,8.536835015E-2,-2.062890291E0
9.460697931E0,3.545993805E0,4.617374241E-1,-7.669407129E-1
9.477363869E0,5.322541237E0,2.002949238E0,4.825831577E-2
9.494029806E0,5.410658360E0,3.526446104E0,-7.910698652E-2
9.510695744E0,6.028013706E0,2.978958368E0,-1.656207144E-1
9.527361681E0,7.913371563E0,-4.325686097E-1,7.263182402E-1
9.544027619E0,1.040134716E1,-2.406501770E0,1.666286349E0
9.560693556E0,1.168347645E1,3.257436454E-1,1.046182275E0
9.577359494E0,1.040844822E1,2.406960011E0,-3.714057803E-1
9.594025431E0,9.005444527E0,2.727434874E0,-6.862302423E-1
9.610691369E0,7.741565704E0,1.198440313E0,1.968511790E-1
9.627357306E0,6.874901295E0,-1.289840937E0,1.149494767E0
9.644023244E0,6.575806618E0,-3.242164850E0,1.724318504E0
9.660689181E0,5.343844891E0,-3.592877626E0,1.923078656E0
9.677355119E0,2.642295599E0,-2.225991249E0,1.590920925E0
9.694021056E0,-6.113992929E-1,-4.447859228E-1,1.364748240E0
9.710686994E0,-3.021489859E0,1.890626550E-1,1.600771189E0
9.727352931E0,-4.299342632E0,-2.865719497E-1,2.460792303E0
9.744018869E0,-4.760850906E0,-1.105817914E0,3.759948969E0
9.760684806E0,-4.811476231E0,-1.431867003E0,4.909825802E0
9.777350744E0,-5.083616734E0,-6.619483232E-1,5.510305882E0
9.794016681E0,-5.598804951E0,6.467530727E-1,5.245801449E0
9.810682619E0,-6.257622242E0,1.423238635E0,4.515741348E0
9.827348556E0,-6.194474220E0,1.198440313E0,4.317592144E0
9.844014494E0,-5.599720955E0,5.185478330E-1,4.918377876E0
9.860680431E0,-5.443186760E0,2.583194375E-1,4.630965710E0
9.877346369E0,-5.598728657E0,9.273691177E-1,2.482936144E0
9.894012306E0,-6.486162186E0,3.041572094E0,-2.906189263E-1
9.910678244E0,-6.809233189E0,4.636998177E0,-2.303876400E0
9.927344181E0,-5.507633209E0,4.490772247E0,-2.979263783E0
9.944010119E0,-3.569283009E0,3.400149822E0,-2.482783556E0
9.960676056E0,-1.768377185E0,1.909410596E0,-1.806403518E0
9.977341994E0,-6.185769439E-1,5.940660238E-1,-1.527238250E0
9.994007931E0,-6.437751055E-1,-2.463312149E-1,-1.739361048E0
1.001067387E1,-9.259182811E-1,-2.695440948E-1,-2.075947523E0
1.002733981E1,1.489746422E-1,-2.680169232E-2,-2.043342590E0
1.004400574E1,2.607094526E0,7.182242870E-1,-1.701792955E0
1.006067168E1,4.587059975E0,1.515708208E0,-1.494328022E0
1.007733762E1,5.088809013E0,1.727449179E0,-1.574351311E0
1.009400356E1,5.284209251E0,1.589851975E0,-2.045175314E0
1.011066949E1,6.068635941E0,3.688859642E-1,-2.362595797E0
1.012733543E1,7.436057091E0,-2.163148642E0,-1.958814263E0
1.014400137E1,8.990020752E0,-1.872987747E0,-1.843208075E0
1.016066731E1,8.953979492E0,5.429060459E-1,-2.884503603E0
1.017733324E1,7.223552227E0,2.233550787E0,-3.773311853E0
1.019399918E1,6.056036949E0,2.391230106E0,-3.481165648E0
1.021066512E1,6.030304432E0,6.986002326E-1,-2.435212374E0
1.022733106E1,6.156982422E0,-1.374598503E0,-1.234023213E0
1.024399699E1,5.893929005E0,-2.346713305E0,-7.086031139E-2
1.026066293E1,4.938459873E0,-2.211712360E0,3.911825418E-1
1.027732887E1,2.817003012E0,-1.315268278E0,1.805105358E-1
1.029399481E1,1.714239269E-1,-2.666424811E-1,1.430187225E-1
1.031066074E1,-1.697898626E0,2.893208265E-1,4.867065251E-1
1.032732668E1,-2.538219452E0,1.589775532E-1,1.377881885E0
1.034399262E1,-2.845713615E0,-4.974730015E-1,2.763094187E0
1.036065856E1,-2.828227520E0,-8.518509269E-1,4.337445259E0
1.037732449E1,-2.576474905E0,-2.354120165E-1,5.538787365E0
1.039399043E1,-3.041724920E0,1.914450169E0,5.643779755E0
1.041065637E1,-6.528769970E0,3.754298687E0,4.290866852E0
1.042732231E1,-1.011530972E1,1.953621864E0,2.285856009E0
1.044398824E1,-9.859357834E0,-1.203098178E0,1.947436929E0
1.046065418E1,-6.161716461E0,8.857539296E-1,2.634278059E0
1.047732012E1,-3.320279121E0,3.344179153E0,1.868864417E0
1.049398606E1,-3.870820999E0,3.209865332E0,2.115119249E-1
1.051065199E1,-5.037420273E0,2.772791624E0,-5.965858102E-1
1.052731793E1,-5.048568249E0,2.652374983E0,-1.169042468E0
1.054398387E1,-4.069581032E0,2.454149246E0,-1.227456450E0
1.056064981E1,-2.529132843E0,1.836870432E0,-8.210785985E-1
1.057731574E1,-9.851721525E-1,9.391282201E-1,-4.783834815E-1
1.059398168E1,-1.592066288E-1,-1.313359290E-1,-4.176024497E-1
1.061064762E1,2.504545450E-1,-9.259182811E-1,-4.823541045E-1
1.062731356E1,1.126892805E0,-1.452025533E0,-4.095084667E-1
1.064397949E1,2.574260473E0,-1.270904183E0,-1.738673896E-1
1.066064543E1,3.852418661E0,-2.551887631E-1,5.001455545E-2
1.067731137E1,4.175795078E0,6.123155951E-1,-1.054505333E-1
1.069397731E1,3.851349831E0,1.430950761E0,-5.501601100E-1
1.071064324E1,3.088455915E0,2.218508244E0,-5.572614074E-1
1.072730918E1,2.410777807E0,-3.689623177E-1,8.042035103E-1
1.074397512E1,5.045055866E0,-2.193157196E0,2.395735264E0
1.076064106E1,8.794238091E0,-4.566214085E-1,2.298760414E0
1.077730699E1,8.877774239E0,2.321133375E0,1.618867993E0
1.079397293E1,7.369854450E0,2.727893114E0,1.293811560E0
1.081063887E1,6.363225460E0,6.440041661E-1,8.918625712E-1
1.082730481E1,5.382100582E0,-1.701029301E0,5.263363719E-1
1.084397074E1,4.382420063E0,-2.841132164E0,2.067013681E-1
1.086063668E1,3.677329540E0,-2.935052633E0,-2.180023640E-1
1.087730262E1,3.238881350E0,-2.431547165E0,-6.323977709E-1
1.089396856E1,2.686506987E0,-2.297615051E0,-8.436042666E-1
1.091063449E1,1.497458696E0,-1.930485368E0,-8.181006312E-1
1.092730043E1,-5.396226645E-1,-1.350316644E0,-7.038689256E-1
1.094396637E1,-2.870453596E0,-1.255708933E0,-4.166861475E-1
1.096063231E1,-3.721388340E0,-1.116966248E0,2.767980993E-1
1.097729824E1,-2.446360826E0,-1.419496983E-1,1.655367136E0
1.099396418E1,-1.256854236E-1,1.965152025E0,3.282100201E0
1.101063012E1,1.671936870E0,4.344088554E0,4.332176685E0
1.102729606E1,1.631467104E0,5.621635914E0,4.253527641E0
1.104396199E1,-1.032132387E0,3.058752775E0,2.752709389E0
1.106062793E1,-3.185201645E0,-1.624365807E0,1.994168043E0
1.107729387E1,-1.987143159E0,-3.233001947E0,2.888245106E0
1.109395981E1,1.830761790E0,-8.565851450E-1,4.182590961E0
1.111062574E1,5.100949764E0,1.573282242E0,3.665265083E0
1.112729168E1,5.463498116E0,1.642080903E0,2.051818371E0
1.114395762E1,3.456578255E0,1.087721109E0,1.512348533E0
1.116062356E1,9.929606915E-1,4.341721535E-1,1.600312948E0
1.117728949E1,-9.697478265E-3,-8.985821009E-1,1.577405572E0
1.119395543E1,6.078104377E-1,-2.291506529E0,1.918115377E0
1.121062137E1,2.724685907E0,-2.454149246E0,2.354959965E0
1.122728731E1,4.158462048E0,-8.520036340E-1,2.212552309E0
1.124395324E1,2.653672934E0,6.255255342E-1,1.504483581E0
1.126061918E1,-2.706894577E-1,4.999928176E-1,9.140827656E-1
1.127728512E1,-8.525381684E-1,-8.187115192E-1,5.829176903E-1
1.129395106E1,1.310228586E0,-1.204548955E0,2.931387424E-1
1.131061699E1,2.857396364E0,7.691551447E-1,-5.054906011E-2
1.132728293E1,1.634368658E0,3.335703373E0,-2.940550447E-1
1.134394887E1,4.074468017E-1,4.723664761E0,4.594466686E-1
1.136061481E1,1.764101148E0,3.508196354E0,2.162308693E0
1.137728074E1,4.998171806E0,9.350812435E-1,4.013992310E0
1.139394668E1,7.397266865E0,-1.456912458E-1,5.330100536E0
1.141061262E1,7.559604168E0,5.914698243E-1,5.464338303E0
1.142727856E1,5.993041515E0,1.742491841E0,4.361879826E0
1.144394449E1,3.676566124E0,1.970191598E0,3.060585260E0
1.146061043E1,1.476231098E0,-7.053961158E-1,2.595029831E0
1.147727637E1,5.513054505E-2,-5.739379883E0,2.645807981E0
1.149394231E1,8.513928205E-2,-8.243848801E0,2.376951218E0
1.151060824E1,1.154763460E0,-4.588968754E0,1.125289321E0
1.152727418E1,1.152854562E0,8.775836229E-1,-6.027708054E-1
1.154394012E1,2.718348242E-2,3.953593254E0,-1.333517790E0
1.156060606E1,-3.619373962E-2,4.139448643E0,-1.276936412E0
1.157727199E1,7.847321630E-1,2.339764833E0,-6.765327454E-1
1.159393793E1,1.146135092E0,1.178968996E-1,2.384663373E-1
1.161060387E1,1.224554777E0,-9.885319471E-1,1.069242477E0
1.162726981E1,1.397124052E0,-7.556397319E-1,1.381394386E0
1.164393574E1,1.183550477E0,4.534143806E-1,1.181641579E0
1.166060168E1,4.088212550E-1,1.592142701E0,9.869284034E-1
1.167726762E1,-7.273108959E-1,1.556636214E0,1.003345370E0
1.169393356E1,-1.796400547E0,-3.298669681E-2,1.017547965E0
1.171059949E1,-2.341979265E0,-1.695607901E0,1.262046576E0
1.172726543E1,-1.992259145E0,-1.774714947E0,1.763184786E0
1.174393137E1,-9.017127752E-1,-2.181550860E-1,1.757305264E0
1.176059731E1,4.436405376E-2,1.293353438E0,9.409608245E-1
1.177726324E1,7.927497625E-1,1.367573500E0,6.276635826E-2
1.179392918E1,2.170937061E0,4.957931340E-1,-2.247982323E-1
1.181059512E1,4.295753956E0,5.780307949E-2,-3.662134409E-1
1.182726106E1,6.316494465E0,7.528908253E-1,-9.688315392E-1
1.184392699E1,7.482788086E0,1.812435746E0,-2.146044254E0
1.186059293E1,7.621683598E0,2.184147120E0,-3.078453064E0
1.187725887E1,7.289372921E0,1.336266756E0,-3.203909397E0
1.189392481E1,6.988903999E0,-2.929096520E-1,-3.091892004E0
1.191059074E1,6.519225121E0,-1.861839533E0,-2.728885651E0
1.192725668E1,5.728766441E0,-2.368704557E0,-1.929721832E0
1.194392262E1,3.997193575E0,-1.810984969E0,-9.492838383E-1
1.196058856E1,8.460476995E-1,-3.422369957E-1,-1.620318890E-1
1.197725449E1,-2.789590359E0,1.165988207E0,9.715804458E-1
1.199392043E1,-5.011152744E0,1.196531415E0,2.187812090E0
1.201058637E1,-6.213487625E0,-3.369682729E-1,3.681529284E0
1.202725231E1,-6.558473110E0,-1.963853955E0,5.641565323E0
1.204391824E1,-5.731514931E0,-1.999513149E0,7.497296333E0
1.206058418E1,-5.050553799E0,-2.615264952E-1,8.096631050E0
1.207725012E1,-6.567178249E0,1.356806993E0,6.773879528E0
1.209391606E1,-9.880890846E0,1.869017124E0,4.495735645E0
1.211058199E1,-1.294254494E1,1.325958371E0,2.955134630E0
1.212724793E1,-1.212841511E1,-7.034871578E-1,3.343568325E0
1.214391387E1,-5.678675175E0,-3.556760073E0,4.924715519E0
1.216057981E1,6.898953915E-1,-3.491321325E0,5.038947105E0
1.217724574E1,1.073442101E0,5.894081593E-1,2.865872145E0
1.219391168E1,-3.639990389E-1,4.878595352E0,-2.945895493E-1
1.221057762E1,6.952404976E-1,5.625530243E0,-2.776074886E0
1.222724356E1,1.928118348E0,3.470246553E0,-3.710010767E0
1.224390949E1,1.688659310E0,6.685151458E-1,-4.301939011E0
1.226057543E1,1.509981394E0,-5.974257588E-1,-4.925860882E0
1.227724137E1,2.618013620E0,2.751945853E-1,-4.853473186E0
1.229390731E1,4.482602119E0,2.315482855E0,-3.534769058E0
1.231057324E1,6.937667847E0,3.127398491E0,-2.449338675E0
1.232723918E1,8.650990486E0,2.417649984E0,-1.907654405E0
1.234390512E1,9.714277267E0,1.257465124E0,-1.598251343E0
1.236057106E1,1.094868183E1,3.013090491E-1,-2.229961872E0
1.237723699E1,1.133261108E1,5.495492220E-1,-2.703000307E0
1.239390293E1,1.102030563E1,4.366919696E-1,-2.844262838E0
1.241056887E1,1.018021393E1,-9.803616405E-1,-2.850142241E0
1.242723481E1,8.877697945E0,-2.117257357E0,-1.935830474E0
1.244390074E1,7.170177937E0,-2.496069908E0,-6.469057798E-1
1.246056668E1,5.038412571E0,-2.014861107E0,5.675697327E-1
1.247723262E1,2.949942350E0,-2.220340729E0,1.115362763E0
1.249389856E1,1.338710189E0,-2.643899202E0,9.890664220E-1
1.251056449E1,-9.262236953E-1,-1.514639258E0,7.405208349E-1
1.252723043E1,-3.805840254E0,1.282052398E0,1.289993644E0
1.254389637E1,-6.088871002E0,4.043619633E0,2.884579897E0
1.256056231E1,-7.510658741E0,4.520170212E0,4.471224785E0
1.257722824E1,-7.984613419E0,3.502851248E0,5.429595470E0
1.259389418E1,-8.555771828E0,2.901989460E0,5.396761417E0
1.261056012E1,-1.086064148E1,2.779969215E0,4.175107956E0
1.262722606E1,-1.361854267E1,2.853654861E0,2.724838734E0
1.264389199E1,-1.346338367E1,2.455065489E0,1.693011761E0
1.266055793E1,-1.064515877E1,1.671020627E0,7.693078518E-1
1.267722387E1,-7.970487118E0,1.026710987E0,-9.315688163E-2
1.269388981E1,-5.789547443E0,1.309465051E0,-3.116937578E-1
1.271055574E1,-2.803411245E0,1.419573426E0,-6.177370250E-2
1.272722168E1,-1.882990748E-1,9.229403138E-1,-1.567631811E-1
1.274388762E1,1.113148332E0,5.605447888E-1,-7.572432756E-1
1.276055356E1,1.601000190E0,6.593521833E-1,-1.729969025E0
1.277721949E1,1.442862630E0,5.319104791E-1,-2.944368124E0
1.279388543E1,8.363502622E-1,4.514290690E-1,-4.192288399E0
1.281055137E1,5.557342172E-1,1.409265041E0,-4.765661716E0
1.282721731E1,1.591608167E0,3.167104721E0,-3.930609465E0
1.284388324E1,4.531776905E0,4.556898594E0,-2.240422964E0
1.286054918E1,7.977741241E0,4.694495678E0,-8.836159110E-1
1.287721512E1,1.121112537E1,3.192379236E0,-3.513999581E-1
1.289388106E1,1.388442230E1,2.062813997E0,-2.548069656E-1
1.291054699E1,1.430141354E1,1.102076411E0,2.061668551E-3
1.292721293E1,1.423482895E1,-7.864884287E-2,-2.291506529E-1
1.294387887E1,1.346078682E1,-1.767995358E0,-2.437350452E-1
1.296054481E1,1.142752361E1,-2.824486017E0,4.841103256E-1
1.297721074E1,8.057077408E0,-2.576169491E0,1.471878648E0
1.299387668E1,4.680522442E0,-2.576704025E0,1.876042128E0
1.301054262E1,2.835710764E0,-2.634736061E0,1.789299250E0
1.302720856E1,2.155054569E0,-1.281594276E0,2.528140306E0
1.304387449E1,9.362266064E-1,7.619010806E-1,3.347080946E0
1.306054043E1,-1.405370831E0,2.342208385E0,3.801793337E0
1.307720637E1,-4.129292965E0,3.629758596E0,4.053851604E0
1.309387231E1,-6.640329361E0,3.977798700E0,4.172512054E0
1.311053824E1,-8.203074455E0,3.916177750E0,4.711218357E0
1.312720418E1,-8.035315514E0,4.712974548E0,5.847808361E0
1.314387012E1,-8.294474602E0,4.832322121E0,5.226253510E0
1.316053606E1,-1.134192657E1,4.237721920E0,2.903974771E0
1.317720199E1,-1.276829529E1,2.922606230E0,1.327332854E0
1.319386793E1,-9.929607391E0,2.126114845E0,1.227303743E0
1.321053387E1,-6.827940941E0,2.527834892E0,1.663308382E0
1.322719981E1,-3.487579823E0,2.415588379E0,1.150258422E0
1.324386574E1,-1.714773774E0,1.766849995E0,3.508654535E-1
1.326053168E1,-1.479209065E0,1.677740097E0,-4.862483740E-1
1.327719762E1,-1.455919862E0,1.551291108E0,-1.468977094E0
1.329386356E1,-1.205465317E0,1.385594010E0,-2.215682983E0
1.331052949E1,-8.912517428E-1,1.176296473E0,-2.815475702E0
1.332719543E1,-1.082070589E0,5.939896107E-1,-3.279503822E0
1.334386137E1,-1.529987216E0,-2.362519503E-1,-3.228649378E0
1.336052731E1,-1.476765633E0,-1.058323264E0,-2.605185509E0
1.337719324E1,4.558578506E-2,-1.548542261E0,-1.555109024E0
1.339385918E1,2.870835304E0,-4.712058306E-1,-2.344193608E-1
1.341052512E1,4.819036007E0,1.399491191E0,-1.064431891E-1
1.342719106E1,5.580478668E0,2.870835304E0,-1.435684919E0
1.344385699E1,6.519683361E0,2.533638000E0,-1.943924427E0
1.346052293E1,8.064407349E0,9.315688014E-1,-1.300378442E0
1.347718887E1,9.819956779E0,1.547167778E0,-9.094249606E-1
1.349385481E1,9.946635246E0,2.504163742E0,-1.397735000E0
1.351052074E1,9.107765198E0,2.207741737E0,-1.669493437E0
1.352718668E1,8.475672722E0,8.319978118E-1,-8.852193952E-1
1.354385262E1,7.584115505E0,-1.212566614E0,4.774671793E-1
1.356051856E1,6.540071011E0,-2.922147989E0,1.400025725E0
1.357718449E1,5.501753807E0,-3.775297165E0,1.578856349E0
1.359385043E1,3.919613838E0,-3.282787323E0,1.298240423E0
1.361051637E1,1.632612467E0,-1.717369914E0,7.922916412E-1
1.362718231E1,-8.319978118E-1,-9.147699922E-2,4.133263826E-1
1.364384824E1,-2.910923481E0,7.683915496E-1,6.197223067E-1
1.366051418E1,-4.209469318E0,4.961749315E-1,1.619631648E0
1.367718012E1,-4.499782562E0,-6.197223067E-1,2.880685568E0
1.369384606E1,-4.545521259E0,-1.437441230E0,3.904953003E0
1.371051199E1,-5.131416798E0,-1.115362763E0,4.411971092E0
1.372717793E1,-5.589336395E0,-1.221729591E-1,4.142503262E0
1.374384387E1,-7.083282471E0,5.647444725E-1,2.851364136E0
1.376050981E1,-9.313549995E0,3.609447181E-1,2.055101871E0
1.377717574E1,-9.228258133E0,8.959095478E-1,2.626183987E0
1.379384168E1,-5.856894970E0,2.484616041E0,3.068221092E0
1.381050762E1,-3.190775871E0,3.622046471E0,1.990961075E0
1.382717356E1,-3.369835615E0,3.590968609E0,4.194350243E-1
1.384383949E1,-3.358000040E0,3.354869366E0,-7.275399566E-1
1.386050543E1,-2.428187609E0,3.150916815E0,-8.688024282E-1
1.387717137E1,-1.394909739E0,2.522260666E0,-4.434114695E-1
1.389383731E1,-4.773144722E-1,8.881210089E-1,-3.173442483E-1
1.391050324E1,1.122464053E-2,-7.758746147E-1,-7.030289769E-1
1.392716918E1,2.193004489E-1,-1.808083415E0,-1.426980138E0
1.394383512E1,7.570905089E-1,-2.102291107E0,-2.021656990E0
1.396050106E1,2.074038744E0,-9.789108038E-1,-1.909028769E0
1.397716699E1,3.514305115E0,4.103484154E-1,-1.587179422E0
1.399383293E1,4.129064083E0,1.025794625E0,-1.732336164E0
1.401049887E1,3.650985956E0,1.224707484E0,-2.034943342E0
1.402716481E1,3.121366262E0,3.015381396E-1,-1.798462272E0
1.404383074E1,4.614625454E0,-1.051450968E-1,-1.241582632E0
1.406049668E1,6.526555538E0,8.712459207E-1,-9.718095064E-1
1.407716262E1,6.599095821E0,1.892840862E0,-8.205441236E-1
1.409382856E1,6.461651325E0,1.738979340E0,-4.389063418E-1
1.411049449E1,6.906818867E0,6.271290779E-1,9.033162892E-2
1.412716043E1,7.114131451E0,-4.826595485E-1,6.743183732E-1
1.414382637E1,7.031435490E0,-1.470656991E0,9.594395161E-1
1.416049231E1,6.432864189E0,-2.077703714E0,7.737365961E-1
1.417715824E1,5.220908642E0,-2.032041788E0,2.362519503E-1
1.419382418E1,3.770639181E0,-1.767002702E0,-4.586067200E-1
1.421049012E1,2.353432894E0,-1.754861832E0,-9.510400891E-1
1.422715606E1,8.513164520E-1,-2.055559874E0,-9.932661057E-1
1.424382199E1,-4.832704067E-1,-2.227594852E0,-4.166097939E-1
1.426048793E1,-1.616348147E0,-1.548389554E0,2.666424811E-1
1.427715387E1,-3.780107498E0,-4.189768732E-1,6.578249931E-1
1.429381981E1,-6.479442596E0,-3.032180071E-1,6.446914077E-1
1.431048574E1,-6.927512169E0,-1.792582750E0,8.196278214E-1
1.432715168E1,-4.510320187E0,-1.361388564E0,1.857410669E0
1.434381762E1,-7.864884138E-1,1.549840331E0,3.259650707E0
1.436048356E1,1.353141904E0,3.653353214E0,3.923431873E0
1.437714949E1,1.277852774E0,3.467879295E0,3.559127331E0
1.439381543E1,4.138608873E-1,2.380005598E0,2.706665516E0
1.441048137E1,-1.024725661E-1,1.872606039E0,2.226144075E0
1.442714731E1,4.030944109E-1,2.268293619E0,2.326402187E0
1.444381324E1,1.347338676E0,2.731023788E0,2.336557865E0
1.446047918E1,1.180343509E0,1.281059742E0,1.308777809E0
1.447714512E1,2.855792940E-1,-1.501123786E0,1.591302752E-1
1.449381106E1,1.117118970E-1,-1.899331331E0,-4.115701318E-1
1.451047699E1,3.623955250E-1,1.080467105E-1,-5.730675459E-1
1.452714293E1,-4.780016840E-2,1.943771720E0,-1.313359290E-1
1.454380887E1,-6.931788325E-1,1.485623121E0,1.025718331E0
1.456047481E1,2.826013267E-1,-8.820123672E-1,2.441931963E0
1.457714074E1,2.653214693E0,-2.814024925E0,3.171915293E0
1.459380668E1,3.632125616E0,-2.131154537E0,3.335474491E0
1.461047262E1,3.022482634E0,4.031707644E-1,3.267515659E0
1.462713856E1,3.324707985E0,2.461250544E0,3.056156397E0
1.464380449E1,3.953058720E0,3.017672062E0,2.775922298E0
1.466047043E1,2.292270184E0,1.040913582E0,2.459723473E0
1.467713637E1,6.910407543E-2,-3.003087521E0,2.042273760E0
1.469380231E1,-7.154753804E-2,-5.345448494E0,1.665446520E0
1.471046824E1,8.665117025E-1,-3.617693901E0,1.155068994E0
1.472713418E1,4.809032977E-1,5.448150039E-1,2.109010667E-1
1.474380012E1,3.028362095E-1,3.481929302E0,-7.580068111E-1
1.476046606E1,1.199738383E0,3.933663845E0,-6.894372702E-1
1.477713199E1,2.202854872E0,2.552422047E0,3.404807448E-1
1.479379793E1,2.110690594E0,6.649262905E-1,1.285564899E0
1.481046387E1,9.237039089E-1,-8.487966061E-1,1.737986684E0
1.482712981E1,1.359174121E-2,-1.505170822E0,1.779525518E0
1.484379574E1,-1.906661689E-1,-8.875101805E-1,1.497840405E0
1.486046168E1,1.300378442E-1,8.888846040E-1,1.384219646E0
1.487712762E1,7.920625210E-1,2.744233608E0,2.094044447E0
1.489379356E1,1.769598961E0,3.453676701E0,3.245142698E0
1.491045949E1,1.847178698E0,3.006294727E0,3.830503941E0
1.492712543E1,-2.832121849E-1,1.676671147E0,2.889848471E0
1.494379137E1,-3.797441006E0,9.728785157E-1,8.762091398E-1
1.496045731E1,-5.591474533E0,1.534415960E0,-6.538543701E-1
1.497712324E1,-4.070573807E0,2.159941435E0,-8.641445637E-1
1.499378918E1,-1.953240156E0,1.333670497E0,-1.672242396E-2
1.501045512E1,-1.095356941E0,-8.954514265E-1,1.020602345E0
1.502712106E1,-7.316632867E-1,-2.894124508E0,2.003025532E0
1.504378699E1,-7.861829996E-1,-2.665584803E0,1.990273833E0
1.506045293E1,-1.664301038E0,-1.210734010E0,1.313206553E0
1.507711887E1,-2.592433691E0,-1.056796089E-1,6.052142978E-1
1.509378481E1,-2.798447847E0,7.704532146E-2,9.285144508E-2
1.511045074E1,-2.481714487E0,-2.899316847E-1,-5.589412898E-2
1.512711668E1,-1.785481334E0,-1.052978158E0,1.400407553E-1
1.514378262E1,-7.731257081E-1,-2.076558352E0,5.875755548E-1
1.516044856E1,-1.738673896E-1,-2.562043190E0,8.041270971E-1
1.517711449E1,-1.456148922E-1,-1.842215419E0,3.614792228E-1
1.519378043E1,2.625955045E-1,-5.343539715E-1,-3.291034102E-1
1.521044637E1,1.090622663E0,6.120101213E-1,-8.489493132E-1
1.522711231E1,1.850843906E0,1.119867802E0,-1.079703450E0
1.524377824E1,2.153909206E0,1.864588380E0,-1.361464858E0
1.526044418E1,2.194302559E0,2.713308573E0,-1.610697746E0
1.527711012E1,2.459036112E0,2.309985161E0,-1.762879372E0
1.529377606E1,2.838688612E0,9.815833569E-1,-1.538310289E0
1.531044199E1,3.560578108E0,5.219839811E-1,-8.277217746E-1
1.532710793E1,5.159287453E0,1.172707677E0,-3.686569035E-1
1.534377387E1,6.593445301E0,1.397276878E0,-3.129154742E-1
1.536043981E1,7.872519970E0,9.661589861E-1,-6.887500733E-2
1.537710574E1,9.409302711E0,1.627572894E0,4.619665071E-2
1.539377168E1,1.034224606E1,2.661003351E0,2.153298259E-2
1.541043762E1,1.056582260E1,2.167653561E0,3.901898861E-2
1.542710356E1,1.025412846E1,2.714530230E-1,6.675988436E-1
1.544376949E1,1.022381496E1,-2.477209330E0,1.835190535E0
1.546043543E1,1.020755005E1,-4.547048569E0,2.947880745E0
1.547710137E1,8.187726021E0,-4.813538074E0,3.045695543E0
1.549376731E1,4.573009968E0,-4.002920628E0,1.889710188E0
1.551043324E1,1.323820353E0,-1.970191598E0,7.349466681E-1
1.552709918E1,-9.615011811E-1,2.641226649E-1,1.299614757E-1
1.554376512E1,-3.351662397E0,2.325638533E0,2.186132371E-1
1.556043106E1,-5.994186878E0,3.940230608E0,1.600160241E0
1.557709699E1,-8.145271301E0,3.337154388E0,3.303404093E0
1.559376293E1,-8.968335152E0,1.717522740E0,4.809796333E0
1.561042887E1,-9.146554947E0,1.392695308E0,5.252521038E0
1.562709481E1,-1.117164803E1,2.924667835E0,3.812712431E0
1.564376074E1,-1.387770271E1,4.590419769E0,1.722944140E0
1.566042668E1,-1.414953709E1,4.239630699E0,1.297629476E0
1.567709262E1,-1.081474972E1,3.455967605E-1,1.992030025E0
1.569375856E1,-6.070086956E0,-3.518810272E0,3.089754105E0
1.571042449E1,-2.826013088E0,-3.174817085E0,4.169991970E0
1.572709043E1,-1.544724345E0,5.836049318E-1,3.305236578E0
1.574375637E1,-1.770591617E0,3.198029757E0,7.090612650E-1
1.576042231E1,-1.795560718E0,3.742004871E0,-1.767766356E0
1.577708824E1,-1.775783896E0,3.091968536E0,-2.953683853E0
1.579375418E1,-1.501963735E0,1.921398759E0,-3.272631645E0
1.581042012E1,-1.052825451E0,4.796051979E-1,-3.367850304E0
1.582708606E1,-8.334486485E-1,-6.453786492E-1,-3.610821724E0
1.584375199E1,5.742128938E-2,-3.962221742E-1,-3.087005138E0
1.586041793E1,2.535547018E0,1.184237719E0,-2.011119604E0
1.587708387E1,4.761919975E0,2.902065754E0,-1.453323722E0
1.589374981E1,5.886445522E0,3.353724003E0,-1.889099360E0
1.591041574E1,7.146201611E0,2.619693518E0,-2.283794403E0
1.592708168E1,9.036064148E0,1.655596256E0,-1.760970473E0
1.594374762E1,1.060461235E1,8.911753297E-1,-1.106276155E0
1.596041356E1,1.082872391E1,6.495783329E-1,-1.328019977E0
1.597707949E1,9.933272362E0,6.428588033E-1,-1.751654744E0
1.599374543E1,9.427018166E0,1.226311028E-1,-1.572900414E0
1.601041137E1,8.966807365E0,-8.902590871E-1,-6.866883636E-1
1.602707731E1,7.593889236E0,-1.821522355E0,3.986656368E-1
1.604374324E1,6.168283463E0,-2.284634352E0,6.642391086E-1
1.606040918E1,4.674337387E0,-1.627267361E0,3.397171795E-1
1.607707512E1,2.797073364E0,4.415025115E-1,9.445496649E-2
1.609374106E1,3.606393039E-1,2.483547211E0,6.937133074E-1
1.611040699E1,-1.975765824E0,3.460243464E0,1.538691998E0
1.612707293E1,-4.058127403E0,2.437808514E0,2.155589104E0
1.614373887E1,-5.697688580E0,-1.298087649E-3,2.677344084E0
1.616040481E1,-6.432711601E0,-1.958432436E0,3.602727652E0
1.617707074E1,-5.795579433E0,-1.844506145E0,5.532831192E0
1.619373668E1,-5.003135204E0,-1.621845961E-1,7.148416042E0
1.621040262E1,-5.935162067E0,9.478330612E-1,6.496928692E0
1.622706856E1,-8.020883560E0,7.934370041E-1,4.262079716E0
1.624373449E1,-9.692439079E0,6.491202116E-1,3.076314926E0
1.626040043E1,-7.747674465E0,2.332739830E0,3.217882872E0
1.627706637E1,-4.344164848E0,3.951760530E0,2.914970398E0
1.629373231E1,-3.529423952E0,4.398760796E0,9.221003652E-1
1.631039824E1,-4.194350243E0,4.445797443E0,-1.129794359E0
1.632706418E1,-3.923049927E0,4.167853832E0,-2.148716927E0
1.634373012E1,-2.919475555E0,2.914512157E0,-2.076482058E0
1.636039606E1,-1.828929186E0,1.607796073E0,-1.665522814E0
1.637706199E1,-1.204167247E0,1.024572968E0,-1.513952017E0
1.639372793E1,-1.154763460E0,1.262275696E0,-1.953621864E0
1.641039387E1,-1.217453480E0,1.740200996E0,-2.390772104E0
1.642705981E1,-5.420661569E-1,1.572365999E0,-2.323195219E0
1.644372574E1,8.727730513E-1,8.804088831E-1,-1.741957307E0
1.646039168E1,2.185979605E0,3.217730224E-1,-1.169195175E0
1.647705762E1,2.877554893E0,2.386954129E-1,-9.498947263E-1
1.649372356E1,3.262475967E0,1.885281354E-1,-9.773072600E-1
1.651038949E1,3.971613646E0,2.819904685E-1,-1.068860650E0
1.652705543E1,4.402960777E0,3.653734922E-1,-7.867174745E-1
1.654372137E1,4.412734509E0,-1.843360782E0,1.723402292E-1
1.656038731E1,6.506855488E0,-3.845393896E0,1.665370166E-1
1.657705324E1,7.776690483E0,-7.190641761E-1,-1.881692648E0
1.659371918E1,5.978533745E0,3.797364473E0,-3.810803652E0
1.661038512E1,5.926762581E0,4.329809666E0,-3.911061764E0
1.662705106E1,7.465301991E0,2.264322996E0,-2.314108610E0
1.664371699E1,8.254310608E0,-1.976147592E-1,-1.847866029E-1
1.666038293E1,8.626785278E0,-2.146273375E0,1.014111876E0
1.667704887E1,8.031879425E0,-2.765079498E0,1.038012028E0
1.669371481E1,5.822762966E0,-1.382845163E0,1.049923822E-1
1.671038074E1,2.753549337E0,6.200277805E-1,-9.028581381E-1
1.672704668E1,3.473529816E-1,1.742110014E0,-1.436448574E0
1.674371262E1,-1.277623653E0,1.398803949E0,-1.058934093E0
1.676037856E1,-2.527911186E0,-9.292780608E-2,5.658135191E-2
1.677704449E1,-3.353494883E0,-2.048993111E0,1.574122190E0
1.679371043E1,-3.539885044E0,-3.343721151E0,3.019733667E0
1.681037637E1,-3.562868834E0,-2.892979145E0,3.919842958E0
1.682704231E1,-3.735590935E0,-1.347949505E0,3.910680056E0
1.684370824E1,-3.916864872E0,1.802051067E-1,3.083492756E0
1.686037418E1,-5.003287792E0,1.608177900E0,1.667355418E0
1.687704012E1,-7.976290703E0,2.924591541E0,4.120282829E-1
1.689370606E1,-9.427475929E0,1.991037369E0,-2.830594778E-1
1.691037199E1,-7.075264931E0,2.280816436E-1,5.257254839E-1
1.692703793E1,-4.089739799E0,3.680460155E-2,1.687361240E0
1.694370387E1,-3.555767536E0,5.992583632E-1,1.491731763E0
1.696036981E1,-4.432205677E0,1.416977167E0,3.245982826E-1
1.697703574E1,-4.647840977E0,2.019060850E0,-6.046034098E-1
1.699370168E1,-4.179689407E0,2.074954987E0,-8.996511102E-1
1.701036762E1,-3.124802351E0,1.643302560E0,-3.002400398E-1
1.702703356E1,-1.602603793E0,7.951932549E-1,6.191878319E-1
1.704369949E1,-4.330267608E-1,-1.656970680E-1,8.106175661E-1
1.706036543E1,-3.482692838E-1,-2.063959390E-1,2.344957143E-1
1.707703137E1,-9.846376777E-1,7.124974132E-1,-6.505709887E-1
1.709369731E1,-1.158199668E0,1.480201721E0,-1.386510372E0
1.711036324E1,-4.710530937E-1,1.428812742E0,-1.396895051E0
1.712702918E1,6.590467095E-1,7.166970968E-1,-7.298306823E-1
1.714369512E1,1.684154153E0,-6.047561392E-2,-1.789833754E-1
1.716036106E1,2.265621185E0,-3.273471594E-1,7.864884287E-2
1.717702699E1,2.736521482E0,-5.558869615E-2,1.802814752E-1
1.719369293E1,3.163057804E0,1.059392214E0,-8.529199660E-2
1.721035887E1,2.586096048E0,1.575725675E0,-6.371319890E-1
1.722702481E1,1.622151375E0,-1.743789911E0,-6.081159115E-1
1.724369074E1,3.347844362E0,-4.204505920E0,-1.879172772E-1
1.726035668E1,5.176086426E0,-8.424589038E-1,-8.417716622E-1
1.727702262E1,4.294150352E0,3.859138250E0,-2.000963926E0
1.729368856E1,4.022621155E0,5.453876972E0,-2.096869707E0
1.731035449E1,4.822700977E0,4.111425400E0,-7.626646757E-1
1.732702043E1,5.140503407E0,1.555490851E0,1.176220179E0
1.734368637E1,5.194412231E0,-9.238566160E-1,2.701244116E0
1.736035231E1,5.198917389E0,-2.465908289E0,3.360138178E0
1.737701824E1,4.886383533E0,-3.104567528E0,3.371897221E0
1.739368418E1,4.456029415E0,-3.245142698E0,3.099756956E0
1.741035012E1,4.116693974E0,-3.071351767E0,2.643746376E0
1.742701606E1,3.715737820E0,-2.695211649E0,2.071595192E0
1.744368199E1,3.065319538E0,-1.934837818E0,1.338633776E0
1.746034793E1,2.053651094E0,-8.554397821E-1,6.214785576E-1
1.747701387E1,9.487493634E-1,1.523344070E-1,1.847865991E-2
1.749367981E1,-1.114828214E-1,7.690787315E-1,-3.371210098E-1
1.751034574E1,-8.318451047E-1,7.676279545E-1,-6.032289863E-1
1.752701168E1,-1.231045246E0,4.604393244E-1,-8.235220909E-1
1.754367762E1,-1.562210321E0,3.150535226E-1,-8.336777091E-1
1.756034356E1,-1.798844099E0,3.036761582E-1,-8.234457374E-1
1.757700949E1,-1.976758480E0,7.890082002E-1,-8.416953087E-1
1.759367543E1,-1.901622057E0,1.711872220E0,-1.015104532E0
1.761034137E1,-2.531652689E0,3.280267477E0,-1.823049545E0
1.762700731E1,-5.492972374E0,3.673206329E0,-3.345248222E0
1.764367324E1,-9.063858986E0,1.406287074E0,-4.788340092E0
1.766033918E1,-7.963691235E0,7.444914430E-2,-3.683590889E0
1.767700512E1,-3.003164053E0,1.256625175E0,-1.610468626E0
1.769367106E1,-8.583413959E-1,2.745837212E0,-1.695149690E-1
1.771033699E1,-6.516399980E-1,3.283627272E0,4.605920315E-1
1.772700293E1,-6.987529397E-1,2.477133036E0,2.586248815E-1
1.774366887E1,-1.250287533E0,1.553581834E0,-2.000582218E-1
1.776033481E1,-1.908494234E0,9.001855850E-1,-4.422661066E-1
1.777700074E1,-1.970191598E0,3.249800503E-1,-4.731147587E-1
1.779366668E1,-1.532888770E0,-7.635809743E-5,-4.632645845E-1
1.781033262E1,-7.912989855E-1,-6.200277433E-2,-5.385536551E-1
1.782699856E1,-1.618791670E-1,1.471420527E-1,-8.533017635E-1
1.784366449E1,1.123991162E-1,5.479456782E-1,-1.179656267E0
1.786033043E1,1.928805560E-1,9.844086170E-1,-1.322598577E0
1.787699637E1,3.397171795E-1,1.403538227E0,-1.262962937E0
1.789366231E1,6.782126427E-1,1.583896041E0,-9.217185974E-1
1.791032824E1,1.131856084E0,1.432859659E0,-2.888626754E-1
1.792699418E1,1.702021956E0,8.541416526E-1,3.659079969E-1
1.794366012E1,2.315864801E0,4.347830117E-1,8.181006312E-1
1.796032606E1,2.376951218E0,5.163334608E-1,9.555452466E-1
1.797699199E1,8.876628876E-1,-1.658879638E0,7.825177908E-1
1.799365793E1,7.864884287E-2,-5.325213909E0,5.825359225E-1
1.801032387E1,1.545029759E0,-5.197848320E0,7.501419783E-1
1.802698981E1,2.815017700E0,-8.985057473E-1,-8.826996386E-2
1.804365574E1,1.990273833E0,3.559127331E0,-1.732870698E0
1.806032168E1,1.303127289E0,4.900815487E0,-2.801425934E0
1.807698762E1,1.367191792E0,3.593488455E0,-2.682154417E0
1.809365356E1,1.231808782E0,1.527696490E0,-1.722027779E0
1.811031949E1,9.947169423E-1,-2.435059696E-1,-7.297543287E-1
1.812698543E1,8.254310489E-1,-1.342069864E0,-1.414915472E-1
1.814365137E1,7.341831326E-1,-1.682397962E0,-1.687514037E-2
1.816031731E1,5.741365552E-1,-1.422627687E0,-1.902843714E-1
1.817698324E1,2.470948100E-1,-9.338595271E-1,-4.717403352E-1
1.819364918E1,-3.329212964E-2,-6.627882719E-1,-7.196750641E-1
1.821031512E1,-1.054505333E-1,-7.392991185E-1,-9.093486071E-1
1.822698106E1,-6.841685623E-2,-9.055306911E-1,-9.926552773E-1
1.824364699E1,-3.459021822E-2,-1.008385062E0,-9.759328365E-1
1.826031293E1,-5.039634649E-3,-9.834159613E-1,-9.162971973E-1
1.827697887E1,1.411861181E-1,-9.320269227E-1,-9.383646846E-1
1.829364481E1,2.769508064E-1,-8.874338269E-1,-1.046334982E0
1.831031074E1,1.944077164E-1,-8.607084751E-1,-1.251432896E0
1.832697668E1,-1.469129771E-1,-7.037925720E-1,-1.487226605E0
1.834364262E1,-7.046325207E-1,-3.431532979E-1,-1.773951292E0
1.836030856E1,-1.674762130E0,-2.206749097E-2,-2.325485945E0
1.837697449E1,-3.526751518E0,-1.025260210E0,-3.485976219E0
1.839364043E1,-5.329337120E0,-3.268355608E0,-4.619283199E0
1.841030637E1,-5.244579792E0,-4.710072994E0,-4.511847496E0
1.842697231E1,-3.238041401E0,-3.651215076E0,-3.466275930E0
1.844363824E1,-1.818315387E0,-1.265482783E0,-2.433837891E0
1.846030418E1,-1.901851177E0,5.400808454E-1,-2.204992771E0
1.847697012E1,-2.286619663E0,1.377347350E0,-2.658865213E0
1.849363606E1,-2.579758406E0,1.365893602E0,-3.194517374E0
1.851030199E1,-2.808908939E0,9.659299254E-1,-3.461236238E0
1.852696793E1,-2.844644547E0,3.805687428E-1,-3.516519547E0
1.854363387E1,-2.536616087E0,4.566214234E-2,-3.384114504E0
1.856029981E1,-2.125885725E0,-5.910116807E-2,-2.988503218E0
1.857696574E1,-1.727983713E0,-7.918334752E-2,-2.379471064E0
1.859363168E1,-1.263879180E0,-9.590577334E-2,-1.883677959E0
1.861029762E1,-8.911753297E-1,-1.459966749E-1,-1.607261539E0
1.862696356E1,-5.503128171E-1,-2.086866796E-1,-1.516395450E0
1.864362949E1,-1.575267613E-1,-1.388190240E-1,-1.492037177E0
1.866029543E1,1.608865112E-1,1.182023361E-1,-1.448894858E0
1.867696137E1,2.506836355E-1,4.027126133E-1,-1.294117093E0
1.869362731E1,2.718348205E-1,3.661370873E-1,-1.120326042E0
1.871029324E1,3.940077722E-1,-2.725984156E-2,-1.007697821E0
1.872695918E1,5.969675779E-1,-6.126210093E-1,-9.738711715E-1
1.874362512E1,7.123447061E-1,-9.199623466E-1,-1.014799118E0
1.876029106E1,6.394990683E-1,-6.764563918E-1,-1.035263062E0
1.877695699E1,2.758817971E-1,-2.957349122E-1,-1.149800181E0
1.879362293E1,-3.758345544E-1,-4.179842174E-1,-1.300225735E0
1.881028887E1,-9.875392914E-1,-9.820414782E-1,-1.496313334E0
1.882695481E1,-1.084590435E0,-1.279914379E0,-1.672853231E0
1.884362074E1,-9.653190970E-1,-8.648318052E-1,-1.743026257E0
1.886028668E1,-8.781944513E-1,5.459604040E-2,-1.713933825E0
1.887695262E1,-8.033635616E-1,9.062942863E-1,-1.611843109E0
1.889361856E1,-7.906880975E-1,1.220889568E0,-1.491120934E0
1.891028449E1,-7.749583125E-1,8.886555433E-1,-1.475467563E0
1.892695043E1,-6.515636444E-1,2.295324355E-1,-1.556330800E0
1.894361637E1,-2.085339576E-1,-1.579085439E-1,-1.479819894E0
1.896028231E1,2.952767611E-1,-1.386663020E-1,-1.092837095E0
1.897694824E1,3.699549735E-1,2.069304436E-1,-6.814196706E-1
1.899361418E1,-3.802633286E-2,4.418843091E-1,-4.889972508E-1
1.901028012E1,-5.455022454E-1,4.689914286E-1,-5.659661889E-1
1.902694606E1,-8.617774844E-1,2.635881603E-1,-7.888554931E-1
1.904361199E1,-8.266527653E-1,-2.496146262E-1,-1.039768219E0
1.906027793E1,-4.767036140E-1,-6.889027357E-1,-1.118264318E0
1.907694387E1,-1.748600453E-1,-8.602503538E-1,-9.288198948E-1
1.909360981E1,-1.941022873E-1,-8.693369627E-1,-6.836340427E-1
1.911027574E1,-4.497492015E-1,-7.551051974E-1,-6.075813770E-1
1.912694168E1,-7.917571068E-1,-6.185005903E-1,-7.835104465E-1
1.914360762E1,-1.055956125E0,-4.807505906E-1,-1.100854635E0
1.916027356E1,-8.947641850E-1,-3.181841969E-1,-1.310915828E0
1.917693949E1,-3.124573231E-1,-1.350011230E-1,-1.182405114E0
1.919360543E1,1.490510106E-1,7.559451740E-3,-8.143591285E-1
1.921027137E1,2.952004075E-1,3.023780696E-2,-4.783071280E-1
1.922693731E1,2.118937224E-1,-2.290742937E-3,-3.875173330E-1
1.924360324E1,1.786779426E-2,-8.536835015E-2,-5.561160445E-1
1.926026918E1,-1.906661689E-1,-2.236528695E-1,-8.187878728E-1
1.927693512E1,-2.158643454E-1,-4.201986194E-1,-9.773072600E-1
1.929360106E1,9.537126124E-2,-6.162098646E-1,-9.454659820E-1
1.931026699E1,4.237874448E-1,-8.820123672E-1,-6.980656981E-1
1.932693293E1,4.957931340E-1,-1.070387840E0,-5.049561262E-1
1.934359887E1,3.235292733E-1,-1.149571180E0,-5.205331445E-1
1.936026481E1,1.306487024E-1,-1.159955859E0,-6.717221737E-1
1.937693074E1,1.015562657E-2,-1.023198485E0,-8.677334189E-1
1.939359668E1,-1.534797717E-2,-7.884737253E-1,-9.879210591E-1
1.941026262E1,4.993819445E-2,-5.678751469E-1,-9.767727852E-1
1.942692856E1,7.055488229E-2,-3.456731141E-1,-8.971312642E-1
1.944359449E1,-4.703658819E-2,-2.348775119E-1,-8.181006312E-1
1.946026043E1,-3.467421234E-1,-3.636936247E-1,-8.058069944E-1
1.947692637E1,-7.699186802E-1,-5.006800294E-1,-8.759037256E-1
1.949359231E1,-1.186910272E0,-4.722748399E-1,-1.016249895E0
1.951025824E1,-1.244942427E0,-2.137263119E-1,-1.241429925E0
1.952692418E1,-9.456186891E-1,1.977674663E-2,-1.330310822E0
1.954359012E1,-5.790234804E-1,1.094211563E-1,-1.064584613E0
1.956025606E1,-1.770744324E-1,3.375028074E-2,-5.593994260E-1
1.957692199E1,1.825722158E-1,-2.238819450E-1,-1.550069358E-2
1.959358793E1,4.531853199E-1,-6.626355648E-1,8.208495378E-2
1.961025387E1,5.227475166E-1,-9.198096395E-1,-2.996291816E-1
1.962691981E1,3.714821339E-1,-9.050725102E-1,-7.189114690E-1
1.964358574E1,2.225838602E-1,-6.872992516E-1,-8.503237963E-1
1.966025168E1,1.283579618E-1,-4.729620516E-1,-8.003092408E-1
1.967691762E1,4.925097153E-2,-3.891208768E-1,-8.339067698E-1
1.969358356E1,-7.803797722E-2,-4.091266990E-1,-1.007850528E0
1.971024949E1,-2.545015514E-1,-3.689623177E-1,-1.243873358E0
1.972691543E1,-4.737256467E-1,-2.376264036E-1,-1.420107841E0
1.974358137E1,-5.560396910E-1,-1.759290546E-1,-1.530598044E0
1.976024731E1,-3.793470263E-1,-7.712167688E-3,-1.603214622E0
1.977691324E1,-1.600465775E-1,2.618319094E-1,-1.464471936E0
1.979357918E1,-1.043815166E-1,2.740492225E-1,-1.123991251E0
1.981024512E1,-1.228601784E-1,3.095557392E-1,-7.665589452E-1
1.982691106E1,-1.766162813E-1,6.852375865E-1,-5.677987933E-1
1.984357699E1,-1.883754283E-1,1.233794093E0,-4.801397026E-1
1.986024293E1,-3.792706728E-1,1.181259751E0,-7.112756968E-1
1.987690887E1,-5.301542878E-1,1.565417409E0,-9.572250843E-1
1.989357481E1,-6.292670965E-1,2.087935925E0,-1.160795808E0
1.991024074E1,-6.611084342E-1,1.680565357E0,-1.307785153E0
1.992690668E1,-3.984365463E-1,1.272965789E0,-1.669951558E0
1.994357262E1,3.407861888E-1,1.999054998E-1,-2.260810614E0
1.996023856E1,1.313511968E0,-3.804160357E-1,-2.769966364E0
1.997690449E1,2.030743599E0,-1.103679895E0,-2.683987141E0
1.999357043E1,1.623144031E0,-9.349285364E-1,-1.070464134E0
2.001023637E1,7.930551767E-1,-1.692095399E-1,1.590615511E0
2.002690231E1,3.747655451E-1,1.075351119E0,2.131154537E0
2.004356824E1,-1.565341055E-1,1.200578332E0,1.345429659E0
2.006023418E1,-4.580722153E-1,1.497534990E0,7.556397319E-1
2.007690012E1,-5.190060139E-1,1.264871836E0,5.347357392E-1
2.009356606E1,-2.916879356E-1,6.158280373E-1,4.730384052E-1
2.011023199E1,2.286161482E-1,-1.748600453E-1,5.170207024E-1
2.012689793E1,7.731257081E-1,-3.844630122E-1,7.462477088E-1
2.014356387E1,9.511927962E-1,-2.725220621E-1,9.647082090E-1
2.016022981E1,7.157807946E-1,2.055560052E-1,8.497892618E-1
2.017689574E1,1.167515293E-1,9.172134399E-1,5.070941448E-1
2.019356168E1,-5.978075266E-1,9.792925715E-1,1.558468789E-1
2.021022762E1,-8.682679534E-1,5.845212340E-1,3.947713599E-2
2.022689356E1,-5.749000907E-1,1.518762559E-1,2.410625070E-1
2.024355949E1,1.308014244E-1,-6.085740402E-2,5.590940118E-1
2.026022543E1,8.746056557E-1,3.272708058E-1,7.232639194E-1
2.027689137E1,1.043815136E0,4.303542376E-1,6.441569328E-1
2.029355731E1,6.664534807E-1,1.207985133E-1,3.572795391E-1
2.031022324E1,3.223838806E-1,8.452841640E-2,1.832594275E-1
2.032688918E1,4.795288667E-2,4.199695215E-2,8.002328873E-2
2.034355512E1,-1.918879002E-1,-4.780016840E-2,-3.336848691E-2
2.036022106E1,-2.374736816E-1,1.378263682E-1,-5.131264031E-2
2.037688699E1,-7.490729541E-2,5.041925311E-1,9.613484144E-2
2.039355293E1,-6.520981342E-2,4.336376488E-1,3.261254430E-1
2.041021887E1,-4.344775677E-1,4.250091612E-1,4.858665764E-1
2.042688481E1,-9.770018458E-1,7.270817757E-1,5.007563829E-1
2.044355074E1,-1.321071386E0,8.105412126E-1,4.205040336E-1
2.046021668E1,-1.193629742E0,6.095666885E-1,3.777435124E-1
2.047688262E1,-6.916516423E-1,9.613484144E-2,3.523926139E-1
2.049354856E1,-7.948877662E-2,-3.511708975E-1,1.666133702E-1
2.051021449E1,3.555996716E-1,-5.180133581E-1,-5.535962060E-2
2.052688043E1,3.805687428E-1,-3.537670672E-1,-4.077522457E-2
2.054354637E1,5.398517475E-2,3.604102135E-2,1.262962967E-1
2.056021231E1,-3.427715003E-1,4.308123887E-1,1.939495653E-1
2.057687824E1,-6.220130324E-1,4.157698452E-1,1.552360058E-1
2.059354418E1,-6.761509776E-1,4.390590638E-2,9.674570709E-2
2.061021012E1,-4.767799675E-1,-2.352592945E-1,5.826122686E-2
2.062687606E1,-8.231402934E-2,-2.688568532E-1,-2.657261863E-2
2.064354199E1,2.467130125E-1,1.038470119E-2,-1.818849891E-1
2.066020793E1,2.168570012E-1,1.634826809E-1,-1.815795600E-1
2.067687387E1,-3.199404106E-2,2.375500351E-1,-5.039634556E-2
2.069353981E1,-2.074649483E-1,2.971093655E-1,5.887209252E-2
2.071020574E1,-1.430187225E-1,1.581376195E-1,1.895971596E-1
2.072687168E1,1.580612659E-1,-1.153007243E-2,2.249509543E-1
2.074353762E1,5.653553605E-1,-1.818086356E-1,2.357937992E-1
2.076020356E1,6.287325621E-1,-1.857028902E-1,2.997818887E-1
2.077686949E1,2.661079764E-1,-1.310304999E-1,2.400698513E-1
2.079353543E1,-1.353829056E-1,-5.306887627E-2,1.542433500E-1
2.081020137E1,-4.253146052E-1,-2.451094985E-2,1.795178801E-1
2.082686731E1,-6.286562085E-1,-6.612611562E-2,1.376736462E-1
2.084353324E1,-7.844267488E-1,-9.483675659E-2,-0.000000000E0
2.086019918E1,-8.732311726E-1,-8.590286225E-2,-5.879573524E-3
2.087686512E1,-8.206968307E-1,-2.273944169E-1,5.833758786E-2
2.089353106E1,-1.426369250E-1,2.115119249E-1,-8.269581944E-2
2.091019699E1,1.060079455E0,2.795470059E-1,9.239329956E-3
2.092686293E1,1.926667571E0,-3.523926139E-1,2.474765927E-1
2.094352887E1,1.531743407E0,-4.656316638E-1,1.145371497E-1
2.096019481E1,7.476221323E-1,-1.392771751E-1,-1.492800862E-1
2.097686074E1,5.665007234E-1,1.291215420E-1,-1.234710440E-1
2.099352668E1,7.299070358E-1,-9.850194678E-3,-3.331503868E-1
2.101019262E1,6.980656981E-1,-3.000873141E-2,-3.607920110E-1
2.102685856E1,5.603920817E-1,-1.496618707E-2,-3.661370873E-1
2.104352449E1,3.257436454E-1,1.114828233E-2,-1.749363989E-1
2.106019043E1,2.192240953E-1,-6.032289471E-3,-2.787070535E-2
2.107685637E1,9.361502528E-2,-1.288924664E-1,-8.636100590E-2
2.109352231E1,2.138026804E-2,-8.429934084E-2,-1.249982044E-1
2.111018824E1,5.650499370E-3,-1.020907760E-1,-1.494327933E-1
2.112685418E1,1.183550525E-2,-1.814268380E-1,-3.661370873E-1
2.114352012E1,-8.399390616E-3,-1.578321904E-1,-6.636282206E-1
2.116018606E1,-1.273653060E-1,1.101847365E-1,-7.666352987E-1
2.117685199E1,-2.638172209E-1,4.291325063E-2,-8.171079755E-1
2.119351793E1,-5.671116114E-1,-4.620428383E-1,-8.642973304E-1
2.121018387E1,-7.714458704E-1,-8.098539710E-1,-9.259182811E-1
2.122684981E1,-8.307760954E-1,-1.142088056E0,-1.085124969E0
2.124351574E1,-8.732311726E-1,-1.356119752E0,-1.277012825E0
2.126018168E1,-9.093486071E-1,-1.528001904E0,-1.349552989E0
2.127684762E1,-8.985057473E-1,-1.553810954E0,-1.235473990E0
2.129351356E1,-9.715040922E-1,-1.522045970E0,-8.988875151E-1
2.131017949E1,-1.061912060E0,-1.519831538E0,-5.601630211E-1
2.132684543E1,-1.124525666E0,-1.642309904E0,-5.901717544E-1
2.134351137E1,-1.211115837E0,-1.221195102E0,-8.333722949E-1
2.136017731E1,-1.128267288E0,-6.673697382E-2,-6.980656981E-1
2.137684324E1,-9.457713962E-1,3.086394370E-1,-3.040579557E-1
2.139350874E1,-7.097485065E-1,-5.913934708E-1,-1.363755614E-1
2.141017437E1,-4.512763619E-1,-1.749516726E0,-1.280525327E-1
2.142684031E1,-3.268126547E-1,-1.538157463E0,-9.086613543E-3
2.144350624E1,-2.208276242E-1,-1.521053314E-1,7.292198390E-2
2.146017218E1,-6.895136088E-2,7.923679948E-1,-1.729510874E-1
2.147683812E1,-4.810560029E-3,7.887791395E-1,-5.100721121E-1
2.149350406E1,2.313650399E-1,1.271362305E-1,-7.267763615E-1
2.151016999E1,5.692496300E-1,-2.755000293E-1,-6.071996093E-1
2.152683593E1,7.661771774E-1,3.076467812E-1,-3.305542171E-1
2.154350187E1,9.652426839E-1,1.049389362E0,-1.868482679E-1
2.156016781E1,1.060842991E0,1.015409946E0,-1.685986817E-1
2.157683374E1,9.991456866E-1,3.947713673E-1,-1.859319657E-1
2.159349968E1,8.216894865E-1,7.307469845E-2,-1.350774765E-1
2.161016562E1,5.677224398E-1,-7.116574794E-2,-1.231656075E-1
2.162683156E1,3.059668839E-1,-2.149480432E-1,-1.886045039E-1
2.164349749E1,1.115591824E-1,-5.477929711E-1,-4.362338185E-1
2.166016343E1,9.697478265E-2,-9.397391081E-1,-5.700132251E-1
2.167682937E1,3.140608668E-1,-6.601157784E-1,-4.302015305E-1
2.169349531E1,3.578140438E-1,2.916115820E-1,-1.522580534E-1
2.171016124E1,2.189950198E-1,5.880337358E-1,3.336848691E-2
2.172682718E1,8.659008145E-2,2.650389671E-1,-1.603520010E-3
2.174349312E1,-2.069304511E-2,-1.142317131E-1,-4.581485689E-2
2.176015906E1,-1.863137633E-2,-2.336557806E-1,-7.322741300E-2
2.177682499E1,5.345066893E-4,-1.847866029E-1,-4.612028971E-2
2.179349093E1,-3.130681813E-2,-2.670242786E-1,8.620829135E-2
2.181015687E1,-9.560033679E-2,-3.822486401E-1,1.918115467E-1
2.182682281E1,-2.383136153E-1,-2.901607752E-1,3.052033186E-1
2.184348874E1,-4.289034307E-1,-2.914588451E-1,3.988183439E-1
2.186015468E1,-4.891499579E-1,-3.646099269E-1,3.455203772E-1
2.187682062E1,-2.703076601E-1,-3.404043913E-1,2.825249732E-1
2.189348656E1,-5.673406646E-2,-1.481347084E-1,2.024253160E-1
2.191015249E1,7.406735420E-2,-9.796743840E-2,1.382845193E-1
