"Time (s)","Linear Acceleration x (m/s^2)","Linear Acceleration y (m/s^2)","Linear Acceleration z (m/s^2)"
4.444324400E-2,0.000000000E0,0.000000000E0,0.000000000E0
6.110918100E-2,-1.866483688E-2,-6.701922417E-2,-5.667915344E-1
7.777511900E-2,1.570105553E-2,-1.410484314E-3,-9.147272110E-1
9.444105600E-2,7.044363022E-2,-1.581470966E-1,-7.823648453E-1
1.111069940E-1,1.158185005E-1,-8.782625198E-2,-4.706106186E-1
1.277729310E-1,1.595258713E-1,-6.537437439E-4,-3.578319550E-1
1.444388690E-1,2.526519299E-1,2.826762199E-2,-3.558101654E-1
1.611048060E-1,5.153281689E-1,7.645201683E-2,4.088306427E-2
1.777707440E-1,7.301460505E-1,1.319837570E-2,4.347448349E-1
1.944366810E-1,6.630935073E-1,2.609539032E-2,7.629261017E-1
2.111026190E-1,5.175028443E-1,-9.553194046E-3,1.107563972E0
2.277685560E-1,5.008328557E-1,-1.652719975E-1,9.132471085E-1
2.444344940E-1,1.923000813E-1,3.410434723E-2,8.658494949E-1
2.611004310E-1,1.022068262E-1,8.524370193E-2,8.778514862E-1
2.777663690E-1,1.827049255E-2,2.783513069E-2,5.392885208E-1
2.944323060E-1,1.505964994E-2,1.144821644E-1,-5.088520050E-2
3.110982440E-1,-7.682582736E-2,2.078011036E-1,-6.154203415E-1
3.277641810E-1,-6.859496236E-2,3.754260540E-1,-1.281178474E0
3.444301190E-1,3.676566780E-1,3.315913677E-1,-9.904079437E-1
3.610960560E-1,3.857453465E-1,-1.876258850E-2,-8.311910629E-1
3.777619940E-1,2.461009026E-1,5.849361420E-2,-1.457548141E-1
3.944279310E-1,3.934090137E-1,4.424357414E-2,7.815170288E-2
4.110938690E-1,9.269951582E-1,-2.350783348E-2,-9.451484680E-2
4.277598060E-1,9.014232159E-1,-1.677036285E-2,-2.598543167E-1
4.444257440E-1,5.950936079E-1,-2.087092400E-2,-4.810218811E-1
4.610916810E-1,5.058526993E-1,-1.246802807E-1,-4.452495575E-1
4.777576190E-1,2.305442095E-1,-7.782483101E-2,-1.003355980E0
4.944235560E-1,-6.685250998E-1,1.836297512E-1,-9.725165367E-1
5.110894940E-1,-9.854035974E-1,-2.586945295E-1,1.114988327E-1
5.277554310E-1,1.663804054E-1,-1.558145285E-1,-5.410289764E-2
5.444213690E-1,5.041996241E-1,2.739435434E-1,-1.933946609E-1
5.610873060E-1,1.293760538E-1,5.464661121E-1,-2.350950241E-1
5.777532440E-1,-3.330645561E-1,6.870729923E-1,-3.627185822E-1
5.944191810E-1,-9.403867126E-1,4.183028936E-1,1.101880074E0
6.110851190E-1,-2.915899754E-1,-2.273972034E-1,1.371910095E0
6.277510560E-1,-1.782417297E-2,1.329083443E-1,9.289684296E-1
6.444169940E-1,2.474999428E-2,1.769523621E-1,1.159264565E0
6.610829310E-1,6.067085266E-2,3.478457928E-1,5.515537262E-1
6.777488690E-1,2.666211128E-2,8.897950649E-1,2.232456207E-1
6.944148060E-1,1.336157322E-1,1.316960096E0,6.056127548E-1
7.110807440E-1,-6.194257736E-2,-3.465274572E-1,5.587139130E-1
7.277466810E-1,-2.780565023E-1,7.550525665E-2,-1.048927307E-1
7.444126190E-1,-1.215274334E-1,-6.729781628E-2,-7.083406448E-1
7.610785560E-1,1.615605354E-1,-1.544083357E-1,-1.392827034E0
7.777444940E-1,4.598877430E-1,3.890188932E-1,8.569841385E-1
7.944104310E-1,6.366469860E-1,1.168523908E0,3.689863205E0
8.110763690E-1,1.584675312E-1,1.874832511E0,3.652024269E0
8.277423060E-1,8.325705528E-1,-3.453306556E-1,4.547657967E0
8.444082440E-1,1.504223824E0,-1.958872557E0,3.675383568E0
8.610741810E-1,7.537629604E-1,-8.539556265E-1,2.418767929E0
8.777401190E-1,6.236791611E-2,-4.141682982E-1,1.360900879E0
8.944060560E-1,-4.097335339E-1,-1.040491462E0,1.572819710E0
9.110719940E-1,-1.888663769E-1,-1.239727736E0,1.139367104E0
9.277379310E-1,8.439588547E-2,-1.214419127E0,-1.288557053E-1
9.444038690E-1,-3.504039049E-1,-2.313077450E-2,-3.398952484E-1
9.610698060E-1,4.263849258E-1,-3.670859933E-1,8.959836960E-1
9.777357440E-1,4.278643131E-1,-8.778774738E-1,9.898719788E-1
9.944016810E-1,1.333713531E-2,-7.073826790E-1,6.008367538E-1
1.011067619E0,-1.896574497E-1,-9.337226152E-1,3.243150711E-1
1.027733556E0,-5.640567541E-1,-1.377558112E0,-4.248971939E-1
1.044399494E0,-7.574633360E-1,-8.249158263E-1,-1.612200737E0
1.061065431E0,-2.138084173E-1,-9.641048312E-1,-2.129190445E0
1.077731369E0,-7.548143864E-1,-1.008597612E0,-2.100711346E0
1.094397306E0,-1.553031683E0,-2.935544252E-1,-2.334811211E0
1.111063244E0,-1.484969854E0,-9.239770770E-1,-9.752998352E-1
1.127729181E0,-1.510071754E0,-9.736025929E-1,5.785722733E-1
1.144395119E0,-9.206129313E-1,-8.227156401E-1,1.296558380E0
1.161061056E0,-1.239534497E0,-2.817410231E-1,-2.284518719E0
1.177726994E0,-1.904420853E0,-1.124606729E0,-2.978945732E0
1.194392931E0,-1.383634329E0,-6.728210449E-1,-2.235790253E0
1.211058869E0,-1.068599939E0,-1.379104137E0,-2.317743301E-1
1.227724806E0,5.381362438E-1,-7.325575352E-1,7.062616348E-1
1.244390744E0,6.510517597E-1,-8.273903131E-1,1.578179359E0
1.261056681E0,-5.107560158E-1,-6.397579908E-1,1.380454063E0
1.277722619E0,-8.775706291E-1,-8.524650931E-1,1.571166039E0
1.294388556E0,-8.260977268E-1,-8.123914003E-1,2.023653030E0
1.311054494E0,-5.742733479E-1,-7.079576254E-1,1.442237854E0
1.327720431E0,-2.231268883E-1,-7.137410641E-1,8.684549332E-1
1.344386369E0,1.173086166E-1,-4.634881020E-1,7.995338440E-1
1.361052306E0,5.146527290E-2,-3.893582821E-1,7.796363831E-1
1.377718244E0,-1.809096336E-2,-9.225463867E-2,7.622270584E-1
1.394384181E0,-1.092708111E-1,9.530961514E-2,1.427217484E0
1.411050119E0,-5.921635628E-1,-4.047352672E-1,1.995326042E0
1.427716056E0,-4.004516602E-1,5.986070633E-2,2.402347565E0
1.444381994E0,-4.061942101E-1,7.839373350E-1,1.714673042E0
1.461047931E0,1.015350819E-1,2.082847357E-1,9.979181290E-1
1.477713869E0,7.678246498E-2,4.631009102E-1,3.438129425E-1
1.494379806E0,3.122320175E-1,2.437372208E-1,3.735752106E-1
1.511045744E0,9.599757195E-2,1.686058044E-1,-2.727527618E-1
1.527711681E0,4.672670364E-2,4.054721594E-1,-1.668224335E-1
1.544377619E0,2.145931721E-1,3.955117464E-1,-6.737546921E-1
1.561043556E0,-2.396299839E-1,5.774252415E-1,-1.179197311E0
1.577709494E0,-4.950468540E-1,8.560734987E-1,-1.566504002E0
1.594375431E0,-7.239334583E-1,7.905515432E-1,-1.203589916E0
1.611041369E0,-4.088034630E-1,7.929316759E-1,-9.584197998E-1
1.627707306E0,-8.257997036E-1,1.075960517E0,-1.047998905E0
1.644373244E0,-8.735473156E-1,1.441443920E0,-1.358746529E0
1.661039181E0,-6.661813259E-1,1.339139819E0,-7.698936462E-1
1.677705119E0,-6.474328041E-1,1.258682251E0,-5.713272095E-1
1.694371056E0,-4.163701534E-1,1.272650957E0,-8.096938133E-1
1.711036994E0,2.917194366E-1,1.275578260E0,-1.640460491E0
1.727702931E0,4.021077156E-1,1.399546504E0,-1.794579029E0
1.744368869E0,8.475685120E-2,1.420132875E0,-1.816297054E0
1.761034806E0,-1.865248680E-1,1.545303226E0,-1.926112652E0
1.777700744E0,-4.072475433E-2,1.606258154E0,-1.489404202E0
1.794366681E0,1.785025597E-1,1.335339069E0,-4.438304901E-1
1.811032619E0,4.593119621E-1,1.056325316E0,3.854770660E-1
1.827698556E0,7.511410713E-1,1.109206557E0,5.373744965E-1
1.844364494E0,8.041095734E-1,1.119850636E0,4.308500290E-1
1.861030431E0,1.251859665E0,1.403008699E0,2.907218933E-1
1.877696369E0,1.394744396E0,1.537823796E0,1.955785751E-1
1.894362306E0,9.934778214E-1,1.272047043E0,3.593454361E-1
1.911028244E0,6.671314240E-1,9.832891226E-1,6.083269119E-1
1.927694181E0,6.209797859E-1,8.681063056E-1,7.192020416E-1
1.944360119E0,6.060481071E-1,8.460901380E-1,2.605285645E-1
1.961026056E0,5.541238785E-1,1.091886759E0,-2.897586823E-1
1.977691994E0,6.342606544E-1,1.645657063E0,-2.696266174E-1
1.994357931E0,7.896006107E-1,1.828064680E0,4.401702881E-1
2.011023869E0,7.499513626E-1,1.518679142E0,8.557767868E-1
2.027689806E0,3.888254166E-1,1.431309462E0,7.054777145E-1
2.044355744E0,1.680016518E-2,1.686542511E0,3.555631638E-1
2.061021681E0,-3.704726696E-1,1.863983870E0,6.226348877E-2
2.077687619E0,-9.111413956E-1,2.052808523E0,4.725799561E-1
2.094353556E0,-1.004403591E0,2.073760509E0,1.748145103E0
2.111019494E0,-5.064427853E-1,1.656154156E0,2.679207802E0
2.127685431E0,-2.840600014E-1,1.258273244E0,2.500686646E0
2.144351369E0,-6.246147156E-1,1.449480057E0,1.321974754E0
2.161017306E0,-6.880798340E-1,1.590883851E0,3.331584930E-1
2.177683244E0,-4.332549572E-1,1.654285192E0,-1.527376175E-1
2.194349181E0,-2.561123371E-1,1.603125334E0,-4.157171249E-1
2.211015119E0,-4.997372627E-1,1.252278805E0,-1.041374207E-1
2.227681056E0,-1.803233624E-1,7.588684559E-1,1.829376221E-1
2.244346994E0,-2.456772327E-1,6.115283966E-1,-1.978855133E-1
2.261012931E0,-1.448955536E-1,5.953083038E-1,-6.973485947E-1
2.277678869E0,-3.459382057E-1,6.191753149E-1,-1.408112049E0
2.294344806E0,-6.238787174E-1,4.106527567E-1,-1.982092857E0
2.311010744E0,-7.435998917E-1,2.166620493E-1,-1.850556850E0
2.327676681E0,-3.216657639E-1,-3.484535217E-1,-9.670820236E-1
2.344342619E0,6.983518600E-2,-6.888805628E-1,-5.380201340E-1
2.361008556E0,5.433773994E-1,-8.750041127E-1,-8.071351051E-1
2.377674494E0,8.074946404E-1,-1.147378683E0,-1.218555927E0
2.394340431E0,8.949465752E-1,-1.371889234E0,-1.647311211E0
2.411006369E0,5.852799416E-1,-1.297902465E0,-2.090411663E0
2.427672306E0,2.850685120E-1,-1.505110025E0,-2.033583641E0
2.444338244E0,5.426363945E-1,-1.999547005E0,-7.087545395E-1
2.461004181E0,1.009262085E0,-2.110820293E0,9.263906479E-1
2.477670119E0,1.753535271E0,-1.987152815E0,2.114008904E0
2.494336056E0,2.695865631E0,-1.880272865E0,3.294153214E0
2.511001994E0,3.821895599E0,-2.236250401E0,4.014548302E0
2.527667931E0,4.432445049E0,-2.786612511E0,3.504396439E0
2.544333869E0,3.849891663E0,-2.723450422E0,1.954801559E0
2.560999806E0,2.756670952E0,-2.436738014E0,3.636837006E-1
2.577665744E0,2.072305202E0,-2.173122883E0,-7.506699562E-1
2.594331681E0,1.228320122E0,-1.549248219E0,-1.195780754E0
2.610997619E0,4.432435036E-1,-1.277519464E0,-8.468794823E-1
2.627663556E0,-2.207074165E-1,-1.373023748E0,-6.575965881E-2
2.644329494E0,-7.843744755E-1,-1.312684774E0,-9.545230865E-2
2.660995431E0,-1.538215399E0,-8.139250278E-1,-1.131295204E0
2.677661369E0,-1.686423063E0,1.817229576E-2,-1.244677544E0
2.694327306E0,-1.614697218E0,7.058610320E-1,-3.228263378E0
2.710993244E0,-1.924648046E0,1.351924896E0,-3.751852512E0
2.727659181E0,-1.672685146E0,1.349914432E0,-3.849855900E0
2.744325119E0,-1.292581081E0,1.330607176E0,-3.426779270E0
2.760991056E0,-1.258166075E0,1.764143467E0,-3.295721054E0
2.777656994E0,-1.361007214E0,2.203687668E0,-3.541141987E0
2.794322931E0,-1.363389730E0,2.532161713E0,-3.674573421E0
2.810988869E0,-1.468893766E0,3.059039116E0,-3.921004295E0
2.827654806E0,-2.060732365E0,4.037434578E0,-4.361093998E0
2.844320744E0,-2.811567783E0,4.926283360E0,-4.336784840E0
2.860986681E0,-3.326976299E0,5.842042923E0,-2.513562679E0
2.877652619E0,-4.129457474E0,6.813051224E0,1.272613525E0
2.894318556E0,-5.467665672E0,7.770999432E0,5.046538353E0
2.910984494E0,-6.667288780E0,9.148602486E0,7.986510277E0
2.927650431E0,-6.137612343E0,1.104536629E1,1.050955963E1
2.944316369E0,-4.662519455E0,1.341654015E1,1.422316360E1
2.960982306E0,-3.301897526E0,1.448726177E1,1.861954117E1
2.977648244E0,-1.886832952E0,1.314989567E1,2.273760986E1
2.994314181E0,-1.054077148E-1,9.693565369E0,2.418119431E1
3.010980119E0,1.615386963E0,6.419095993E0,2.259978867E1
3.027646056E0,3.433437824E0,3.666454792E0,2.206611443E1
3.044311994E0,6.734766006E0,-5.718646049E-1,2.238031387E1
3.060977931E0,1.087104416E1,-5.826022148E0,1.999161339E1
3.077643869E0,1.374481773E1,-1.065977478E1,1.364361668E1
3.094309806E0,1.224389839E1,-1.243254185E1,5.582498550E0
3.110975744E0,7.917711735E0,-1.216682148E1,2.175092697E-2
3.127641681E0,2.671743393E0,-1.205625153E1,-3.561825514E0
3.144307619E0,-1.972632170E0,-1.227748108E1,-5.554967403E0
3.160973556E0,-3.868012905E0,-1.297721481E1,-6.096952915E0
3.177639494E0,-4.048823357E0,-1.448782730E1,-5.936058998E0
3.194305431E0,-4.021269321E0,-1.558063126E1,-6.017605305E0
3.210971369E0,-4.807207108E0,-1.620719337E1,-7.294454575E0
3.227637306E0,-5.580555916E0,-1.622418594E1,-9.125574112E0
3.244303244E0,-5.927295208E0,-1.587903976E1,-1.087482834E1
3.260969181E0,-6.022287846E0,-1.544360733E1,-1.181138706E1
3.277635119E0,-6.194891453E0,-1.454515266E1,-1.190573692E1
3.294301056E0,-6.121836185E0,-1.321620369E1,-1.105854607E1
3.310966994E0,-4.377651215E0,-1.259797859E1,-9.637735367E0
3.327632931E0,-2.031984329E0,-1.164979076E1,-7.931463242E0
3.344298869E0,1.850934505E0,-8.890317917E0,-5.173435211E0
3.360964806E0,6.553647995E0,-3.419367313E0,8.154897690E-1
3.377630744E0,1.202157021E1,3.139376163E0,1.390341949E1
3.394296681E0,1.786025620E1,5.351696491E0,2.870692062E1
3.410962619E0,1.615420532E1,6.128171444E0,2.832889938E1
3.427628556E0,7.266410828E0,1.049891853E1,1.915062141E1
3.444294494E0,-1.160906315E0,1.281954002E1,1.173878002E1
3.460960431E0,-7.391287327E0,1.349919415E1,9.174238205E0
3.477626369E0,-1.129031849E1,1.270720482E1,7.448168278E0
3.494292306E0,-1.325917339E1,1.276179409E1,4.472208977E0
3.510958244E0,-1.239558983E1,1.314926147E1,9.278020859E-1
3.527624181E0,-1.072519875E1,1.355566788E1,-3.647110939E0
3.544290119E0,-9.914439201E0,1.415081310E1,-6.936439037E0
3.560956056E0,-1.007259274E1,1.445433331E1,-8.040622711E0
3.577621994E0,-1.047103596E1,1.337649345E1,-7.803551197E0
3.594287931E0,-1.061479759E1,1.166114235E1,-3.886294842E0
3.610953869E0,-9.397138596E0,1.041189480E1,3.841363430E0
3.627619806E0,-5.785185814E0,9.538276672E0,1.332337189E1
3.644285744E0,-1.229990005E0,9.412696838E0,2.248041916E1
3.660951681E0,4.315942764E0,1.001232815E1,2.906970787E1
3.677617619E0,1.178910732E1,7.719177246E0,3.399408722E1
3.694283556E0,1.774848938E1,5.763883591E-1,3.472874069E1
3.710949494E0,1.980617142E1,-7.424307823E0,2.936019897E1
3.727615431E0,1.799161911E1,-1.333518028E1,2.120520973E1
3.744281369E0,1.065421295E1,-1.641886520E1,1.218183899E1
3.760947306E0,2.673766136E0,-1.743191528E1,3.644783974E0
3.777613244E0,-3.081335783E0,-1.734606934E1,-1.992894888E0
3.794279181E0,-4.803685188E0,-1.804682159E1,-3.968891382E0
3.810945119E0,-5.128696918E0,-1.961983871E1,-6.005372524E0
3.827611056E0,-6.571993828E0,-2.084422302E1,-8.937965393E0
3.844276994E0,-8.166326523E0,-2.142912292E1,-1.057839394E1
3.860942931E0,-9.005887985E0,-2.124331856E1,-1.067942619E1
3.877608869E0,-9.140914917E0,-2.038742065E1,-1.041484833E1
3.894274806E0,-8.338208199E0,-1.898732758E1,-9.941198349E0
3.910940744E0,-6.936920166E0,-1.727400589E1,-8.631731987E0
3.927606681E0,-4.176010132E0,-1.565319633E1,-7.184431076E0
3.944272619E0,4.341363907E-2,-1.388540745E1,-4.445262909E0
3.960938556E0,6.062674046E0,-1.041385460E1,-2.595152855E-1
3.977604494E0,1.235943031E1,-5.158658028E0,5.600811005E0
3.994270431E0,1.706872940E1,1.926544666E0,1.449396706E1
4.010936369E0,2.166317749E1,5.556704044E0,2.412000656E1
4.027602306E0,2.339179802E1,4.181843758E0,2.724468613E1
4.044268244E0,1.731041718E1,5.708927155E0,2.051124382E1
4.060934181E0,8.855003357E0,6.719076633E0,1.152851963E1
4.077600119E0,2.845654488E-1,7.493714809E0,5.591499329E0
4.094266056E0,-6.307390213E0,8.176054955E0,1.432410240E0
4.110931994E0,-9.348670959E0,8.160530090E0,-1.392477512E0
4.127597931E0,-9.756518364E0,7.356213093E0,-3.262923717E0
4.144263869E0,-9.427068710E0,7.183168411E0,-6.254838943E0
4.160929806E0,-9.229437828E0,7.965193748E0,-1.018625927E1
4.177595744E0,-9.658476830E0,8.991585732E0,-1.264589691E1
4.194261681E0,-1.065928650E1,9.656521797E0,-1.308891010E1
4.210927619E0,-1.150204659E1,9.722163200E0,-1.193427277E1
4.227593556E0,-1.170757484E1,9.521305084E0,-8.973785400E0
4.244259494E0,-1.118061924E1,8.918962479E0,-5.674241066E0
4.260925431E0,-9.251640320E0,8.521553993E0,-1.911640167E0
4.277591369E0,-6.053149700E0,8.458416939E0,1.224745750E0
4.294257306E0,-3.118529558E0,7.644000053E0,5.097329617E0
4.310923244E0,-9.523053169E-1,7.138073921E0,1.190740967E1
4.327589181E0,9.761700630E-1,5.770049095E0,1.962698174E1
4.344255119E0,2.236253738E0,4.080592155E0,2.446159554E1
4.360921056E0,4.969844818E0,2.195182800E0,2.830734253E1
4.377586994E0,1.239384270E1,-2.529878378E0,3.189447403E1
4.394252931E0,1.979869843E1,-9.492107391E0,2.892433929E1
4.410918869E0,1.689178848E1,-1.387648296E1,1.747703552E1
4.427584806E0,8.012172699E0,-1.486653709E1,4.747530937E0
4.444250744E0,6.725835800E-2,-1.388302898E1,-2.059092999E0
4.460916681E0,-3.937751293E0,-1.413609219E1,-2.404815912E0
4.477582619E0,-5.751573563E0,-1.602434349E1,-1.974002123E0
4.494248556E0,-5.900961876E0,-1.780643654E1,-3.923534393E0
4.510914494E0,-5.339138985E0,-1.873267365E1,-7.035534859E0
4.527580431E0,-4.665932178E0,-1.893277359E1,-1.034510040E1
4.544246369E0,-4.711203575E0,-1.827377510E1,-1.240044117E1
4.560912306E0,-5.943822384E0,-1.741055298E1,-1.292453957E1
4.577578244E0,-7.244142532E0,-1.644174576E1,-1.173481941E1
4.594244181E0,-7.384670258E0,-1.544085884E1,-1.018530655E1
4.610910119E0,-6.138346672E0,-1.452015686E1,-7.802762985E0
4.627576056E0,-3.486130714E0,-1.336443710E1,-6.609498024E0
4.644241994E0,-5.156803131E-1,-1.286507416E1,-6.103170872E0
4.660907931E0,2.267192841E0,-1.186827755E1,-3.611758232E0
4.677573869E0,6.621247292E0,-9.215653419E0,1.505208969E0
4.694239806E0,1.207368946E1,-4.660276413E0,8.515943527E0
4.710905744E0,1.607834625E1,2.082270861E0,1.869384766E1
4.727571681E0,2.015623856E1,3.402132273E0,3.089352036E1
4.744237619E0,2.045178986E1,3.273572683E0,3.344752121E1
4.760903556E0,1.442426872E1,6.488495350E0,2.373796082E1
4.777569494E0,5.048570156E0,8.481139183E0,1.364714813E1
4.794235431E0,-3.730987787E0,1.002989006E1,6.398883343E0
4.810901369E0,-8.737736702E0,1.156658077E1,1.434484959E0
4.827567306E0,-1.080162621E1,1.277139568E1,-2.182112694E0
4.844233244E0,-1.181593895E1,1.467280197E1,-3.958061457E0
4.860899181E0,-1.269157982E1,1.655216026E1,-5.931738853E0
4.877565119E0,-1.363005543E1,1.800486946E1,-7.861320972E0
4.894231056E0,-1.262094116E1,1.767392921E1,-7.429424286E0
4.910896994E0,-1.120999527E1,1.617576408E1,-4.078800201E0
4.927562931E0,-1.003702354E1,1.321777630E1,2.319395065E0
4.944228869E0,-7.877128601E0,9.407692909E0,1.000129604E1
4.960894806E0,-3.417739391E0,6.241505623E0,1.520748901E1
4.977560744E0,1.859781265E0,5.382102013E0,1.696299934E1
4.994226681E0,4.461315632E0,5.113879681E0,1.996886063E1
5.010892619E0,3.371014595E0,2.004692554E0,2.645709991E1
5.027558556E0,5.750138760E0,-4.071972847E0,3.085044479E1
5.044224494E0,1.502938843E1,-1.134343910E1,2.961161041E1
5.060890431E0,1.960882187E1,-1.524471951E1,2.007000542E1
5.077556369E0,1.282830429E1,-1.501114273E1,9.005178452E0
5.094222306E0,3.721865177E0,-1.413390732E1,4.496574402E-1
5.110888244E0,-4.682422161E0,-1.333174324E1,-1.782839775E0
5.127554181E0,-7.940970421E0,-1.446642399E1,-1.402537346E0
5.144220119E0,-8.164012909E0,-1.685319519E1,-3.304482937E0
5.160886056E0,-8.779877663E0,-1.762386703E1,-7.357468605E0
5.177551994E0,-8.409646988E0,-1.801660156E1,-1.118963814E1
5.194217931E0,-8.154211044E0,-1.774493790E1,-1.384401226E1
5.210883869E0,-9.130710602E0,-1.695381355E1,-1.399505901E1
5.227549806E0,-8.757894516E0,-1.629998970E1,-1.111394119E1
5.244215744E0,-7.074872494E0,-1.567150497E1,-7.086689949E0
5.260881681E0,-5.298920155E0,-1.583877468E1,-4.288354874E0
5.277547619E0,-3.669377327E0,-1.616930771E1,-3.283268452E0
5.294213556E0,-8.603272438E-1,-1.492378807E1,-5.082998276E0
5.310879494E0,3.865875721E0,-1.245558834E1,-4.918648243E0
5.327545431E0,8.717770576E0,-9.055758476E0,2.719569206E-1
5.344211369E0,1.158904362E1,-3.881649017E0,9.560287476E0
5.360877306E0,1.276138878E1,1.684787989E0,2.341130257E1
5.377543244E0,1.519599915E1,2.427369356E0,3.685906219E1
5.394209181E0,1.528315067E1,2.164796829E0,3.487089920E1
5.410875119E0,9.192683220E0,4.715255260E0,2.267148972E1
5.427541056E0,1.660230637E0,7.035664082E0,1.113150692E1
5.444206994E0,-4.889198780E0,9.501058578E0,2.820785522E0
5.460872931E0,-8.334991455E0,1.020664120E1,-2.131199360E0
5.477538869E0,-9.466513634E0,1.067168999E1,-5.163265228E0
5.494204806E0,-9.981110573E0,1.129964828E1,-7.246592999E0
5.510870744E0,-1.094260979E1,1.291018486E1,-8.664395332E0
5.527536681E0,-1.285942745E1,1.533059788E1,-1.028552246E1
5.544202619E0,-1.395955944E1,1.666007423E1,-1.092486095E1
5.560868556E0,-1.496436691E1,1.655411911E1,-6.495028019E0
5.577534494E0,-1.435440445E1,1.440649223E1,2.556869507E0
5.594200431E0,-1.192154408E1,1.096361351E1,9.444675446E0
5.610866369E0,-6.872936726E0,8.875627518E0,1.146708965E1
5.627532306E0,-1.606247663E0,9.351260185E0,1.539830971E1
5.644198244E0,3.567385674E-1,7.126758575E0,2.564797401E1
5.660864181E0,-3.642919064E-1,1.801764488E0,3.739837265E1
5.677530119E0,2.248149872E0,-4.585228920E0,4.203882599E1
5.694196056E0,8.378477097E0,-1.190912628E1,3.733908844E1
5.710861994E0,1.133753014E1,-1.521406937E1,2.474497604E1
5.727527931E0,8.859348297E0,-1.592586136E1,1.089219666E1
5.744193869E0,3.399176598E0,-1.516159630E1,1.427202225E-1
5.760859806E0,-1.654691219E0,-1.542068672E1,-4.626539230E0
5.777525744E0,-5.627488613E0,-1.768265533E1,-5.110694885E0
5.794191681E0,-8.751682281E0,-2.066105652E1,-5.698775768E0
5.810857619E0,-9.951855659E0,-2.333757401E1,-7.945729256E0
5.827523556E0,-1.043387413E1,-2.350241852E1,-1.219825745E1
5.844189494E0,-9.681812286E0,-2.193486023E1,-1.615263176E1
5.860855431E0,-8.357235909E0,-2.003356361E1,-1.674857903E1
5.877521369E0,-7.361683846E0,-1.937244797E1,-1.126652718E1
5.894187306E0,-5.795896530E0,-2.035482597E1,-4.806716442E0
5.910853244E0,-4.403141499E0,-2.075338364E1,-7.899780273E-1
5.927519181E0,-4.456343651E-1,-1.917658234E1,5.506272316E-1
5.944185119E0,6.218612671E0,-1.491729450E1,1.409724712E0
5.960851056E0,1.409914684E1,-9.609335899E0,6.101049423E0
5.977516994E0,1.536387825E1,-1.109330177E0,1.600773239E1
5.994182931E0,1.966193581E1,6.061731577E-1,3.023762131E1
6.010848869E0,2.136175728E1,-7.012339830E-1,3.384933853E1
6.027514806E0,1.690162277E1,1.038274765E0,2.693941498E1
6.044180744E0,8.460487366E0,2.606224060E0,1.652630997E1
6.060846681E0,-3.514218330E-1,5.255938530E0,5.340486526E0
6.077512619E0,-5.634198666E0,7.992742062E0,-2.609057426E0
6.094178556E0,-6.411396503E0,8.430311203E0,-5.652613640E0
6.110844494E0,-6.310577869E0,8.260554314E0,-6.202016830E0
6.127510431E0,-6.104175568E0,8.526632309E0,-6.877734184E0
6.144176369E0,-6.685483456E0,1.012382698E1,-7.916414738E0
6.160842306E0,-8.560739517E0,1.261854839E1,-8.575627327E0
6.177508244E0,-1.048476028E1,1.458210564E1,-7.249238491E0
6.194174181E0,-1.200539875E1,1.495890903E1,-4.165408134E0
6.210840119E0,-1.252500820E1,1.336442184E1,8.544011116E-1
6.227506056E0,-1.225450611E1,1.064081669E1,4.863601208E0
6.244171994E0,-1.120107269E1,8.284137726E0,6.458862782E0
6.260837931E0,-9.609406471E0,7.497794151E0,8.197548866E0
6.277503869E0,-6.652912140E0,7.202271461E0,1.477125168E1
6.294169806E0,1.158595085E0,2.230590105E0,2.704869843E1
6.310835744E0,1.065445232E1,-6.277476788E0,3.594018936E1
6.327501681E0,1.417366314E1,-9.927781105E0,3.577407074E1
6.344167619E0,1.245847797E1,-1.154657173E1,2.613294220E1
6.360833556E0,5.511226654E0,-1.090695381E1,1.377391243E1
6.377499494E0,5.012035370E-2,-1.049885178E1,6.282947063E0
6.394165431E0,-2.438179255E0,-1.181945705E1,1.790743351E0
6.410831369E0,-3.173667192E0,-1.371020508E1,-2.513635159E0
6.427497306E0,-3.033213854E0,-1.554205132E1,-6.418615818E0
6.444163244E0,-2.245627403E0,-1.707043076E1,-9.063303947E0
6.460829181E0,-9.543099403E-1,-1.859527969E1,-1.272215557E1
6.477495119E0,-1.006872177E0,-1.895709229E1,-1.631282234E1
6.494161056E0,-1.609836102E0,-1.872232628E1,-1.822600555E1
6.510826994E0,-2.226887703E0,-1.914952469E1,-1.654852867E1
6.527492931E0,-3.626426935E0,-2.051334381E1,-1.324313831E1
6.544158869E0,-5.507945061E0,-2.112958336E1,-1.066890144E1
6.560824806E0,-5.051084518E0,-2.125775528E1,-9.118507385E0
6.577490744E0,-2.028437376E0,-2.080266571E1,-9.335408211E0
6.594156681E0,4.426388741E-1,-1.881808472E1,-7.434741497E0
6.610822619E0,4.847835064E0,-1.658904266E1,4.683310509E0
6.627488556E0,1.091377640E1,-1.545119667E1,2.028783417E1
6.644154494E0,1.251728058E1,-1.251318550E1,2.389223480E1
6.660820431E0,8.251185417E0,-6.389482498E0,1.656406784E1
6.677486369E0,3.756155014E0,-6.436200738E-1,9.278979301E0
6.694152306E0,1.258778572E-1,4.944972992E0,5.070966721E0
6.710818244E0,-3.112682581E0,7.675956726E0,3.111947060E0
6.727484181E0,-5.508507729E0,9.170400620E0,6.263852119E0
6.744150119E0,-8.359559059E0,1.231665134E1,1.353433990E1
6.760816056E0,-1.116079617E1,1.800082779E1,1.504254341E1
6.777481994E0,-1.116152954E1,2.259043503E1,1.128712463E1
6.794147931E0,-8.745214462E0,2.438126373E1,1.088220596E1
6.810813869E0,-6.374536514E0,2.206013107E1,1.204828930E1
6.827479806E0,-6.227793694E0,1.608757973E1,1.793379021E1
6.844145744E0,-4.771856308E0,1.008810711E1,1.932837868E1
6.860811681E0,1.356267452E0,3.986531019E0,1.304907703E1
6.877477619E0,1.281549835E1,-5.142810822E0,9.823377609E0
6.894143556E0,1.675606918E1,-1.068822956E1,1.735896683E1
6.910809494E0,1.453847885E1,-1.585250854E1,2.876918221E1
6.927475431E0,1.206882668E1,-1.732567978E1,2.471361923E1
6.944141369E0,7.925672531E0,-1.424047947E1,1.020441341E1
6.960807306E0,4.304417610E0,-1.317002106E1,2.894418716E0
6.977473244E0,2.332830906E0,-1.634192848E1,1.221252441E0
6.994139181E0,1.357845783E0,-1.990756035E1,-4.205274582E0
7.010805119E0,1.684468269E0,-2.252332687E1,-7.298286438E0
7.027471056E0,3.251875877E0,-2.299002266E1,-2.237247467E0
7.044136994E0,8.808775902E0,-2.491244698E1,1.341923237E0
7.060802931E0,1.320833969E1,-2.490292168E1,-2.684729099E0
7.077468869E0,1.055004883E1,-2.187191391E1,-1.069595528E1
7.094134806E0,-3.294931173E0,-1.196421909E1,-2.009250069E1
7.110800744E0,-1.472838688E1,2.087574005E-1,-1.836467171E1
7.127466681E0,-1.606003952E1,3.332761765E0,-8.034919739E0
7.144132619E0,-1.252729893E1,3.757380486E0,-3.031276226E0
7.160798556E0,-4.987814903E0,7.264666557E-1,-6.620710850E0
7.177464494E0,6.606893539E-1,-3.384891987E0,-1.169307518E1
7.194130431E0,2.311724663E0,-6.921422005E0,-1.511370277E1
7.210796369E0,4.408485889E0,-1.122595215E1,-1.454896164E1
7.227462306E0,7.182552338E0,-1.470943260E1,-8.274251938E0
7.244128244E0,9.289874077E0,-1.804296112E1,-2.515613079E0
7.260794181E0,1.337475109E1,-1.977804375E1,-3.658747673E-1
7.277460119E0,1.717745209E1,-1.856940079E1,-5.338542938E0
7.294126056E0,1.748673439E1,-1.567148590E1,-1.717363358E1
7.310791994E0,1.635951614E1,-1.731366730E1,-2.562927818E1
7.327457931E0,1.260105133E1,-2.355106544E1,-1.191456318E1
7.344123869E0,2.096695185E0,-2.907874298E1,2.562107086E1
7.360789806E0,-4.717078209E0,-2.465255356E1,3.289732361E1
7.377455744E0,-3.473615646E0,-1.768801117E1,1.901369095E1
7.394121681E0,1.608111858E0,-8.710382462E0,3.267251968E0
7.410787619E0,9.101234436E0,-4.902465820E0,-1.849460602E-1
7.427453556E0,8.822652817E0,-6.929236412E0,8.083466530E0
7.444119494E0,4.045052528E-1,-6.950984001E0,1.660310745E1
7.460785431E0,-5.110108376E0,-3.514651060E0,1.532873249E1
7.477451369E0,-4.088494301E0,-1.345186234E0,6.462974548E0
7.494117306E0,-2.253453016E0,9.835258722E-1,-2.236595154E0
7.510783244E0,-5.050233841E0,2.469972610E0,-1.549879074E0
7.527449181E0,-8.604736328E0,-8.575345039E0,1.468822861E1
7.544115119E0,-1.559433937E1,-1.159741783E1,2.508123970E1
7.560781056E0,-1.591037178E1,-5.122800827E0,2.444811249E1
7.577446994E0,-7.607035637E0,1.408000708E0,1.942433929E1
7.594112931E0,2.373852730E-1,7.215862274E0,1.286543179E1
7.610778869E0,5.807630539E0,8.972850800E0,5.634159565E0
7.627444806E0,8.883943558E0,6.530730724E0,1.613754749E0
7.644110744E0,9.389554977E0,4.828360081E0,-9.420843124E-1
7.660776681E0,9.215936661E0,4.306575775E0,-2.870859146E0
7.677442619E0,8.058641434E0,4.742191792E0,-4.058039188E0
7.694108556E0,7.456197262E0,4.397705078E0,-5.811274052E0
7.710774494E0,7.444967747E0,2.337795258E0,-6.755101681E0
7.727440431E0,6.111257553E0,2.553606033E-1,-4.266163826E0
7.744106369E0,3.652830124E0,-9.383268356E-1,-1.907232285E0
7.760772306E0,-6.340637207E-1,1.039875031E0,-1.814871788E0
7.777438244E0,-4.854544163E0,4.235438824E0,-1.312821865E0
7.794104181E0,-8.903366089E0,7.560610771E0,3.625084877E0
7.810770119E0,-1.128783417E1,8.383684158E0,1.088641548E1
7.827436056E0,-1.165406513E1,8.779661179E0,1.571884537E1
7.844101994E0,-1.015295506E1,1.128947449E1,1.428824615E1
7.860767931E0,-8.458165169E0,1.573800087E1,1.116394997E1
7.877433869E0,-9.146879196E0,1.978897858E1,9.862792015E0
7.894099806E0,-1.140256500E1,2.194715118E1,1.042150116E1
7.910765744E0,-9.962909698E0,2.052210617E1,1.013185120E1
7.927431681E0,-5.611136913E0,1.717575455E1,9.411854744E0
7.944097619E0,8.568258286E-1,1.396786213E1,1.022559929E1
7.960763556E0,6.750718594E0,9.897813797E0,1.290661621E1
7.977429494E0,9.273717880E0,3.653320551E0,1.688490868E1
7.994095431E0,8.878569603E0,-2.649309397E0,1.690468788E1
8.010761369E0,9.587763786E0,-1.039426136E1,1.164009666E1
8.027427306E0,8.835704803E0,-1.717463303E1,4.508912086E0
8.044093244E0,4.698523998E0,-2.240821838E1,-7.827315331E-1
8.060759181E0,-1.547584534E-1,-2.587700844E1,-6.260033607E0
8.077425119E0,-5.824866295E0,-2.594486237E1,-1.563675404E1
8.094091056E0,-8.133086205E0,-2.571908379E1,-2.280743027E1
8.110756994E0,-8.144479752E0,-2.597665024E1,-2.075277710E1
8.127422931E0,-6.448313713E0,-2.752730560E1,-1.327015114E1
8.144088869E0,-3.244338274E0,-2.999548149E1,-6.761460304E0
8.160754806E0,3.206346512E0,-3.086633110E1,-4.606937408E0
8.177420744E0,1.213448906E1,-2.533237076E1,-7.431786537E0
8.194086681E0,2.117860985E1,-1.902930832E1,-1.078380394E1
8.210752619E0,2.474418640E1,-1.020129871E1,-2.571210861E0
8.227418556E0,1.867474556E1,-2.055618763E0,2.245834351E1
8.244084494E0,7.694565773E0,1.782679081E0,4.178623199E1
8.260750431E0,-7.157616615E-1,1.191580391E1,4.380617905E1
8.277416369E0,-2.412167549E0,2.580709076E1,4.325957108E1
8.294082306E0,-7.341725826E0,3.478949738E1,3.810955429E1
8.310748244E0,-1.437500191E1,4.132894897E1,2.804406357E1
8.327414181E0,-1.053024387E1,3.970043945E1,2.260106659E1
8.344080119E0,-8.513522148E0,3.082746887E1,2.173673820E1
8.360746056E0,-9.358884811E0,2.002377892E1,2.245630646E1
8.377411994E0,-7.848572731E0,1.353068256E1,2.802216721E1
8.394077931E0,-4.302406311E-2,7.458868027E0,4.188625336E1
8.410743869E0,1.057316589E1,-1.935181379E0,5.841135025E1
8.427409806E0,2.394262886E1,-1.334041882E1,6.315147781E1
8.444075744E0,3.366468430E1,-2.287654495E1,4.986650848E1
8.460741681E0,3.053491020E1,-3.006056786E1,2.868524742E1
8.477407619E0,2.149651146E1,-3.544660950E1,1.430853271E1
8.494073556E0,1.068122482E1,-3.910419083E1,3.762919426E0
8.510739494E0,-2.088227272E-1,-3.914627838E1,-7.618466377E0
8.527405431E0,-7.584215164E0,-3.678690720E1,-2.053002930E1
8.544071369E0,-8.174407005E0,-3.344297791E1,-2.501423454E1
8.560737306E0,-6.988037109E0,-3.364796066E1,-2.195846939E1
8.577403244E0,-7.348836422E0,-3.683356094E1,-1.496889400E1
8.594069181E0,-9.926368713E0,-4.276023102E1,-1.053268147E1
8.610735119E0,-1.283540726E1,-4.750985336E1,-1.017444229E1
8.627401056E0,-1.362125874E1,-4.842244720E1,-8.769535065E0
8.644066994E0,-1.034774685E1,-4.759314728E1,-4.492452621E0
8.660732931E0,-3.172261715E0,-4.669289398E1,3.776588440E-1
8.677398869E0,8.064107895E0,-4.468535614E1,6.878149033E0
8.694064806E0,2.041113091E1,-3.879050064E1,1.629025650E1
8.710730744E0,2.525600433E1,-2.885014534E1,3.302395248E1
8.727396681E0,2.549760437E1,-1.889476395E1,5.089006424E1
8.744062619E0,2.437310028E1,-9.808696747E0,5.735373306E1
8.760728556E0,2.179143143E1,-3.534319878E0,5.596333694E1
8.777394494E0,1.604136276E1,4.418535233E0,4.923727417E1
8.794060431E0,9.346370697E0,1.471639633E1,3.812862396E1
8.810726369E0,4.217562675E0,2.458739853E1,2.808073425E1
8.827392306E0,-4.698843956E-1,3.069158936E1,1.994360733E1
8.844058244E0,-7.550457954E0,3.355856705E1,1.329920578E1
8.860724181E0,-1.466996384E1,3.273107147E1,9.509138107E0
8.877390119E0,-2.004845810E1,2.866538429E1,8.473212242E0
8.894056056E0,-2.253456116E1,2.293894768E1,1.086930370E1
8.910721994E0,-2.157995987E1,1.737312889E1,1.927074623E1
8.927387931E0,-1.623753738E1,1.181651688E1,3.319545364E1
8.944053869E0,-5.583579063E0,4.914121628E0,4.790176010E1
8.960719806E0,8.940225601E0,-5.708498001E0,5.748689270E1
8.977385744E0,2.063113213E1,-1.809725761E1,5.639409256E1
8.994051681E0,2.500003433E1,-2.794723892E1,4.741447830E1
9.010717619E0,2.328426743E1,-3.442833328E1,3.448543549E1
9.027383556E0,1.712748528E1,-3.812706757E1,1.996192169E1
9.044049494E0,8.892908096E0,-3.863105392E1,6.932646275E0
9.060715431E0,1.716102600E0,-3.614417267E1,-3.922976255E0
9.077381369E0,-3.246438503E0,-3.320256424E1,-1.203630924E1
9.094047306E0,-6.220876694E0,-3.227642822E1,-1.401648140E1
9.110713244E0,-9.189205170E0,-3.295658493E1,-1.065952873E1
9.127379181E0,-1.267676163E1,-3.449983215E1,-8.475401878E0
9.144045119E0,-1.572314930E1,-3.590423203E1,-9.688864708E0
9.160711056E0,-1.695143700E1,-3.601119232E1,-1.078091812E1
9.177376994E0,-1.534046364E1,-3.515692520E1,-9.365301132E0
9.194042931E0,-1.105633450E1,-3.510151291E1,-5.510488033E0
9.210708869E0,-4.797350883E0,-3.604909897E1,-4.666666985E-1
9.227374806E0,3.375319958E0,-3.463929367E1,4.171844482E0
9.244040744E0,1.301848602E1,-2.955712700E1,9.556507111E0
9.260706681E0,1.938580704E1,-2.249839592E1,1.818985558E1
9.277372619E0,2.159489250E1,-1.466565323E1,3.038037872E1
9.294038556E0,2.087441826E1,-6.875438690E0,3.883671570E1
9.310704494E0,1.669586945E1,2.565312386E-1,3.811437988E1
9.327370431E0,1.033816910E1,6.078672886E0,3.276821136E1
9.344036369E0,4.478757381E0,1.127502060E1,2.687268257E1
9.360702306E0,-4.961342812E-1,1.607598114E1,2.092419815E1
9.377368244E0,-4.978077888E0,2.064530563E1,1.511135292E1
9.394034181E0,-8.973283768E0,2.391774750E1,9.728886604E0
9.410700119E0,-1.292617035E1,2.625764084E1,4.585102558E0
9.427366056E0,-1.619917679E1,2.707749176E1,2.608850956E0
9.444031994E0,-1.771761513E1,2.441710472E1,7.081289291E0
9.460697931E0,-1.692789459E1,1.875545692E1,1.509701729E1
9.477363869E0,-1.333021545E1,1.305597973E1,2.046813202E1
9.494029806E0,-7.637741089E0,9.391339302E0,2.300327110E1
9.510695744E0,-1.356578350E0,6.076980591E0,2.819870377E1
9.527361681E0,4.174347878E0,-5.645806789E-1,3.985746002E1
9.544027619E0,1.194120407E1,-1.120113087E1,5.283789062E1
9.560693556E0,2.158082199E1,-2.222755814E1,5.422520065E1
9.577359494E0,2.515762138E1,-2.852972412E1,4.083119583E1
9.594025431E0,2.017572021E1,-3.165628433E1,2.363993073E1
9.610691369E0,1.099408340E1,-3.311558533E1,9.643039703E0
9.627357306E0,2.865898609E0,-3.395962143E1,7.141213417E-1
9.644023244E0,-2.263713837E0,-3.505170822E1,-3.445953846E0
9.660689181E0,-6.092321873E0,-3.579903412E1,-7.059118271E0
9.677355119E0,-9.424263954E0,-3.552471161E1,-1.241554546E1
9.694021056E0,-1.251656723E1,-3.437807465E1,-1.757582283E1
9.710686994E0,-1.530972481E1,-3.332858658E1,-1.914731789E1
9.727352931E0,-1.759730911E1,-3.233266068E1,-1.707199287E1
9.744018869E0,-1.856311035E1,-3.079552650E1,-1.302738571E1
9.760684806E0,-1.763646698E1,-2.889805603E1,-7.988125801E0
9.777350744E0,-1.464944935E1,-2.689746475E1,-3.757452965E0
9.794016681E0,-1.006070614E1,-2.487934875E1,-5.415978432E-1
9.810682619E0,-4.979703426E0,-2.218441582E1,2.714710474E0
9.827348556E0,1.465625763E-1,-1.826316833E1,7.967304230E0
9.844014494E0,5.488625526E0,-1.323301411E1,1.583947563E1
9.860680431E0,1.219130611E1,-7.611621380E0,2.311130142E1
9.877346369E0,2.048881912E1,-1.525942087E0,2.787864304E1
9.894012306E0,2.608636475E1,4.809894562E0,2.846805573E1
9.910678244E0,2.565345573E1,9.398386002E0,2.628754997E1
9.927344181E0,1.965839386E1,1.206448936E1,2.425763512E1
9.944010119E0,1.162448025E1,1.367603874E1,2.142802048E1
9.960676056E0,4.854778290E0,1.564563370E1,1.683013725E1
9.977341994E0,5.269308090E-1,1.816886520E1,1.141067505E1
9.994007931E0,-2.338619709E0,2.080839157E1,6.206120491E0
1.001067387E1,-3.576523304E0,2.233135414E1,3.143726826E0
1.002733981E1,-3.074357510E0,2.176964951E1,3.760121822E0
1.004400574E1,-1.573680878E0,1.962423515E1,6.915964127E0
1.006067168E1,4.112033844E-1,1.661841393E1,9.077974319E0
1.007733762E1,2.802201271E0,1.450736904E1,9.324438095E0
1.009400356E1,6.375638008E0,1.296268559E1,1.145713234E1
1.011066949E1,1.066970539E1,1.008164692E1,1.812856674E1
1.012733543E1,1.584716034E1,4.640982628E0,2.940978622E1
1.014400137E1,2.240049553E1,-3.868992805E0,3.836938477E1
1.016066731E1,2.674789810E1,-1.271925640E1,3.710089493E1
1.017733324E1,2.469405365E1,-1.891098785E1,2.727807617E1
1.019399918E1,1.650342560E1,-2.219982529E1,1.707315254E1
1.021066512E1,6.855955601E0,-2.459049606E1,1.096368027E1
1.022733106E1,-7.529826164E-1,-2.743603706E1,7.760279655E0
1.024399699E1,-6.069533825E0,-2.983621407E1,5.214927673E0
1.026066293E1,-9.331914902E0,-3.086692429E1,2.190949202E0
1.027732887E1,-1.108969784E1,-3.076348686E1,-1.885900021E0
1.029399481E1,-1.314050293E1,-2.978738594E1,-6.275859833E0
1.031066074E1,-1.541625977E1,-2.892737007E1,-8.148557663E0
1.032732668E1,-1.732872772E1,-2.841092873E1,-7.420423031E0
1.034399262E1,-1.831230927E1,-2.803605652E1,-5.289165020E0
1.036065856E1,-1.751456070E1,-2.782835770E1,-2.725547314E0
1.037732449E1,-1.443360519E1,-2.690628433E1,-7.071676850E-1
1.039399043E1,-9.010476112E0,-2.453878021E1,-1.048270464E0
1.041065637E1,-2.147345066E0,-2.144077682E1,-4.779109955E0
1.042732231E1,5.176753044E0,-1.788829422E1,-4.948813915E0
1.044398824E1,1.164909840E1,-1.219393921E1,6.276540756E0
1.046065418E1,1.801127243E1,-9.500036240E0,2.023762894E1
1.047732012E1,2.114774513E1,-6.190816402E0,2.616150856E1
1.049398606E1,2.103924179E1,-6.229681373E-1,2.283874130E1
1.051065199E1,1.724349213E1,5.239462852E0,1.679792023E1
1.052731793E1,1.301598454E1,8.446960449E0,1.302438450E1
1.054398387E1,9.095257759E0,1.053231239E1,1.108357525E1
1.056064981E1,5.015150070E0,1.277767944E1,9.410099030E0
1.057731574E1,1.162298203E0,1.521323204E1,7.629818916E0
1.059398168E1,-2.179362774E0,1.797213745E1,5.502144337E0
1.061064762E1,-4.665866852E0,2.036725235E1,3.924204826E0
1.062731356E1,-6.290922165E0,2.131220436E1,4.325823307E0
1.064397949E1,-7.421066284E0,2.033269310E1,6.369655132E0
1.066064543E1,-8.610528946E0,1.785243988E1,8.225704193E0
1.067731137E1,-8.982998848E0,1.529914856E1,8.802423477E0
1.069397731E1,-8.646513939E0,1.287848568E1,9.618400574E0
1.071064324E1,-8.278701782E0,9.841350555E0,1.231064224E1
1.072730918E1,-4.944566727E0,4.319036484E0,2.007233810E1
1.074397512E1,1.808758736E0,-4.874062538E0,3.409552002E1
1.076064106E1,7.779222488E0,-1.350031662E1,4.253188324E1
1.077730699E1,1.116716671E1,-2.046331024E1,3.535870361E1
1.079397293E1,1.010142231E1,-2.331114769E1,2.045646095E1
1.081063887E1,7.854096413E0,-2.441482544E1,9.367200851E0
1.082730481E1,5.788125992E0,-2.481052780E1,2.865109921E0
1.084397074E1,3.532914162E0,-2.396983528E1,-4.929940701E-1
1.086063668E1,1.562808037E0,-2.296325874E1,-1.553636551E0
1.087730262E1,-5.043010712E-1,-2.227682114E1,-1.827787876E0
1.089396856E1,-3.654635906E0,-2.075562477E1,-2.448136091E0
1.091063449E1,-7.930539131E0,-1.821375084E1,-4.319825172E0
1.092730043E1,-1.374155712E1,-1.370407200E1,-7.373011589E0
1.094396637E1,-1.926813316E1,-8.547327995E0,-9.041008949E0
1.096063231E1,-2.245041275E1,-5.358532906E0,-6.404370308E0
1.097729824E1,-2.359388161E1,-3.804755688E0,9.528017044E-2
1.099396418E1,-2.230373001E1,-2.839213133E0,6.543209553E0
1.101063012E1,-1.799420929E1,-1.874001145E0,9.155982018E0
1.102729606E1,-1.009668541E1,-5.131717920E-1,7.213811398E0
1.104396199E1,1.111574173E-1,7.491480112E-1,3.299261093E0
1.106062793E1,8.337903976E0,9.178981781E-1,3.299206257E0
1.107729387E1,1.217077923E1,-7.744770050E-1,9.035063744E0
1.109395981E1,1.392742538E1,-3.887569427E0,1.522977352E1
1.111062574E1,1.470344353E1,-4.930473328E0,1.590427494E1
1.112729168E1,1.403636360E1,-4.547825336E0,1.083369637E1
1.114395762E1,8.573278427E0,-2.513461113E0,2.565586567E0
1.116062356E1,-1.025978565E0,7.094849944E-1,-5.228549480E0
1.117728949E1,-1.042477989E1,4.259713650E0,-7.458121300E0
1.119395543E1,-1.612688637E1,6.253243923E0,-3.559018850E0
1.121062137E1,-1.744276428E1,5.817901611E0,3.017978668E0
1.122728731E1,-1.370906162E1,3.687146425E0,6.773321629E0
1.124395324E1,-6.904333115E0,2.598610401E0,6.090092182E0
1.126061918E1,-2.591485977E-1,4.124540806E0,5.664235115E0
1.127728512E1,4.756378174E0,6.220384121E0,1.030872536E1
1.129395106E1,9.491182327E0,4.020493507E0,1.805586815E1
1.131061699E1,1.217658234E1,-1.079617500E0,2.037285614E1
1.132728293E1,9.078190804E0,-3.113872051E0,1.482848167E1
1.134394887E1,1.342106819E0,-1.758228421E0,7.757379055E0
1.136061481E1,-7.350816727E0,8.568599224E-1,5.381141663E0
1.137728074E1,-1.311141300E1,2.858883142E0,6.455636978E0
1.139394668E1,-1.407650948E1,3.005615711E0,5.570212364E0
1.141061262E1,-1.084370327E1,2.130834579E0,9.515881538E-1
1.142727856E1,-4.933295250E0,1.741576433E0,-4.757134914E0
1.144394449E1,2.489237785E-1,2.537011385E0,-8.507543564E0
1.146061043E1,2.393356323E0,4.912669182E0,-8.059609413E0
1.147727637E1,4.037157536E0,6.052962303E0,-1.375420570E0
1.149394231E1,7.106305122E0,5.313364983E0,9.663570404E0
1.151060824E1,1.199051666E1,2.185927153E0,1.855770683E1
1.152727418E1,1.560793495E1,-1.040877223E0,2.063090515E1
1.154394012E1,1.271690464E1,-1.491521955E0,1.686069107E1
1.156060606E1,6.207807541E0,-1.794834852E0,1.238332558E1
1.157727199E1,-1.487560272E-1,-2.605774403E0,9.416407585E0
1.159393793E1,-4.757686615E0,-3.270464420E0,6.232962608E0
1.161060387E1,-7.007040024E0,-3.909043312E0,3.061940670E0
1.162726981E1,-7.051778793E0,-4.329075813E0,1.074843407E0
1.164393574E1,-5.456954002E0,-4.480839252E0,-1.175105095E0
1.166060168E1,-3.797745705E0,-4.349520683E0,-4.412084579E0
1.167726762E1,-3.506187439E0,-3.222527504E0,-7.853538036E0
1.169393356E1,-4.667134285E0,-8.308928013E-1,-1.048117828E1
1.171059949E1,-6.760149002E0,2.857338190E0,-1.111866570E1
1.172726543E1,-8.495511055E0,6.512857914E0,-9.035011292E0
1.174393137E1,-9.049551964E0,1.096760368E1,-4.723985672E0
1.176059731E1,-7.234897137E0,1.623871613E1,3.003783226E-1
1.177726324E1,-3.959326506E0,2.211357880E1,6.101834297E0
1.179392918E1,-1.711115837E-1,2.686471939E1,1.378449345E1
1.181059512E1,4.769689083E0,2.821097374E1,2.259838676E1
1.182726106E1,1.122725391E1,2.568537712E1,2.885253716E1
1.184392699E1,1.765797043E1,1.994088936E1,3.010202408E1
1.186059293E1,2.167683220E1,1.149095821E1,2.685439491E1
1.187725887E1,2.221233368E1,1.660054922E0,2.189879036E1
1.189392481E1,1.949488640E1,-7.489848614E0,1.718185425E1
1.191059074E1,1.480470467E1,-1.600569534E1,1.293330193E1
1.192725668E1,9.313623428E0,-2.438013649E1,8.854142189E0
1.194392262E1,2.723714352E0,-3.020654297E1,3.943516731E0
1.196058856E1,-3.977711201E0,-3.323854065E1,-2.583695173E0
1.197725449E1,-1.047366142E1,-3.440087128E1,-9.608264923E0
1.199392043E1,-1.565156460E1,-3.477766037E1,-1.315528584E1
1.201058637E1,-1.867215157E1,-3.467559814E1,-1.276844311E1
1.202725231E1,-1.884378052E1,-3.437902069E1,-9.657140732E0
1.204391824E1,-1.502848244E1,-3.351112747E1,-4.449798584E0
1.206058418E1,-6.806331635E0,-3.150173378E1,-8.607778549E-1
1.207725012E1,4.672945976E0,-2.835241890E1,-1.121512890E0
1.209391606E1,1.565895844E1,-2.401269341E1,-1.448746681E0
1.211058199E1,2.316560745E1,-1.803178024E1,3.395424366E0
1.212724793E1,2.664904785E1,-1.156612587E1,1.677470970E1
1.214391387E1,2.690180969E1,-3.425025940E0,3.649769211E1
1.216057981E1,2.766509628E1,8.091470718E0,4.901607513E1
1.217724574E1,2.935561752E1,2.152141953E1,4.445765686E1
1.219391168E1,2.951472855E1,3.416733551E1,3.130201912E1
1.221057762E1,2.461396980E1,4.090195465E1,2.182581711E1
1.222724356E1,1.566369152E1,4.295979309E1,1.523912811E1
1.224390949E1,6.382966518E0,4.231884766E1,9.870233536E0
1.226057543E1,2.959542274E-1,3.860047150E1,9.074716568E0
1.227724137E1,-1.994834900E0,3.182806778E1,1.462701035E1
1.229390731E1,-1.490094185E0,2.361191368E1,2.276631546E1
1.231057324E1,2.082321644E0,1.568000031E1,3.097785950E1
1.232723918E1,8.398090363E0,8.258190155E0,3.775480652E1
1.234390512E1,1.519764137E1,1.321564198E0,4.234851837E1
1.236057106E1,2.255874634E1,-6.886611938E0,4.609998322E1
1.237723699E1,2.884018517E1,-1.788831329E1,4.518401337E1
1.239390293E1,3.038774872E1,-2.853394508E1,3.830848312E1
1.241056887E1,2.660654640E1,-3.630512619E1,2.907149315E1
1.242723481E1,1.848751450E1,-4.127216339E1,1.924407959E1
1.244390074E1,7.995198250E0,-4.267205811E1,1.012165546E1
1.246056668E1,-2.439026356E0,-4.105649185E1,1.909289837E0
1.247723262E1,-1.047350597E1,-3.792026520E1,-3.676660061E0
1.249389856E1,-1.565015507E1,-3.597676086E1,-4.818854809E0
1.251056449E1,-1.885640144E1,-3.662376785E1,-4.491370678E0
1.252723043E1,-2.109865952E1,-3.906129456E1,-5.173535347E0
1.254389637E1,-2.305342102E1,-4.123995590E1,-5.133796692E0
1.256056231E1,-2.293997765E1,-4.176303864E1,-3.335503578E0
1.257722824E1,-1.770712090E1,-4.143985748E1,3.035411835E-1
1.259389418E1,-7.184742928E0,-3.977727127E1,3.150453091E0
1.261056012E1,6.964903355E0,-3.608435440E1,5.155358791E0
1.262722606E1,2.106615448E1,-2.993928146E1,1.096974564E1
1.264389199E1,3.052400017E1,-2.084501648E1,2.464439583E1
1.266055793E1,3.354230499E1,-1.096446514E1,4.117926788E1
1.267722387E1,2.979855347E1,-1.105290890E0,5.019696808E1
1.269388981E1,2.171804428E1,7.787721634E0,4.842756271E1
1.271055574E1,1.287620831E1,1.514604855E1,4.205927658E1
1.272722168E1,5.494861126E0,2.192275047E1,3.416250229E1
1.274388762E1,1.032952785E0,2.759946632E1,2.418437386E1
1.276055356E1,-1.915707111E0,3.232374191E1,1.399916649E1
1.277721949E1,-5.312805176E0,3.551805878E1,6.316721439E0
1.279388543E1,-8.882884026E0,3.573025131E1,2.694274902E0
1.281055137E1,-1.055361080E1,3.222407532E1,3.745370388E0
1.282721731E1,-1.023157120E1,2.616414642E1,1.054102325E1
1.284388324E1,-8.095798492E0,1.964202118E1,2.340189171E1
1.286054918E1,-2.925449610E0,1.306287193E1,3.830924988E1
1.287721512E1,5.074653625E0,5.563369274E0,5.115303802E1
1.289388106E1,1.459095764E1,-6.147480488E0,5.839729309E1
1.291054699E1,2.158213234E1,-1.926023865E1,5.600486374E1
1.292721293E1,2.338510323E1,-2.953327560E1,4.601533127E1
1.294387887E1,1.922502899E1,-3.636935806E1,3.268804550E1
1.296054481E1,1.037412071E1,-3.927120972E1,1.861255455E1
1.297721074E1,9.572916031E-1,-3.939452362E1,5.598130703E0
1.299387668E1,-6.545516014E0,-3.764705658E1,-4.049309731E0
1.301054262E1,-1.176490784E1,-3.695631027E1,-6.668393135E0
1.302720856E1,-1.723045731E1,-3.748355484E1,-4.318851948E0
1.304387449E1,-2.211505127E1,-3.851520157E1,-2.380195141E0
1.306054043E1,-2.425240326E1,-3.929807663E1,-3.163204670E0
1.307720637E1,-2.356480408E1,-3.975731659E1,-4.135094166E0
1.309387231E1,-2.140820885E1,-3.915709305E1,-3.278495789E0
1.311053824E1,-1.668576622E1,-3.963755035E1,4.472742081E-1
1.312720418E1,-9.342190742E0,-4.183465576E1,7.095685959E0
1.314387012E1,1.388354301E0,-4.131125259E1,1.376782799E1
1.316053606E1,1.567634869E1,-3.573500824E1,1.831576347E1
1.317720199E1,2.633520508E1,-2.590555954E1,2.594898224E1
1.319386793E1,3.097532082E1,-1.576232529E1,3.908855820E1
1.321053387E1,2.935148048E1,-6.974467278E0,4.563624573E1
1.322719981E1,2.425498199E1,1.550153971E0,4.354298019E1
1.324386574E1,1.939616203E1,1.020077324E1,3.563312531E1
1.326053168E1,1.489372158E1,1.736558151E1,2.363912964E1
1.327719762E1,1.053482246E1,2.265660667E1,1.260290337E1
1.329386356E1,5.782720566E0,2.648649216E1,4.136703968E0
1.331052949E1,1.444746494E0,2.823633957E1,-1.666810513E0
1.332719543E1,-3.963258266E0,2.851648903E1,-5.266144276E0
1.334386137E1,-9.823526382E0,2.745109940E1,-6.123413086E0
1.336052731E1,-1.373265839E1,2.480089188E1,-3.827496767E0
1.337719324E1,-1.387062645E1,2.098914146E1,2.462567329E0
1.339385918E1,-1.032078266E1,1.641643333E1,1.166929626E1
1.341052512E1,-2.709550381E0,1.289882374E1,2.047623634E1
1.342719106E1,8.971227646E0,9.671528816E0,2.773327827E1
1.344385699E1,1.924880791E1,3.447270393E0,3.577903748E1
1.346052293E1,2.624980354E1,-6.655065060E0,4.432714462E1
1.347718887E1,2.999861145E1,-1.754229355E1,4.650503922E1
1.349385481E1,2.860666847E1,-2.555476189E1,3.818145752E1
1.351052074E1,2.222508812E1,-2.940242004E1,2.475048447E1
1.352718668E1,1.341190338E1,-3.135671234E1,1.299133110E1
1.354385262E1,4.489817619E0,-3.199945641E1,4.516870975E0
1.356051856E1,-2.819274426E0,-3.186740494E1,-1.987965822E0
1.357718449E1,-7.767122746E0,-3.139204407E1,-6.253446579E0
1.359385043E1,-1.101006603E1,-3.106707954E1,-9.761873245E0
1.361051637E1,-1.327474213E1,-3.047799492E1,-1.334787178E1
1.362718231E1,-1.504730606E1,-3.022551918E1,-1.646787262E1
1.364384824E1,-1.705692482E1,-3.015628052E1,-1.822666931E1
1.366051418E1,-1.888754845E1,-2.995325851E1,-1.760317612E1
1.367718012E1,-1.919948196E1,-2.957273674E1,-1.414960957E1
1.369384606E1,-1.718736267E1,-2.877607918E1,-9.313743591E0
1.371051199E1,-1.333950233E1,-2.755541992E1,-5.586330414E0
1.372717793E1,-7.971928596E0,-2.569375992E1,-2.592505217E0
1.374384387E1,-1.324508190E0,-2.391402817E1,-5.376129150E-1
1.376050981E1,5.152447701E0,-2.166992188E1,3.140554905E0
1.377717574E1,1.012111092E1,-1.770467186E1,1.277825451E1
1.379384168E1,1.493422604E1,-1.328906822E1,2.605623055E1
1.381050762E1,1.848420525E1,-7.356972694E0,3.272026825E1
1.382717356E1,1.895647812E1,8.297457695E-1,2.905455780E1
1.384383949E1,1.655474091E1,8.526561737E0,2.248149681E1
1.386050543E1,1.223694801E1,1.396225739E1,1.703622246E1
1.387717137E1,7.685361385E0,1.857848358E1,1.119680405E1
1.389383731E1,4.100654602E0,2.323413467E1,5.776046276E0
1.391050324E1,1.447958946E0,2.713305664E1,1.563697338E0
1.392716918E1,-2.482099533E-1,2.957033920E1,-5.294671059E-1
1.394383512E1,-9.614439011E-1,2.942353249E1,5.478119850E-1
1.396050106E1,-1.232416153E0,2.573861504E1,4.538391590E0
1.397716699E1,-9.068446159E-1,1.976254845E1,9.234414101E0
1.399383293E1,1.685743332E-1,1.404222965E1,1.310367489E1
1.401049887E1,2.885381699E0,8.301041603E0,1.617136955E1
1.402716481E1,6.887769699E0,1.834156275E0,2.083383942E1
1.404383074E1,1.019874763E1,-5.024959564E0,2.852383232E1
1.406049668E1,1.107918167E1,-1.110738850E1,3.315007019E1
1.407716262E1,1.029918861E1,-1.502900314E1,2.915970802E1
1.409382856E1,7.645840168E0,-1.656304550E1,2.165832329E1
1.411049449E1,4.190753460E0,-1.760067940E1,1.597466946E1
1.412716043E1,6.804361343E-1,-1.893193436E1,1.082618237E1
1.414382637E1,-2.479754448E0,-2.019421768E1,5.869151592E0
1.416049231E1,-4.940524101E0,-2.161173058E1,1.432096958E0
1.417715824E1,-6.711953163E0,-2.301550102E1,-2.787538528E0
1.419382418E1,-8.051360130E0,-2.389594460E1,-6.115224361E0
1.421049012E1,-8.868428230E0,-2.454722404E1,-7.741477966E0
1.422715606E1,-9.372850418E0,-2.510560799E1,-8.104985237E0
1.424382199E1,-9.816109657E0,-2.519466782E1,-7.309638977E0
1.426048793E1,-9.513135910E0,-2.436430359E1,-5.756955147E0
1.427715387E1,-7.789402485E0,-2.226385498E1,-5.277831078E0
1.429381981E1,-5.687940598E0,-1.839292145E1,-4.314967155E0
1.431048574E1,-2.877100468E0,-1.314877033E1,2.029812574E0
1.432715168E1,1.806144714E-1,-8.738971710E0,1.135585976E1
1.434381762E1,5.752429962E-1,-5.076262474E0,1.667848778E1
1.436048356E1,-1.789374352E0,-8.769750595E-2,1.638311768E1
1.437714949E1,-3.150068760E0,5.130252838E0,1.169127083E1
1.439381543E1,-2.427175999E0,9.679504395E0,6.201842785E0
1.441048137E1,-4.898266792E-1,1.125842571E1,2.697478294E0
1.442714731E1,2.989816666E0,8.825653076E0,1.800536156E0
1.444381324E1,7.243396282E0,4.732491970E0,1.913698196E0
1.446047918E1,1.141180992E1,1.772411346E0,1.110675812E0
1.447714512E1,1.350218010E1,6.505734921E-1,5.938487053E-1
1.449381106E1,1.296415615E1,-8.241055012E-1,7.080478668E-1
1.451047699E1,9.465521812E0,-2.726747036E0,-2.709040642E-1
1.452714293E1,1.418563843E0,-2.155076981E0,-3.142447710E0
1.454380887E1,-8.119007111E0,9.237806797E-1,-5.021070480E0
1.456047481E1,-1.425280476E1,2.712630987E0,-3.213290930E0
1.457714074E1,-1.621801949E1,2.996203899E0,1.245114326E0
1.459380668E1,-1.616308022E1,3.171271801E0,2.879312515E0
1.461047262E1,-1.529462528E1,4.018644333E0,1.258309841E0
1.462713856E1,-1.323800468E1,4.641222954E0,1.216845989E0
1.464380449E1,-1.020280647E1,4.061640739E0,2.797943592E0
1.466047043E1,-6.527783871E0,3.884870052E0,3.607381821E0
1.467713637E1,-2.691634655E0,4.054206848E0,6.941513062E0
1.469380231E1,1.936073303E0,5.431481004E-1,1.413612747E1
1.471046824E1,7.627161980E0,-5.475995064E0,2.068155289E1
1.472713418E1,1.208874035E1,-8.851586342E0,2.097912788E1
1.474380012E1,1.308977318E1,-1.007217693E1,1.703912163E1
1.476046606E1,9.201079369E0,-1.014194489E1,1.249531555E1
1.477713199E1,1.249736786E0,-8.509748459E0,7.030836582E0
1.479379793E1,-7.093443871E0,-5.247239113E0,4.733510017E-1
1.481046387E1,-1.382759094E1,-9.892246723E-1,-5.491513252E0
1.482712981E1,-1.795326996E1,2.746970892E0,-7.636961460E0
1.484379574E1,-1.840881348E1,4.744530201E0,-5.755921364E0
1.486046168E1,-1.619202423E1,5.825049877E0,-2.194292784E0
1.487712762E1,-1.307249260E1,5.331377029E0,1.054458141E0
1.489379356E1,-9.196295738E0,3.314072847E0,2.872503281E0
1.491045949E1,-4.012172222E0,1.346665144E0,2.220520020E0
1.492712543E1,2.683703423E0,1.097266316E0,-9.455718994E-1
1.494379137E1,9.997646332E0,9.540911317E-1,-4.030435562E0
1.496045731E1,1.569097137E1,-2.438601017E0,-2.095698357E0
1.497712324E1,1.609902000E1,-8.677289009E0,5.525327206E0
1.499378918E1,1.152290535E1,-1.260621643E1,1.183171082E1
1.501045512E1,5.401260853E0,-1.216025543E1,1.202123737E1
1.502712106E1,3.620624542E-3,-8.496803284E0,9.877180099E0
1.504378699E1,-1.521300316E0,-5.022151947E0,6.744560242E0
1.506045293E1,-5.556254387E-1,-2.619831800E0,2.976068020E0
1.507711887E1,-2.218146324E-1,-7.689237595E-1,5.522460938E-1
1.509378481E1,-8.596391678E-1,1.004405499E0,1.580956936E0
1.511045074E1,-1.924102783E0,2.513414383E0,4.667068005E0
1.512711668E1,-3.012462378E0,4.278726101E0,7.804978848E0
1.514378262E1,-3.811038256E0,5.945185661E0,1.030566597E1
1.516044856E1,-3.476969957E0,7.640095711E0,1.144301796E1
1.517711449E1,-1.720677853E0,9.393272400E0,1.044960690E1
1.519378043E1,-2.236323357E-1,1.108968163E1,9.597960472E0
1.521044637E1,-2.203049660E-1,1.265423203E1,9.313274384E0
1.522711231E1,-1.757788658E0,1.474055862E1,8.679919243E0
1.524377824E1,-4.199654579E0,1.753619194E1,7.065112114E0
1.526044418E1,-7.409456730E0,2.045315170E1,4.558464527E0
1.527711012E1,-1.114750862E1,2.279876137E1,2.994287014E0
1.529377606E1,-1.440296650E1,2.381568909E1,4.671662331E0
1.531044199E1,-1.581232834E1,2.316195679E1,1.084554672E1
1.532710793E1,-1.319575882E1,1.999865341E1,2.049406433E1
1.534377387E1,-7.302695274E0,1.477649593E1,3.049029922E1
1.536043981E1,-1.029980659E0,8.931163788E0,3.886508560E1
1.537710574E1,5.479891777E0,1.527114391E0,4.477877808E1
1.539377168E1,1.195655537E1,-7.812095642E0,4.508810806E1
1.541043762E1,1.595116997E1,-1.677561188E1,3.997160339E1
1.542710356E1,1.553710747E1,-2.379376602E1,3.164548111E1
1.544376949E1,1.076416492E1,-2.865549660E1,2.299189186E1
1.546043543E1,3.982671261E0,-3.201112366E1,1.559798717E1
1.547710137E1,-2.222895145E0,-3.351927185E1,7.347366810E0
1.549376731E1,-6.350063801E0,-3.456795502E1,-5.534133315E-1
1.551043324E1,-9.938145638E0,-3.616613388E1,-4.981298447E0
1.552709918E1,-1.427582169E1,-3.810490417E1,-5.241992950E0
1.554376512E1,-1.889665604E1,-4.087039185E1,-4.370943069E0
1.556043106E1,-2.283698654E1,-4.401041031E1,-4.674740791E0
1.557709699E1,-2.439773178E1,-4.552528381E1,-4.167950630E0
1.559376293E1,-1.986486435E1,-4.526701355E1,7.643699646E-3
1.561042887E1,-8.731196404E0,-4.357700729E1,5.539238453E0
1.562709481E1,6.835837841E0,-4.015062714E1,9.701406479E0
1.564376074E1,2.012799835E1,-3.421615219E1,1.498338318E1
1.566042668E1,2.534338379E1,-2.637609863E1,2.646990204E1
1.567709262E1,2.345148277E1,-1.731805992E1,4.069966888E1
1.569375856E1,2.022048950E1,-7.480947018E0,5.302773285E1
1.571042449E1,1.835132027E1,2.566436768E0,5.504855728E1
1.572709043E1,1.914868355E1,1.137257385E1,4.750748444E1
1.574375637E1,1.956631851E1,2.058793449E1,3.457463837E1
1.576042231E1,1.735052872E1,2.812073135E1,2.219098282E1
1.577708824E1,1.185175133E1,3.259124374E1,1.207872009E1
1.579375418E1,4.477120876E0,3.505247498E1,4.952952862E0
1.581042012E1,-2.582982063E0,3.601012421E1,1.931710243E0
1.582708606E1,-7.746258736E0,3.489201736E1,3.124983311E0
1.584375199E1,-9.589771271E0,3.088611221E1,8.525066376E0
1.586041793E1,-8.005270004E0,2.489031982E1,1.741051102E1
1.587708387E1,-3.079622269E0,1.958559227E1,2.563713646E1
1.589374981E1,3.900025368E0,1.590781307E1,3.032567215E1
1.591041574E1,1.168888664E1,1.020481110E1,3.511008453E1
1.592708168E1,1.921556854E1,-5.643062592E-1,4.182124329E1
1.594374762E1,2.520814323E1,-1.376514816E1,4.616095734E1
1.596041356E1,2.770110321E1,-2.448495102E1,4.351205444E1
1.597707949E1,2.547185707E1,-3.107906151E1,3.427859116E1
1.599374543E1,1.907402802E1,-3.430102921E1,2.448380661E1
1.601041137E1,1.077536964E1,-3.528286743E1,1.613261223E1
1.602707731E1,2.254817009E0,-3.457490540E1,7.817671776E0
1.604374324E1,-4.745088577E0,-3.325292969E1,9.839692116E-1
1.606040918E1,-9.904949188E0,-3.336333466E1,-3.840875387E0
1.607707512E1,-1.376883698E1,-3.465946579E1,-8.254298210E0
1.609374106E1,-1.760616302E1,-3.606544495E1,-1.299851036E1
1.611040699E1,-2.061117554E1,-3.733080292E1,-1.700399208E1
1.612707293E1,-2.229380035E1,-3.674968719E1,-1.943387222E1
1.614373887E1,-2.191848946E1,-3.521926880E1,-1.858537102E1
1.616040481E1,-1.939927673E1,-3.474598312E1,-1.392692947E1
1.617707074E1,-1.531046295E1,-3.544770050E1,-6.336579323E0
1.619373668E1,-1.045704746E1,-3.514614487E1,8.134250641E-1
1.621040262E1,-2.984845638E0,-3.274058914E1,4.261158466E0
1.622706856E1,6.791444778E0,-2.808503532E1,7.069832802E0
1.624373449E1,1.567372990E1,-2.117427826E1,1.375016022E1
1.626040043E1,2.250821304E1,-1.643930626E1,2.413678741E1
1.627706637E1,2.477215958E1,-1.144153786E1,3.217970276E1
1.629373231E1,2.392480659E1,-3.567806244E0,3.055931854E1
1.631039824E1,2.088209534E1,4.966655254E0,2.325747108E1
1.632706418E1,1.584203148E1,1.067444324E1,1.731868172E1
1.634373012E1,9.929460526E0,1.423857689E1,1.380971241E1
1.636039606E1,4.893573284E0,1.694029236E1,1.093854904E1
1.637706199E1,1.688235283E0,1.898521614E1,8.117000580E0
1.639372793E1,-9.306764603E-2,2.106624603E1,5.248886585E0
1.641039387E1,-1.559400558E0,2.333879089E1,3.153845310E0
1.642705981E1,-3.208804846E0,2.510441971E1,3.097340584E0
1.644372574E1,-4.758347988E0,2.532621193E1,4.732801914E0
1.646039168E1,-5.764458179E0,2.403585434E1,6.035463333E0
1.647705762E1,-5.614862919E0,2.155789948E1,6.093430996E0
1.649372356E1,-4.178774834E0,1.828894043E1,6.123827934E0
1.651038949E1,-1.997582912E0,1.410614586E1,8.237907410E0
1.652705543E1,1.186390877E0,8.296452522E0,1.284880161E1
1.654372137E1,6.611766815E0,9.590975046E-1,2.124752426E1
1.656038731E1,1.735763931E1,-9.146992683E0,3.537011337E1
1.657705324E1,2.901889420E1,-1.951836014E1,4.345714569E1
1.659371918E1,3.388994980E1,-2.613333702E1,3.639728928E1
1.661038512E1,2.934003067E1,-2.841334724E1,2.705902481E1
1.662705106E1,1.956177902E1,-2.972393799E1,2.158064270E1
1.664371699E1,9.056238174E0,-3.016293716E1,1.494830227E1
1.666038293E1,1.359430790E0,-2.951965332E1,7.679075241E0
1.667704887E1,-2.756238699E0,-2.919378471E1,6.338753700E-1
1.669371481E1,-4.951617718E0,-2.892923546E1,-8.045253754E0
1.671038074E1,-7.080211163E0,-2.834856033E1,-1.739689255E1
1.672704668E1,-1.006717110E1,-2.777769279E1,-2.400745392E1
1.674371262E1,-1.352407742E1,-2.743077660E1,-2.689380455E1
1.676037856E1,-1.653123093E1,-2.723499870E1,-2.708406258E1
1.677704449E1,-1.811121559E1,-2.707962036E1,-2.446645546E1
1.679371043E1,-1.768262291E1,-2.659960556E1,-1.887137604E1
1.681037637E1,-1.517621613E1,-2.536191940E1,-1.222070789E1
1.682704231E1,-1.073235416E1,-2.354290390E1,-6.470637321E0
1.684370824E1,-5.005959511E0,-2.085292435E1,-1.712923050E0
1.686037418E1,1.187799931E0,-1.802787590E1,1.626483440E0
1.687704012E1,6.058947086E0,-1.586420155E1,2.548955917E0
1.689370606E1,8.011932373E0,-1.393829155E1,6.507038116E0
1.691037199E1,8.657598495E0,-1.238061714E1,1.804792404E1
1.692703793E1,8.508146286E0,-1.079790306E1,2.652741623E1
1.694370387E1,8.424655914E0,-7.531624317E0,2.505479622E1
1.696036981E1,8.522820473E0,-3.474001884E0,1.889181519E1
1.697703574E1,7.649828911E0,5.085229874E-1,1.494502544E1
1.699370168E1,5.626314163E0,3.172820807E0,1.305450058E1
1.701036762E1,3.030466557E0,5.051573277E0,1.161514091E1
1.702703356E1,8.282737732E-1,6.760284424E0,1.055308056E1
1.704369949E1,1.491723061E-1,8.969875336E0,8.695726395E0
1.706036543E1,5.809206963E-1,1.147889519E1,5.103219986E0
1.707703137E1,7.912788391E-1,1.403680325E1,7.910718918E-1
1.709369731E1,1.310806274E-1,1.596838760E1,-1.766343117E0
1.711036324E1,-1.730762482E0,1.691703033E1,-1.569608688E0
1.712702918E1,-4.148012638E0,1.702667999E1,2.419939041E-1
1.714369512E1,-5.676184654E0,1.644326973E1,1.776313782E0
1.716036106E1,-5.586461067E0,1.521456528E1,2.236310482E0
1.717702699E1,-4.522602081E0,1.331451988E1,2.439534187E0
1.719369293E1,-3.182751417E0,1.089271069E1,3.437870979E0
1.721035887E1,-1.156226158E0,8.089884758E0,5.156032562E0
1.722702481E1,3.112502575E0,3.588792801E0,1.113777924E1
1.724369074E1,8.490093231E0,-2.640787601E0,2.414171982E1
1.726035668E1,1.317424870E1,-1.032526207E1,3.287094498E1
1.727702262E1,1.505804443E1,-1.459561825E1,2.920842743E1
1.729368856E1,1.299483967E1,-1.547219753E1,2.145613098E1
1.731035449E1,8.649038315E0,-1.667554665E1,1.638446808E1
1.732702043E1,4.089864731E0,-1.773763466E1,1.143066788E1
1.734368637E1,5.464496613E-1,-1.748120880E1,6.031136513E0
1.736035231E1,-1.437596560E0,-1.656927872E1,1.302330017E0
1.737701824E1,-2.480465651E0,-1.544537163E1,-2.776112080E0
1.739368418E1,-3.308751106E0,-1.428723812E1,-5.725908756E0
1.741035012E1,-4.008518219E0,-1.346524811E1,-7.328263760E0
1.742701606E1,-4.719387054E0,-1.304619884E1,-8.262100220E0
1.744368199E1,-5.331210136E0,-1.278918171E1,-9.258043289E0
1.746034793E1,-6.064512253E0,-1.263151169E1,-1.086700630E1
1.747701387E1,-6.996486664E0,-1.225751972E1,-1.231333065E1
1.749367981E1,-7.835740566E0,-1.183895969E1,-1.316092587E1
1.751034574E1,-8.409273148E0,-1.155356026E1,-1.292458057E1
1.752701168E1,-8.587558746E0,-1.134253502E1,-1.177950668E1
1.754367762E1,-8.688805580E0,-1.125162888E1,-1.032814598E1
1.756034356E1,-8.531105995E0,-1.113155651E1,-8.807068825E0
1.757700949E1,-7.674627304E0,-1.114538002E1,-7.269924641E0
1.759367543E1,-5.858222008E0,-1.144722652E1,-5.281671524E0
1.761034137E1,-2.765529156E0,-1.202481270E1,-3.358721733E0
1.762700731E1,1.817289352E0,-1.255440235E1,-2.705834389E0
1.764367324E1,5.809395313E0,-1.177163124E1,1.753751278E0
1.766033918E1,6.784733772E0,-1.042267990E1,1.549570942E1
1.767700512E1,6.426259041E0,-1.116997147E1,3.155118179E1
1.769367106E1,6.408556461E0,-9.886143684E0,3.340738678E1
1.771033699E1,5.815732479E0,-6.467257023E0,2.395805550E1
1.772700293E1,4.786384583E0,-2.298446655E0,1.365145111E1
1.774366887E1,3.930929184E0,1.079872131E0,5.186056137E0
1.776033481E1,3.335331440E0,3.354165316E0,-8.496036530E-1
1.777700074E1,3.137205124E0,4.764770031E0,-3.540468693E0
1.779366668E1,3.133481979E0,5.520607471E0,-4.197281361E0
1.781033262E1,2.876859188E0,5.767440796E0,-4.056475639E0
1.782699856E1,2.410624981E0,5.867700577E0,-4.334925652E0
1.784366449E1,1.750637770E0,6.058180332E0,-5.479410172E0
1.786033043E1,6.418151855E-1,6.038141727E0,-6.849686623E0
1.787699637E1,-6.973519325E-1,5.893444061E0,-7.890507221E0
1.789366231E1,-2.065850735E0,5.577888489E0,-8.333437920E0
1.791032824E1,-3.211627483E0,4.988336563E0,-8.180348396E0
1.792699418E1,-3.884540558E0,4.119487762E0,-7.422622681E0
1.794366012E1,-3.857224941E0,3.197325468E0,-6.145607948E0
1.796032606E1,-3.516112804E0,2.858313799E0,-4.773827553E0
1.797699199E1,-2.735121727E0,2.993970394E0,-2.200926304E0
1.799365793E1,-1.188122988E0,1.873290062E0,6.338769913E0
1.801032387E1,1.015212059E0,-2.302120447E0,1.893401718E1
1.802698981E1,4.676048279E0,-7.651562214E0,2.736931229E1
1.804365574E1,8.291276932E0,-9.589681625E0,2.518072510E1
1.806032168E1,8.759611130E0,-8.704188347E0,1.832709503E1
1.807698762E1,6.473904610E0,-8.471468925E0,1.335202312E1
1.809365356E1,3.464981794E0,-9.410475731E0,9.082565308E0
1.811031949E1,1.071787477E0,-9.713232040E0,5.070600510E0
1.812698543E1,-1.620174646E-1,-9.156177521E0,1.689773560E0
1.814365137E1,-4.629133940E-1,-8.366006851E0,-9.470520020E-1
1.816031731E1,-1.779472828E-1,-7.454606056E0,-3.094916821E0
1.817698324E1,1.974165440E-1,-6.645857334E0,-4.967294693E0
1.819364918E1,2.956929207E-1,-6.076738358E0,-6.323412895E0
1.821031512E1,1.454877853E-1,-5.783197880E0,-6.865158081E0
1.822698106E1,-1.216068268E-1,-5.791296959E0,-6.948166847E0
1.824364699E1,-3.193707466E-1,-5.985490322E0,-6.930589676E0
1.826031293E1,-2.751970291E-1,-6.335001945E0,-6.919832230E0
1.827697887E1,-1.120038033E-1,-6.663072586E0,-6.779562950E0
1.829364481E1,1.371154785E-1,-6.677798271E0,-6.658843040E0
1.831031074E1,4.098980427E-1,-6.516652107E0,-6.865868092E0
1.832697668E1,9.117119312E-1,-6.399939537E0,-7.280225277E0
1.834364262E1,1.650079250E0,-6.484133720E0,-7.592202663E0
1.836030856E1,2.978782415E0,-6.660146713E0,-7.549555779E0
1.837697449E1,4.575379372E0,-6.275660515E0,-6.652633667E0
1.839364043E1,4.685407639E0,-3.950019121E0,-2.976329803E0
1.841030637E1,3.429975271E0,-1.883093119E0,4.695296288E0
1.842697231E1,2.648049355E0,-3.304627895E0,1.376654148E1
1.844363824E1,2.621550798E0,-4.867925644E0,1.735732269E1
1.846030418E1,3.071416616E0,-4.033255577E0,1.471937180E1
1.847697012E1,3.267453671E0,-1.641644359E0,9.752487183E0
1.849363606E1,2.949942589E0,3.008270264E-1,5.491966248E0
1.851030199E1,1.991924763E0,1.493265271E0,2.322200775E0
1.852696793E1,7.541093826E-1,2.048808336E0,2.633581161E-1
1.854363387E1,-1.800765991E-1,2.065386772E0,-6.200828552E-1
1.856029981E1,-1.058955908E0,1.917805076E0,-9.676904678E-1
1.857696574E1,-1.860562801E0,1.850448132E0,-1.224365234E0
1.859363168E1,-2.293333292E0,1.904745221E0,-1.504443169E0
1.861029762E1,-2.281512022E0,2.104519606E0,-2.106247425E0
1.862696356E1,-2.122132063E0,2.225409985E0,-2.779614925E0
1.864362949E1,-1.871605158E0,2.190219879E0,-3.258333683E0
1.866029543E1,-1.700499773E0,2.150515556E0,-3.598670483E0
1.867696137E1,-1.548189878E0,1.955588341E0,-4.027722359E0
1.869362731E1,-1.599272490E0,1.800253153E0,-4.093095303E0
1.871029324E1,-1.627150536E0,1.653534651E0,-3.539538860E0
1.872695918E1,-1.612523794E0,1.460639834E0,-2.452329636E0
1.874362512E1,-1.389709115E0,1.094821572E0,-1.135995865E0
1.876029106E1,-9.820964336E-1,5.646284819E-1,-4.440975189E-2
1.877695699E1,-4.553213120E-1,7.685530186E-2,6.069660187E-1
1.879362293E1,-2.883982658E-2,-7.738018036E-2,1.219066620E0
1.881028887E1,6.217980385E-2,1.204328537E-1,2.300291061E0
1.882695481E1,1.083421707E-1,2.062660456E-1,3.772623062E0
1.884362074E1,2.673301697E-1,-4.042351246E-2,4.644999504E0
1.886028668E1,3.672368526E-1,-3.446201682E-1,4.220044136E0
1.887695262E1,4.401834011E-1,-4.211049080E-1,3.097506523E0
1.889361856E1,2.280867100E-1,-2.019605041E-1,1.876464844E0
1.891028449E1,-1.318643093E-1,2.559660673E-1,9.099206924E-1
1.892695043E1,-3.978438377E-1,6.656911969E-1,2.993707657E-1
1.894361637E1,-5.777500868E-1,4.838744998E-1,1.219987869E-1
1.896028231E1,-6.689709425E-1,-6.315046549E-2,2.091846466E-1
1.897694824E1,-7.312343121E-1,-3.936448097E-1,-2.985410690E-1
1.899361418E1,-6.004935503E-1,-2.981778979E-1,-1.252877235E0
1.901028012E1,-4.722930193E-1,2.436203361E-1,-1.981774807E0
1.902694606E1,-3.312002420E-1,7.880601883E-1,-2.179211140E0
1.904361199E1,-2.560625076E-1,1.055548191E0,-1.655738831E0
1.906027793E1,-4.384338856E-1,9.226818681E-1,-5.612592697E-1
1.907694387E1,-7.934585810E-1,7.611337304E-1,2.459907532E-1
1.909360981E1,-1.208365083E0,6.939572692E-1,3.929586411E-1
1.911027574E1,-1.455614567E0,8.473560214E-1,6.208324432E-2
1.912694168E1,-1.412488341E0,1.154445529E0,-2.989740372E-1
1.914360762E1,-1.255568624E0,1.466938972E0,-5.161628723E-1
1.916027356E1,-1.233700156E0,1.402863741E0,-2.437219620E-1
1.917693949E1,-1.471831679E0,9.617575407E-1,6.463336945E-1
1.919360543E1,-1.813402772E0,5.921416879E-1,1.030903816E0
1.921027137E1,-2.140134573E0,4.637791514E-1,7.104921341E-1
1.922693731E1,-2.175086498E0,6.642875671E-1,-1.564025879E-2
1.924360324E1,-1.921434402E0,1.061537981E0,-7.549104691E-1
1.926026918E1,-1.668316126E0,1.337648153E0,-1.285425186E0
1.927693512E1,-1.657370925E0,1.341892958E0,-1.336572647E0
1.929360106E1,-1.800775409E0,9.112079740E-1,-5.626907349E-1
1.931026699E1,-2.014306545E0,3.582505584E-1,5.064001083E-1
1.932693293E1,-2.134406090E0,-6.071960926E-2,1.210277557E0
1.934359887E1,-1.823038697E0,-3.701441884E-1,1.477036476E0
1.936026481E1,-1.332197428E0,-4.249106050E-1,1.609708786E0
1.937693074E1,-7.992599010E-1,-4.745997787E-1,1.732824326E0
1.939359668E1,-4.721865654E-1,-6.981468797E-1,1.825826645E0
1.941026262E1,-2.665026188E-1,-1.048412323E0,1.997943878E0
1.942692856E1,-1.762785912E-1,-1.398452520E0,1.998929024E0
1.944359449E1,-2.588534355E-1,-1.447001338E0,1.757294655E0
1.946026043E1,-3.949010372E-1,-1.292793036E0,1.329087257E0
1.947692637E1,-4.364705086E-1,-1.130319118E0,8.843688965E-1
1.949359231E1,-2.581019402E-1,-9.894493818E-1,4.319047928E-1
1.951025824E1,-1.741845608E-1,-8.158435822E-1,3.038024902E-1
1.952692418E1,-2.052571774E-1,-5.471918583E-1,6.668186188E-1
1.954359012E1,-4.497239590E-1,-7.373332977E-2,7.278528214E-1
1.956025606E1,-7.501122952E-1,3.254388571E-1,5.789699554E-1
1.957692199E1,-1.122377157E0,7.917549610E-1,3.378400803E-1
1.959358793E1,-1.266448975E0,1.062921405E0,6.933307648E-2
1.961025387E1,-9.427764416E-1,1.154511571E0,-2.249946594E-1
1.962691981E1,-4.849820137E-1,1.019912481E0,-5.739803314E-1
1.964358574E1,-3.408699036E-1,9.329459667E-1,-6.816358566E-1
1.966025168E1,-4.127898216E-1,6.409468651E-1,-5.837230682E-1
1.967691762E1,-3.818926811E-1,1.453441381E-1,-3.083200455E-1
1.969358356E1,-2.030873299E-1,-2.285850048E-1,4.331207275E-2
1.971024949E1,-1.138114929E-2,-4.168421030E-1,3.254489899E-1
1.972691543E1,8.151531219E-2,-5.574018955E-1,3.877992630E-1
1.974358137E1,-1.955499649E-1,-7.142496109E-1,4.927816391E-1
1.976024731E1,-6.967890263E-1,-8.824268579E-1,6.526851654E-1
1.977691324E1,-1.170615435E0,-9.222389460E-1,5.225772858E-1
1.979357918E1,-1.409513712E0,-8.722949028E-1,2.085990906E-1
1.981024512E1,-1.245643139E0,-7.359212637E-1,-1.905984879E-1
1.982691106E1,-1.063760519E0,-3.777065277E-1,-1.027064323E0
1.984357699E1,-1.108312845E0,1.412630081E-2,-2.033955097E0
1.986024293E1,-8.497700691E-1,-7.795269489E-1,-1.437218189E0
1.987690887E1,-4.657728672E-1,-1.707842946E0,-1.010160446E0
1.989357481E1,-3.831367493E-1,-1.733459353E0,-1.804965496E0
1.991024074E1,-4.952476025E-1,-1.413307428E0,-2.010823727E0
1.992690668E1,-7.942322493E-1,-1.483292580E0,-2.001230240E0
1.994357262E1,-8.070997000E-1,-2.064464808E0,-9.087200165E-1
1.996023856E1,-5.204365253E-1,-2.993353367E0,3.126497269E-1
1.997690449E1,-1.101915240E0,-3.508572340E0,1.490287781E-1
1.999357043E1,-2.191127300E0,-3.470427752E0,-3.662014008E-2
2.001023637E1,-2.402994633E0,-2.707103491E0,-3.501739502E-1
2.002690231E1,-1.845209599E0,-2.448951006E0,-1.932558537E0
2.004356824E1,-6.722999811E-1,-2.739434481E0,-7.212476730E-1
2.006023418E1,5.735964775E-1,-2.071716547E0,-2.408523560E-1
2.007690012E1,1.257721901E0,-1.461330414E0,-8.158493042E-2
2.009356606E1,1.064089775E0,-1.482756019E0,1.543045044E-3
2.011023199E1,5.068764687E-1,-1.555956125E0,3.494052887E-1
2.012689793E1,1.105003357E-1,-1.508155465E0,1.156348228E0
2.014356387E1,1.013386250E-1,-1.464294910E0,1.978467941E0
2.016022981E1,4.709169865E-1,-1.254944205E0,1.699393272E0
2.017689574E1,1.076434135E0,-9.577758312E-1,8.335638046E-1
2.019356168E1,1.571949482E0,-5.576295853E-1,7.073307037E-2
2.021022762E1,8.780122995E-1,1.717841625E-1,-9.322166443E-3
2.022689356E1,-3.924952745E-1,5.061769485E-1,9.954357147E-2
2.024355949E1,-7.050758600E-1,-4.409790039E-1,1.002680779E0
2.026022543E1,-5.722101927E-1,-1.128116488E0,1.731188774E0
2.027689137E1,-2.981296778E-1,-8.337731361E-1,1.570643425E0
2.029355731E1,5.958807468E-2,-7.419714928E-1,1.166000366E0
2.031022324E1,6.457936764E-2,-7.618718147E-1,4.405326843E-1
2.032688918E1,-1.907739639E-1,-5.875575542E-1,-1.328821182E-1
2.034355512E1,-3.432174921E-1,-5.116269588E-1,-3.706188202E-1
2.036022106E1,-3.213403225E-1,-5.738291740E-1,-3.682975769E-1
2.037688699E1,-4.761693478E-1,-6.394300461E-1,-2.916851044E-1
2.039355293E1,-7.805976272E-1,-5.726480484E-1,-1.388912201E-1
2.041021887E1,-9.089918733E-1,-4.420993328E-1,-2.363405228E-1
2.042688481E1,-7.767932415E-1,-5.572400093E-1,-8.993558884E-1
2.044355074E1,-2.611874342E-1,-8.647295237E-1,-1.000083923E0
2.046021668E1,2.497048378E-1,-1.189323068E0,-3.680162430E-1
2.047688262E1,5.051561594E-1,-1.658381581E0,4.990577698E-1
2.049354856E1,5.905543566E-1,-2.210760117E0,1.219750404E0
2.051021449E1,5.790500641E-1,-2.573923588E0,1.556250572E0
2.052688043E1,5.208791494E-1,-2.390861988E0,1.250346184E0
2.054354637E1,4.033097029E-1,-1.780281901E0,2.206344604E-1
2.056021231E1,5.100862980E-1,-1.379659891E0,-7.704992294E-1
2.057687824E1,6.609930992E-1,-1.377623081E0,-1.235857010E0
2.059354418E1,4.237194061E-1,-1.240303874E0,-9.356422424E-1
2.061021012E1,2.961504459E-2,-6.520481110E-1,-1.482162476E-1
2.062687606E1,-1.504107714E-1,-3.038749695E-1,7.074890137E-1
2.064354199E1,4.126644135E-2,-3.934473991E-1,9.949254990E-1
2.066020793E1,7.251358032E-2,-5.864127874E-1,7.386007309E-1
2.067687387E1,-1.891478300E-1,-5.677673817E-1,1.803798676E-1
2.069353981E1,-4.055579901E-1,-5.671918392E-1,-3.578824997E-1
2.071020574E1,-6.266809702E-1,-7.402889729E-1,-3.465433121E-1
2.072687168E1,-8.875220418E-1,-9.669089317E-1,5.204010010E-2
2.074353762E1,-1.000750184E0,-1.045943856E0,5.490083694E-1
2.076020356E1,-1.040727019E0,-5.839650631E-1,5.096597672E-1
2.077686949E1,-8.602839112E-1,-3.905473948E-1,-3.144235611E-1
2.079353543E1,-6.436662078E-1,-5.173937082E-1,-1.027281761E0
2.081020137E1,-6.607457995E-1,-1.652076244E-1,-1.283045769E0
2.082686731E1,-6.240263581E-1,1.547688246E-1,-1.152564049E0
2.084353324E1,-4.500929117E-1,1.077454090E-1,-8.318052292E-1
2.086019918E1,-3.811640739E-1,1.397490501E-1,-4.566555023E-1
2.087686512E1,-5.503171682E-1,2.450237274E-1,-1.636352539E-1
2.089353106E1,-4.027005434E-1,-2.148356438E-1,2.007865906E-1
2.091019699E1,3.468205929E-1,-1.422561526E0,1.432741165E0
2.092686293E1,-4.660964012E-1,-5.729197264E-1,2.948409081E0
2.094352887E1,-8.269950151E-1,-7.853960991E-2,2.259428978E0
2.096019481E1,5.169155598E-1,-4.444804192E-1,5.922174454E-1
2.097686074E1,1.240399957E0,-6.431245804E-2,-5.831975937E-1
2.099352668E1,1.007316232E0,6.029400826E-1,-3.548917770E-1
2.101019262E1,-2.166452408E-1,4.312140942E-1,-3.752851486E-1
2.102685856E1,-5.076373816E-1,5.993890762E-2,-3.743352890E-1
2.104352449E1,-5.778518915E-1,1.767754555E-2,-2.881050110E-1
2.106019043E1,-9.222402573E-1,1.801514626E-2,-4.007349014E-1
2.107685637E1,-9.715351462E-1,-3.242850304E-2,-9.361076355E-2
2.109352231E1,-1.008535743E0,2.208020687E-1,3.964700699E-1
2.111018824E1,-1.285319805E0,6.377158165E-1,9.843835831E-1
2.112685418E1,-1.617814779E0,7.636144161E-1,1.247530937E0
2.114352012E1,-1.548271656E0,9.453561306E-1,1.404385567E0
2.116018606E1,-1.538378119E0,1.692758083E0,1.505599976E0
2.117685199E1,-1.714871168E0,2.041820526E0,1.653377533E0
2.119351793E1,-1.422544122E0,1.765031338E0,1.514614105E0
2.121018387E1,-1.281429410E0,1.229574442E0,9.092369080E-1
2.122684981E1,-1.301298380E0,4.751560688E-1,5.874633789E-4
2.124351574E1,-1.587542653E0,-1.191513538E-1,-8.979911804E-1
2.126018168E1,-2.064124584E0,-2.078285217E-1,-1.701959610E0
2.127684762E1,-2.639420033E0,2.609608173E-1,-1.931443691E0
2.129351356E1,-2.324774027E0,5.851583481E-1,-1.485436440E0
2.131017949E1,-1.452743530E0,8.308343887E-1,-1.156370163E0
2.132684543E1,-9.092406034E-1,5.808659792E-1,-1.454457760E0
2.134351137E1,-5.740749836E-1,2.329006195E-1,-2.499382496E0
2.136017731E1,-8.446958065E-1,2.370799780E-1,-4.056801319E0
2.137684324E1,-1.648878574E0,4.781503677E-1,-4.506169319E0
2.139350843E1,-2.239076614E0,2.839825153E-1,-2.748046875E0
2.141017437E1,-2.085239887E0,-1.520026922E-1,3.217267990E-1
2.142684031E1,-1.613141656E0,1.288676262E-2,1.506245613E0
2.144350624E1,-1.030433893E0,8.965984583E-1,-2.120561600E-1
2.146017218E1,-5.265889168E-1,1.635504007E0,-1.653329372E0
2.147683812E1,5.072522163E-2,1.560880542E0,-1.686858654E0
2.149350406E1,7.250876427E-1,7.042883635E-1,-7.289371490E-1
2.151016999E1,1.073873043E0,-1.464754343E-1,3.449220657E-1
2.152683593E1,5.689642429E-1,-2.147713900E-1,1.516056061E-2
2.154350187E1,1.517069340E-1,1.024689674E-1,-7.736186981E-1
2.156016781E1,2.256731987E-1,1.130481958E-1,-1.621618271E-1
2.157683374E1,6.949484348E-1,-3.031393290E-1,1.431249619E0
2.159349968E1,1.059740305E0,-5.218701363E-1,2.079982758E0
2.161016562E1,9.772574902E-1,-3.300514221E-1,1.440171242E0
2.162683156E1,7.611703873E-1,-1.169521809E-1,4.591608047E-1
2.164349749E1,7.888190746E-1,-2.761268616E-1,-3.862380981E-1
2.166016343E1,8.445212841E-1,-8.366731405E-1,-4.884662628E-1
2.167682937E1,4.593305588E-1,-1.113495111E0,1.936998367E-1
2.169349531E1,5.018353462E-2,-9.716140032E-1,5.378808975E-1
2.171016124E1,-9.787321091E-2,-4.476249218E-1,5.681686401E-1
2.172682718E1,1.248834133E-1,2.838349342E-2,6.987304688E-1
2.174349312E1,1.540534496E-1,1.252646446E-1,8.227462769E-1
2.176015906E1,1.504385471E-1,3.369426727E-2,6.914873123E-1
2.177682499E1,3.866102695E-1,-2.757465839E-1,4.441852570E-1
2.179349093E1,1.623816490E-1,-4.567267895E-1,2.387380600E-1
2.181015687E1,-3.117983341E-1,-4.129207134E-1,2.352342606E-1
2.182682281E1,-5.026459694E-1,-6.682658195E-2,1.210308075E-1
2.184348874E1,-2.893114090E-1,2.684278488E-1,2.662706375E-1
2.186015468E1,-1.523213387E-1,1.123549938E-1,-1.210184097E-1
2.187682062E1,-3.249619007E-1,-2.059161663E-1,1.538438797E-1
2.189348656E1,-4.422533512E-1,-2.538836002E-1,2.516613007E-1
2.191015249E1,-3.800354004E-1,-4.127502441E-2,5.555925369E-1
