"Time (s)","Acceleration x (m/s^2)","Acceleration y (m/s^2)","Acceleration z (m/s^2)"
7.559482000E-3,-2.173281193E0,3.486940861E0,8.554341316E0
2.422542000E-2,-1.766800404E0,3.084647417E0,9.356235504E0
4.089135700E-2,-1.366301775E0,2.896212816E0,9.777372360E0
5.755729500E-2,-1.465902925E0,2.988336325E0,9.558130264E0
7.422323200E-2,-1.575075507E0,3.192025423E0,9.530313492E0
9.088917000E-2,-1.688435435E0,3.324527979E0,9.685847282E0
1.075551070E-1,-1.737189293E0,3.502494097E0,9.629615784E0
1.242210450E-1,-1.698904037E0,3.597608805E0,9.636494637E0
1.408869820E-1,-1.628016710E0,3.515654564E0,9.683454514E0
1.575529200E-1,-1.608275890E0,3.557229996E0,1.005404282E1
1.742188570E-1,-1.566700578E0,3.532105207E0,1.015184879E1
1.908847950E-1,-1.876571178E0,3.654737473E0,1.056730270E1
2.075507320E-1,-2.244467735E0,3.502494097E0,1.079491997E1
2.242166700E-1,-2.033001900E0,3.294019461E0,1.081735325E1
2.408826070E-1,-2.148156643E0,3.647259951E0,1.072283649E1
2.575485450E-1,-2.312962294E0,3.661916018E0,1.008664513E1
2.742144820E-1,-2.144567251E0,2.656033039E0,9.801898956E0
2.908804200E-1,-2.366501570E0,2.523829699E0,9.425627708E0
3.075463570E-1,-2.490330219E0,2.877369165E0,9.340981483E0
3.242122950E-1,-2.235793591E0,2.967698336E0,9.493523598E0
3.408782320E-1,-1.645962834E0,2.854338408E0,8.998209953E0
3.575441700E-1,-1.965105534E-1,2.814856768E0,7.810173035E0
3.742101070E-1,2.219343036E-1,2.040778637E0,6.939484596E0
3.908760450E-1,5.955137610E-1,6.071787477E-1,8.327919960E0
4.075419820E-1,1.794617064E-2,1.341476202E0,8.714659691E0
4.242079200E-1,7.118647546E-2,1.750349760E0,8.809475899E0
4.408738570E-1,9.870393202E-3,1.035793066E0,8.713164330E0
4.575397950E-1,5.593222752E-2,-8.129615188E-1,9.531210899E0
4.742057320E-1,7.432705164E-1,-9.158528447E-1,1.009262657E1
4.908716700E-1,7.995018363E-1,5.012963414E-1,1.008724308E1
5.075376070E-1,4.079762697E-1,4.857429862E-1,9.707382202E0
5.242035450E-1,1.660020649E-1,5.943173170E-1,1.156032467E1
5.408694820E-1,-3.218346536E-1,7.004988194E-1,1.143799114E1
5.575354200E-1,-4.316053987E-1,9.182456732E-1,1.077308559E1
5.742013570E-1,-5.850451589E-1,1.060020447E0,1.015992451E1
5.908672950E-1,1.488634825E0,-7.208377868E-2,1.026401234E1
6.075332320E-1,7.992027402E-1,9.164510965E-1,1.107876873E1
6.241991700E-1,4.157529399E-2,1.604686737E0,1.051286602E1
6.408651070E-1,1.980060786E-1,1.447956800E0,1.103958607E1
6.575310450E-1,3.550350666E-1,4.905286431E-1,1.113769245E1
6.741969820E-1,-7.268198580E-2,7.507480979E-1,1.093579769E1
6.908629200E-1,-4.342973232E-1,1.055234790E0,1.088584709E1
7.075288570E-1,-6.230311990E-1,1.007677436E0,1.077278709E1
7.241947950E-1,-5.446662307E-1,9.945169091E-1,1.012881851E1
7.408607320E-1,-7.537391037E-2,1.114158034E0,9.283254623E0
7.575266700E-1,2.219343036E-1,1.034596682E0,9.026624680E0
7.741926070E-1,-8.973084623E-4,1.016650558E0,8.850452423E0
7.908585450E-1,-2.527419031E-1,1.107577801E0,8.962615967E0
8.075244820E-1,6.879365072E-3,1.199701428E0,8.768498421E0
8.241904200E-1,1.375873089E-1,1.419242978E0,8.773283958E0
8.408563570E-1,2.386840582E-1,1.738983870E0,8.591729164E0
8.575222950E-1,1.926222295E-1,1.936989903E0,8.499305725E0
8.741882320E-1,1.408774406E-1,2.026720762E0,8.799605370E0
8.908541700E-1,1.803590059E-1,2.154138565E0,9.030213356E0
9.075201070E-1,1.492523104E-1,2.176870346E0,8.942576408E0
9.241860450E-1,8.763712645E-2,2.110170364E0,9.055337906E0
9.408519820E-1,1.486541033E-1,2.132304192E0,8.931509972E0
9.575179200E-1,2.024926096E-1,2.149652004E0,8.979664803E0
9.741838570E-1,3.059822023E-1,2.107478619E0,9.277272224E0
9.908497950E-1,4.307080805E-1,2.070688963E0,9.471689224E0
1.007515732E0,4.450650215E-1,2.109273195E0,9.698409081E0
1.024181670E0,2.856431901E-1,2.107777596E0,9.966405869E0
1.040847607E0,2.383849621E-1,2.196312189E0,9.836296082E0
1.057513545E0,3.239283562E-1,2.349153519E0,9.761220932E0
1.074179482E0,4.103690982E-1,2.334796667E0,9.797113419E0
1.090845420E0,4.770690203E-1,2.389532566E0,9.511171341E0
1.107511357E0,4.740779996E-1,2.537289381E0,9.292527199E0
1.124177295E0,5.273182988E-1,2.514258385E0,9.546165466E0
1.140843232E0,6.442674994E-1,2.476571321E0,9.683155060E0
1.157509170E0,6.780661345E-1,2.454736948E0,9.908977509E0
1.174175107E0,5.626124144E-1,2.397608280E0,1.038873863E1
1.190841045E0,6.616154313E-1,2.235494614E0,1.069053364E1
1.207506982E0,9.110672474E-1,2.231606245E0,1.049940681E1
1.224172920E0,9.508479238E-1,2.324926376E0,1.017846966E1
1.240838857E0,8.584251404E-1,2.459522486E0,9.919445992E0
1.257504795E0,7.615157962E-1,2.613560438E0,9.781859398E0
1.274170732E0,8.312067389E-1,2.671287298E0,9.748658180E0
1.290836670E0,8.904291391E-1,2.691028118E0,9.711869240E0
1.307502607E0,9.080761671E-1,2.762513638E0,9.690632820E0
1.324168545E0,8.620143533E-1,2.775375128E0,9.661320686E0
1.340834482E0,7.785646915E-1,2.817847729E0,9.599705696E0
1.357500420E0,7.818548083E-1,2.886342287E0,9.452845573E0
1.374166357E0,8.105686903E-1,2.930310488E0,9.352047920E0
1.390832295E0,6.562315822E-1,2.908475876E0,9.359825134E0
1.407498232E0,5.757729411E-1,2.936292410E0,9.282656670E0
1.424164170E0,5.724828243E-1,3.029911757E0,9.271589279E0
1.440830107E0,5.333003402E-1,3.082553864E0,9.150752068E0
1.457496045E0,4.767699242E-1,3.136990547E0,9.396315575E0
1.474161982E0,5.712863803E-1,3.009871721E0,9.665806770E0
1.490827920E0,4.160520434E-1,2.747259617E0,1.002532864E1
1.507493857E0,3.299104273E-1,2.752344131E0,9.869794846E0
1.524159795E0,3.556332588E-1,2.943171740E0,9.540781975E0
1.540825732E0,5.380859971E-1,3.026322365E0,9.437591553E0
1.557491670E0,6.625127792E-1,2.993720293E0,9.396614075E0
1.574157607E0,8.087740541E-1,2.877967358E0,9.522237778E0
1.590823545E0,7.208378315E-1,2.818445921E0,9.176176071E0
1.607489482E0,3.233301640E-1,3.241078377E0,9.256035805E0
1.624155420E0,4.067798555E-1,3.158525944E0,9.448657990E0
1.640821357E0,5.838487148E-1,3.054737091E0,9.348459244E0
1.657487295E0,4.758726060E-1,3.205784082E0,9.188439369E0
1.674153232E0,4.130610228E-1,3.317947626E0,8.918947220E0
1.690819170E0,4.013960063E-1,3.332902908E0,8.775078773E0
1.707485107E0,2.662015259E-1,3.346661568E0,8.609375954E0
1.724151045E0,1.058823988E-1,3.378366470E0,8.685049057E0
1.740816982E0,4.636093974E-2,3.388535976E0,8.940483093E0
1.757482920E0,5.593222752E-2,3.314059258E0,9.260223389E0
1.774148857E0,1.555334777E-1,3.191726208E0,9.379565239E0
1.790814795E0,2.620140910E-1,3.178864956E0,9.254839897E0
1.807480732E0,2.045863420E-1,3.184248686E0,9.099605560E0
1.824146670E0,2.919243574E-1,3.152842999E0,9.156734467E0
1.840812607E0,1.001994461E-1,3.104986429E0,9.282357216E0
1.857478545E0,-2.030908167E-1,3.148057222E0,9.495617867E0
1.874144482E0,-1.896311939E-1,3.131307602E0,9.805189133E0
1.890810420E0,-9.571290761E-2,3.031108141E0,9.802198410E0
1.907476357E0,-2.431706041E-1,3.104687452E0,9.616155624E0
1.924142295E0,-1.926222295E-1,3.204587698E0,9.612865448E0
1.940808232E0,-3.888336709E-3,3.284149170E0,9.582357407E0
1.957474170E0,8.105687052E-2,3.311367512E0,9.495916367E0
1.974140107E0,9.212367237E-2,3.404687405E0,9.536594391E0
1.990806045E0,2.327020019E-1,3.430111170E0,9.657731056E0
2.007471982E0,3.308077157E-1,3.392723322E0,9.693922997E0
2.024137920E0,2.431706041E-1,3.355036497E0,9.473484039E0
2.040803857E0,6.071787328E-2,3.343969584E0,9.238986969E0
2.057469795E0,-3.918246925E-2,3.379263878E0,9.068798065E0
2.074135732E0,2.841476910E-2,3.424428225E0,8.941379547E0
2.090801670E0,2.042872310E-1,3.536591768E0,8.787342072E0
2.107467607E0,3.128615618E-1,3.671786308E0,8.782257080E0
2.124133545E0,2.787638307E-1,3.687937975E0,9.052945137E0
2.140799482E0,9.960123897E-2,3.661317825E0,9.307781219E0
2.157465420E0,-3.409772366E-2,3.688536167E0,9.341579437E0
2.174131357E0,-9.421738982E-2,3.773780346E0,9.247661591E0
2.190797295E0,-6.879365444E-2,3.823730469E0,9.193523407E0
2.207463232E0,1.028913707E-1,3.826721668E0,9.274879456E0
2.224129170E0,1.495514214E-1,3.749552965E0,9.443274498E0
2.240795107E0,4.815555736E-2,3.704089403E0,9.514760017E0
2.257461045E0,-5.264209956E-2,3.739383698E0,9.577571869E0
2.274126982E0,-1.698904037E-1,3.706781387E0,9.556933403E0
2.290792920E0,-2.261217386E-1,3.726222992E0,9.555438042E0
2.307458857E0,-9.720841795E-2,3.698107481E0,9.627820969E0
2.324124795E0,-1.764706708E-2,3.690330744E0,9.588040352E0
2.340790732E0,-2.542374097E-2,3.677768469E0,9.447761536E0
2.357456670E0,-3.649054468E-2,3.689732552E0,9.467501640E0
2.374122607E0,-8.943174779E-2,3.655634880E0,9.468997002E0
2.390788545E0,-6.370890141E-2,3.706183195E0,9.422337532E0
2.407454482E0,2.991028363E-3,3.725624800E0,9.356235504E0
2.424120420E0,-6.580262445E-3,3.735794306E0,9.276076317E0
2.440786357E0,-2.691925503E-2,3.727419376E0,9.169894218E0
2.457452295E0,-4.905286431E-2,3.724428415E0,9.136395454E0
2.474118232E0,-3.678964823E-2,3.724727631E0,9.122337341E0
2.490784170E0,-6.909275055E-2,3.739981890E0,9.122636795E0
2.507450107E0,-2.961117961E-2,3.751347780E0,9.156135559E0
2.524116045E0,-4.546362907E-2,3.757927895E0,9.169296265E0
2.540781982E0,2.512463741E-2,3.749253988E0,9.132506371E0
2.557447920E0,-7.357929647E-2,3.764209032E0,9.098110199E0
2.574113857E0,-1.112662554E-1,3.789034605E0,9.136693954E0
2.590779795E0,-6.729813665E-2,3.823730469E0,9.092127800E0
2.607445732E0,-8.913264424E-2,3.888635874E0,9.010173798E0
2.624111670E0,-2.691925503E-2,3.845565081E0,8.994022369E0
2.640777607E0,-3.409772366E-2,3.812364578E0,9.073583603E0
2.657443545E0,-1.037886813E-1,3.786342621E0,9.045766830E0
2.674109482E0,-2.000997961E-1,3.754637718E0,9.022735596E0
2.690775420E0,-2.300100774E-1,3.718745470E0,8.960522652E0
2.707441357E0,-2.473580390E-1,3.684348583E0,8.826524734E0
2.724107295E0,-2.850449979E-1,3.675674677E0,8.837890625E0
2.740773232E0,-2.850449979E-1,3.610769272E0,8.964710236E0
2.757439170E0,-3.711866140E-1,3.560220957E0,9.015258789E0
2.774105107E0,-4.489533603E-1,3.537788391E0,9.004789352E0
2.790771045E0,-4.510470629E-1,3.563810110E0,8.916853905E0
2.807436982E0,-5.030909777E-1,3.631108284E0,8.821439743E0
2.824102920E0,-4.986044168E-1,3.647858143E0,8.749654770E0
2.840768857E0,-4.007977843E-1,3.619742393E0,8.682954788E0
2.857434795E0,-4.468596280E-1,3.624827147E0,8.801998138E0
2.874100732E0,-5.066801906E-1,3.529114246E0,9.071788788E0
2.890766670E0,-5.524429083E-1,3.444169044E0,9.248558998E0
2.907432607E0,-5.228317380E-1,3.380161047E0,9.311369896E0
2.924098545E0,-3.726821244E-1,3.472882986E0,9.304789543E0
2.940764482E0,-4.435695112E-1,3.539881945E0,9.147162437E0
2.957430420E0,-4.375874400E-1,3.499802113E0,9.172286987E0
2.974096357E0,-5.132604837E-1,3.424428225E0,9.494720459E0
2.990762295E0,-5.575276613E-1,3.289233923E0,9.750452995E0
3.007428232E0,-5.431707501E-1,3.337987661E0,9.704689980E0
3.024094170E0,-2.895315289E-1,3.385545015E0,9.331708908E0
3.040760107E0,-9.601201117E-2,3.534498215E0,8.945268631E0
3.057426045E0,-8.404789865E-2,3.631407499E0,8.778668404E0
3.074091982E0,-6.340979785E-2,3.472284794E0,8.696115494E0
3.090757920E0,9.870393202E-3,3.447160006E0,8.794819832E0
3.107423857E0,-1.265204996E-1,3.288635731E0,9.021240234E0
3.124089795E0,-2.530409992E-1,3.193521023E0,9.341878891E0
3.140755732E0,-5.324030295E-2,3.170190811E0,9.401101112E0
3.157421670E0,2.063809484E-1,3.295814037E0,9.171390533E0
3.174087607E0,2.958126962E-1,3.481257915E0,8.750552177E0
3.190753545E0,1.704886109E-1,3.673880100E0,8.430512428E0
3.207419482E0,1.453639716E-1,3.785744429E0,8.424829483E0
3.224085420E0,1.785643846E-1,3.776472330E0,8.818449020E0
3.240751357E0,1.322034448E-1,3.802494287E0,9.102895737E0
3.257417295E0,-1.256231871E-2,3.862913132E0,9.229715347E0
3.274083232E0,-1.196411345E-2,3.954139471E0,8.999405861E0
3.290749170E0,4.456632212E-2,4.045365810E0,8.819046974E0
3.307415107E0,6.071787328E-2,4.126422882E0,8.725129128E0
3.324081045E0,-2.063809521E-2,4.138685703E0,8.903393745E0
3.340746982E0,-1.178465188E-1,4.089931965E0,9.192625999E0
3.357412920E0,-2.572284266E-2,4.051048756E0,9.243474007E0
3.374078857E0,1.782652885E-1,4.043570995E0,9.210572243E0
3.390744795E0,2.641077936E-1,4.182354927E0,9.362217903E0
3.407410732E0,3.669991791E-1,4.136891365E0,9.768099785E0
3.424076670E0,3.475574851E-1,4.072584152E0,1.011565781E1
3.440742607E0,2.871387303E-1,4.058526516E0,9.936494827E0
3.457408545E0,2.294118702E-1,4.130012035E0,9.576076508E0
3.474074482E0,2.706880569E-1,4.257728577E0,9.193822861E0
3.490740420E0,3.409772217E-1,4.386941433E0,9.150452614E0
3.507406357E0,5.392823815E-1,4.255934238E0,9.267103195E0
3.524072295E0,7.561319470E-1,4.024129391E0,9.483952522E0
3.540738232E0,8.075776696E-1,3.901497364E0,9.637093544E0
3.557404170E0,7.265207767E-1,3.870390654E0,9.467801094E0
3.574070107E0,6.547361016E-1,3.922733545E0,9.236295700E0
3.590736045E0,8.006982803E-1,3.924229145E0,9.173483849E0
3.607401982E0,9.538389444E-1,3.924229145E0,9.194420815E0
3.624067920E0,1.074676514E0,3.828815222E0,9.238986969E0
3.640733857E0,9.436694384E-1,3.648157120E0,9.283254623E0
3.657399795E0,8.087740541E-1,3.478266716E0,9.459425926E0
3.674065732E0,7.112665176E-1,3.396013498E0,9.578767776E0
3.690731670E0,5.715855360E-1,3.388834953E0,9.394221306E0
3.707397607E0,3.912265003E-1,3.492324591E0,9.233603477E0
3.724063545E0,3.421736360E-1,3.489931822E0,9.201300621E0
3.740729482E0,1.935195327E-1,3.483052492E0,9.097810745E0
3.757395420E0,5.922235921E-2,3.543471336E0,8.951848984E0
3.774061357E0,1.034895778E-1,3.641277790E0,8.966803551E0
3.790727295E0,1.208375469E-1,3.667897940E0,8.894720078E0
3.807393232E0,8.763712645E-2,3.709174156E0,8.879764557E0
3.824059170E0,2.931207791E-2,3.732803345E0,9.046664238E0
3.840725107E0,8.793623000E-2,3.763012648E0,9.161520004E0
3.857391045E0,2.276172489E-1,3.837788343E0,9.154042244E0
3.874056982E0,3.840480447E-1,3.902992725E0,9.122337341E0
3.890722920E0,4.049852192E-1,3.902095556E0,9.141180992E0
3.907388857E0,3.221337497E-1,3.855136395E0,9.130413055E0
3.924054795E0,2.297109663E-1,3.894019842E0,9.183952332E0
3.940720732E0,4.061816335E-1,3.944867134E0,9.119346619E0
3.957386670E0,5.572285652E-1,3.995714664E0,8.999106407E0
3.974052607E0,6.086742878E-1,4.033102512E0,8.891429901E0
3.990718545E0,6.451647878E-1,4.150351048E0,8.862715721E0
4.007384482E0,7.429714203E-1,4.161716938E0,8.931808472E0
4.024050420E0,8.126623631E-1,4.175774574E0,8.962915421E0
4.040716357E0,7.369893789E-1,4.189832687E0,8.930013657E0
4.057382295E0,6.442674994E-1,4.215854168E0,8.890831947E0
4.074048232E0,6.649056077E-1,4.268496513E0,8.764909744E0
4.090714170E0,7.465606928E-1,4.281357765E0,8.731708527E0
4.107380107E0,8.676972985E-1,4.348057747E0,8.592327118E0
4.124046045E0,8.306085467E-1,4.310669899E0,8.625527382E0
4.140711982E0,7.339983582E-1,4.258028030E0,8.757730484E0
4.157377920E0,7.899305820E-1,4.190430641E0,8.992527008E0
4.174043857E0,7.878368497E-1,4.139583111E0,9.168398857E0
4.190709795E0,8.240283132E-1,4.057330132E0,9.328120232E0
4.207375732E0,8.877372146E-1,3.950550079E0,9.491728783E0
4.224041670E0,9.738788009E-1,3.924229145E0,9.727721214E0
4.240707607E0,1.080957651E0,3.823132277E0,9.730113983E0
4.257373545E0,1.075573802E0,3.867399693E0,9.478269577E0
4.274039482E0,9.936196208E-1,3.855435371E0,9.177371979E0
4.290705420E0,9.687940478E-1,3.867399693E0,9.040083885E0
4.307371357E0,8.949156404E-1,3.882354736E0,9.029017448E0
4.324037295E0,9.849455953E-1,3.881158352E0,9.180961609E0
4.340703232E0,1.242473125E0,3.860221148E0,9.304191589E0
4.357369170E0,1.242772222E0,3.834498405E0,9.243174553E0
4.374035107E0,1.153340459E0,3.801596880E0,9.192327499E0
4.390701045E0,1.195813060E0,3.810271025E0,9.246464729E0
4.407366982E0,1.320838094E0,3.840480328E0,9.318249702E0
4.424032920E0,1.380957723E0,3.793222189E0,9.214759827E0
4.440698857E0,1.347458243E0,3.791128397E0,9.264410973E0
4.457364795E0,1.307378531E0,3.678665638E0,9.610772133E0
4.474030732E0,1.063011408E0,3.560819149E0,9.635298729E0
4.490696670E0,8.273184299E-1,3.682853222E0,9.290732384E0
4.507362607E0,8.401798606E-1,3.816851139E0,9.018249512E0
4.524028545E0,7.322037220E-1,3.961018801E0,8.961120605E0
4.540694482E0,8.742775917E-1,3.893720627E0,9.069695473E0
4.557360420E0,1.130608678E0,3.796811342E0,9.297910690E0
4.574026357E0,1.338784218E0,3.795016766E0,9.436993599E0
4.590692295E0,1.415952802E0,3.717848301E0,9.197113037E0
4.607358232E0,1.301695466E0,3.766901016E0,8.701200485E0
4.624024170E0,1.355534077E0,3.765704632E0,8.427820206E0
4.640690107E0,1.335195065E0,3.821636915E0,8.241778374E0
4.657356045E0,1.402493119E0,3.795913935E0,8.330014229E0
4.674021982E0,1.379462242E0,3.693620920E0,8.411668777E0
4.690687920E0,1.299003601E0,3.677768469E0,8.318348885E0
4.707353857E0,1.220040441E0,3.750450373E0,8.059624672E0
4.724019795E0,1.121934772E0,3.802793503E0,7.775477409E0
4.740685732E0,1.077966571E0,3.857529163E0,7.726723194E0
4.757351670E0,1.077667475E0,3.800699711E0,7.823034763E0
4.774017607E0,1.019641519E0,3.795614958E0,7.913064480E0
4.790683545E0,1.159920812E0,3.736093521E0,8.024629593E0
4.807349482E0,1.389631748E0,3.680460215E0,8.035995483E0
4.824015420E0,1.512562990E0,3.681955814E0,7.903493404E0
4.840681357E0,1.636391640E0,3.616153240E0,7.793124199E0
4.857347295E0,1.688136339E0,3.506980658E0,7.696813107E0
4.874013232E0,1.816750646E0,3.348755360E0,7.541877747E0
4.890679170E0,1.901396751E0,3.329014540E0,7.358827114E0
4.907345107E0,1.980359793E0,3.273381472E0,7.013662338E0
4.924011045E0,1.913959026E0,3.306581736E0,6.610770702E0
4.940676982E0,1.801795483E0,3.398705482E0,6.269793510E0
4.957342920E0,1.678864241E0,3.478864908E0,6.014060497E0
4.974008857E0,1.625324726E0,3.652942896E0,5.887240887E0
4.990674795E0,1.517049551E0,3.907479286E0,5.880660534E0
5.007340732E0,1.589731574E0,4.107280254E0,6.281458378E0
5.024006670E0,1.879861236E0,4.173680782E0,6.918547630E0
5.040672607E0,2.105983019E0,4.246662140E0,7.614859104E0
5.057338545E0,2.286940336E0,4.448855400E0,8.163712502E0
5.074004482E0,2.564806700E0,4.856532574E0,8.700003624E0
5.090670420E0,2.832803011E0,5.258526802E0,9.258428574E0
5.107336357E0,2.938386202E0,5.696413517E0,9.560821533E0
5.124002295E0,2.918645382E0,6.233901024E0,9.123533249E0
5.140668232E0,2.576471806E0,6.745367050E0,8.640482903E0
5.157334170E0,1.866700768E0,7.158727169E0,8.317750931E0
5.174000107E0,6.077769399E-1,7.541578770E0,8.492426872E0
5.190666045E0,-4.232304990E-1,7.960322857E0,9.646365166E0
5.207331982E0,-1.022632599E0,8.124529839E0,1.118764210E1
5.223997920E0,-1.486840129E0,8.086244583E0,1.239781189E1
5.240663857E0,-1.766202211E0,8.669196129E0,1.258834076E1
5.257329795E0,-2.334497690E0,1.069681454E1,1.242802143E1
5.273995732E0,-1.829312921E0,1.286231899E1,1.330469227E1
5.290661670E0,-2.321037948E-1,1.412692547E1,1.459352589E1
5.307327607E0,1.431805253E0,1.461745453E1,1.665344810E1
5.323993545E0,2.540280342E0,1.474487209E1,1.866102600E1
5.340659482E0,1.547258973E0,1.422802258E1,2.155305099E1
5.357325420E0,1.016949639E-1,1.370549011E1,2.815365219E1
5.373991357E0,1.540977836E0,9.820742607E0,3.332514191E1
5.390657295E0,3.681656837E0,4.574478626E0,3.058087158E1
5.407323232E0,5.004887581E0,1.239781260E0,2.242074776E1
5.423989170E0,5.104488850E0,2.542374097E-2,1.386132240E1
5.440655107E0,5.111368179E0,-1.794617064E-2,6.638886452E0
5.457321045E0,4.201497555E0,1.725823283E-1,1.271486163E0
5.473986982E0,2.205883265E0,-1.148554832E-1,-8.676972985E-1
5.490652920E0,1.617548108E0,-1.360020518E0,-6.254240274E-1
5.507318857E0,1.520040631E0,-3.258725405E0,9.334999323E-1
5.523984795E0,1.732702732E0,-4.945366383E0,2.503789902E0
5.540650732E0,2.566003084E0,-6.102295876E0,2.359323025E0
5.557316670E0,3.272184849E0,-6.136393547E0,1.238584876E0
5.573982607E0,4.367499352E0,-5.463711262E0,-4.322035909E-1
5.590648545E0,5.036891460E0,-4.382454872E0,-1.799701691E0
5.607314482E0,5.773581982E0,-3.121437073E0,-1.591227055E0
5.623980420E0,6.741777897E0,-2.583351135E0,1.381855011E-1
5.640646357E0,8.429017067E0,-1.583749533E0,4.295714855E0
5.657312295E0,1.007438183E1,-6.367899179E-1,9.861121178E0
5.673978232E0,1.084786129E1,3.200400248E-2,1.473111343E1
5.690644170E0,1.103569794E1,1.490130305E0,1.708475304E1
5.707310107E0,9.789336205E0,5.132903576E0,1.696541214E1
5.723976045E0,7.607082367E0,9.782157898E0,1.889671898E1
5.740641982E0,8.167900085E0,1.039292622E1,2.516202545E1
5.757307920E0,8.286046028E0,9.997511864E0,2.717528725E1
5.773973857E0,7.316354275E0,9.946664810E0,2.156471634E1
5.790639795E0,5.374877930E0,1.046949673E1,1.394985676E1
5.807305732E0,3.783650875E0,1.014975548E1,8.834898949E0
5.823971670E0,3.068794966E0,8.636893272E0,6.178566933E0
5.840637607E0,2.278565407E0,6.482754707E0,4.336392879E0
5.857303545E0,1.423430324E0,4.741377831E0,2.152044773E0
5.873969482E0,-2.802593410E-1,4.232006073E0,1.090828061E0
5.890635420E0,-2.228017092E0,4.097409725E0,1.227218866E0
5.907301357E0,-3.934398651E0,4.313960075E0,1.813161373E0
5.923967295E0,-5.589633465E0,4.839483738E0,1.286740422E0
5.940633232E0,-7.200302601E0,5.987141132E0,5.045864582E-1
5.957299170E0,-7.399205685E0,7.101897717E0,2.341975123E-1
5.973965107E0,-6.042475224E0,8.308178902E0,1.491326690E0
5.990631045E0,-3.829712629E0,9.623633385E0,4.908277512E0
6.007296982E0,-7.109674215E-1,1.055085278E1,1.003609657E1
6.023962920E0,1.189232826E0,1.049013424E1,1.504636765E1
6.040628857E0,7.642077208E-1,9.897911072E0,1.952304077E1
6.057294795E0,1.098604679E0,1.005703354E1,1.979073715E1
6.073960732E0,2.429313183E0,1.067707348E1,1.973929214E1
6.090626670E0,4.711168766E0,9.745667458E0,2.078824425E1
6.107292607E0,6.724729061E0,7.029514790E0,2.164876366E1
6.123958545E0,7.165606499E0,4.048057556E0,1.960618973E1
6.140624482E0,5.927021503E0,1.604985833E0,1.447627831E1
6.157290420E0,3.626023531E0,-5.563312769E-2,9.847063065E0
6.173956357E0,2.328814745E0,-9.002995491E-1,6.701697826E0
6.190622295E0,2.254338026E0,-1.584646821E0,4.577768803E0
6.207288232E0,2.720639229E0,-2.673680305E0,2.752942562E0
6.223954170E0,3.120539904E0,-3.725325823E0,1.701596022E0
6.240620107E0,3.358625650E0,-4.112364769E0,1.623530149E0
6.257286045E0,4.195515633E0,-3.904189348E0,9.373882413E-1
6.273951982E0,5.303691387E0,-3.530011654E0,-1.158724308E0
6.290617920E0,5.553143024E0,-2.843271494E0,-3.096013308E0
6.307283857E0,5.037489891E0,-2.097309113E0,-3.308077335E0
6.323949795E0,5.253142834E0,-2.023729801E0,-1.355833173E0
6.340615732E0,7.035496712E0,-1.979163408E0,1.411765337E0
6.357281670E0,8.601598740E0,-1.071685433E0,5.957231045E0
6.373947607E0,1.054965591E1,1.555334777E-1,1.017936707E1
6.390613545E0,1.238614750E1,8.497511148E-1,1.298614788E1
6.407279482E0,1.277737427E1,2.139482498E0,1.396989727E1
6.423945420E0,1.218036461E1,4.659423828E0,1.369681549E1
6.440611357E0,1.035523891E1,8.308478355E0,1.387209034E1
6.457277295E0,8.079963684E0,1.127049351E1,1.876750565E1
6.473943232E0,8.110472679E0,1.041715336E1,2.440888405E1
6.490609170E0,7.205686092E0,9.838389397E0,2.484886551E1
6.507275107E0,6.023931026E0,1.034058285E1,1.983679962E1
6.523941045E0,4.242175579E0,1.182503033E1,1.312881947E1
6.540606982E0,2.467000246E0,1.161326599E1,6.992724895E0
6.557272920E0,1.347757339E0,9.833603859E0,2.934797049E0
6.573938857E0,5.946164131E-1,7.272087097E0,1.713560104E0
6.590604795E0,-6.134598851E-1,5.107779026E0,2.062014818E0
6.607270732E0,-2.730808735E0,3.789932013E0,3.897010803E0
6.623936670E0,-4.658825874E0,3.384946823E0,5.173880577E0
6.640602607E0,-5.985346794E0,3.827020645E0,4.385744572E0
6.657268545E0,-6.855137825E0,4.533800602E0,2.055135489E0
6.673934482E0,-6.900601387E0,5.399703503E0,6.619145870E-1
6.690600420E0,-6.459125519E0,6.344569206E0,1.475175142E0
6.707266357E0,-5.218447208E0,7.364210606E0,4.611866474E0
6.723932295E0,-3.765704632E0,8.263612747E0,9.521340370E0
6.740598232E0,-2.630011082E0,8.539385796E0,1.436052513E1
6.757264170E0,-2.426621199E0,8.878867149E0,1.716311836E1
6.773930107E0,-2.650051117E0,9.933803558E0,1.618953896E1
6.790596045E0,-2.529213428E0,1.105543900E1,1.429950809E1
6.807261982E0,1.313061416E-1,1.051466084E1,1.449871063E1
6.823927920E0,3.081955671E0,8.078468323E0,1.651735497E1
6.840593857E0,4.503591537E0,4.683351994E0,1.660379601E1
6.857259795E0,4.361218452E0,1.661516190E0,1.402253914E1
6.873925732E0,3.366402388E0,4.573282301E-1,1.054845905E1
6.890591670E0,3.233600616E0,2.015953064E-1,7.415058136E0
6.907257607E0,3.678067446E0,5.982056726E-3,4.851148605E0
6.923923545E0,3.751048565E0,-4.480560422E-1,3.096013308E0
6.940589482E0,4.152444363E0,-1.599003673E0,2.797209740E0
6.957255420E0,4.284348965E0,-2.359921217E0,3.754039526E0
6.973921357E0,4.218546391E0,-2.498705149E0,4.232903481E0
6.990587295E0,4.414159775E0,-2.338984251E0,3.442374468E0
7.007253232E0,4.905884743E0,-2.008774519E0,1.945663929E0
7.023919170E0,4.994419098E0,-1.810768485E0,3.789632916E-1
7.040585107E0,4.939383984E0,-1.713560104E0,6.122635007E-1
7.057251045E0,5.455635548E0,-1.632802367E0,2.671287298E0
7.073916982E0,6.641877651E0,-1.286142230E0,5.773581982E0
7.090582920E0,8.018946648E0,-5.593222976E-1,9.834201813E0
7.107248857E0,8.694919586E0,7.435696125E-1,1.325922871E1
7.123914795E0,1.021675491E1,2.418246269E0,1.343390465E1
7.140580732E0,9.525527954E0,5.495416164E0,9.735498428E0
7.157246670E0,5.119443893E0,9.793523788E0,1.094865894E1
7.173912607E0,3.941577196E0,1.036869907E1,2.249462700E1
7.190578545E0,4.546961308E0,7.837989807E0,3.094428062E1
7.207244482E0,5.358427048E0,6.840780735E0,2.698206711E1
7.223910420E0,5.866004944E0,9.986145973E0,1.693221092E1
7.240576357E0,6.097809315E0,1.198804188E1,8.276175499E0
7.257242295E0,5.332106113E0,1.189412308E1,4.467400074E0
7.273908232E0,3.368496180E0,1.022453117E1,3.431307554E0
7.290574170E0,1.484447360E0,7.571488857E0,3.265006542E0
7.307240107E0,-2.330010980E-1,5.462514877E0,3.062813044E0
7.323906045E0,-1.483849168E0,3.905086517E0,2.940479994E0
7.340571982E0,-2.399402857E0,3.182753325E0,2.720938444E0
7.357237920E0,-3.458526134E0,3.357429266E0,2.192423820E0
7.373903857E0,-4.566103935E0,4.065405846E0,6.152545214E-1
7.390569795E0,-5.536393166E0,4.985146999E0,-7.534400225E-1
7.407235732E0,-6.584449768E0,5.708377361E0,-1.896311939E-1
7.423901670E0,-6.802794933E0,5.851049423E0,1.663909078E0
7.440567607E0,-6.611668110E0,5.898606777E0,4.219443798E0
7.457233545E0,-5.876772404E0,6.455237389E0,7.070192814E0
7.473899482E0,-4.118646145E0,7.896314621E0,9.742377281E0
7.490565420E0,-3.282055378E0,1.020329475E1,1.209721375E1
7.507231357E0,-5.096712112E0,1.330259800E1,1.387956810E1
7.523897295E0,-4.328317165E0,1.474726486E1,1.768535233E1
7.540563232E0,1.688435435E0,1.243400383E1,2.519552422E1
7.557229170E0,7.216753006E0,8.508278847E0,2.845963478E1
7.573895107E0,9.380762100E0,5.895316601E0,2.379452705E1
7.590561045E0,7.974380493E0,4.858027935E0,1.711406517E1
7.607226982E0,5.333601475E0,4.502993107E0,1.281147194E1
7.623892920E0,3.562314749E0,3.698406458E0,9.730413437E0
7.640558857E0,3.294318676E0,2.558824778E0,6.937091827E0
7.657224795E0,4.213461399E0,1.095912814E0,3.932005882E0
7.673890732E0,5.041976452E0,-3.604189157E-1,1.147059321E0
7.690556670E0,5.186742306E0,-1.820638895E0,-2.362912297E-1
7.707222607E0,4.945964336E0,-2.984747171E0,3.888336709E-3
7.723888545E0,4.437788486E0,-3.246163130E0,1.028913707E-1
7.740554482E0,4.088137627E0,-2.841476917E0,-9.454640746E-1
7.757220420E0,4.132404804E0,-2.533101797E0,-2.227119684E0
7.773886357E0,4.118945122E0,-1.981556296E0,-2.362613201E0
7.790552295E0,4.366003990E0,-1.411167145E0,-1.167697430E0
7.807218232E0,5.185246468E0,-9.705886841E-1,9.424729943E-1
7.823884170E0,6.070889950E0,-9.092725813E-2,3.771686792E0
7.840550107E0,7.095317364E0,1.380060434E0,7.648358345E0
7.857216045E0,8.552247047E0,2.927319288E0,1.062891865E1
7.873881982E0,7.946863174E0,4.502993107E0,1.158365440E1
7.890547920E0,4.854738235E0,6.926324368E0,1.917727661E1
7.907213857E0,5.189434052E0,5.331208706E0,3.110938644E1
7.923879795E0,6.937690258E0,4.181756496E0,3.558306885E1
7.940545732E0,9.153144836E0,6.677171707E0,2.702812767E1
7.957211670E0,9.817750931E0,1.010279655E1,1.489442348E1
7.973877607E0,8.602197647E0,1.206491089E1,7.080062866E0
7.990543545E0,5.851049423E0,1.099831009E1,4.397110939E0
8.007209482E0,2.464906454E0,8.877073288E0,3.712165117E0
8.023875420E0,1.630110443E-1,6.965207577E0,2.781058073E0
8.040541357E0,-6.361917257E-1,5.521438122E0,2.607578516E0
8.057207295E0,-5.841478109E-1,4.590630054E0,4.009174347E0
8.073873232E0,-8.422735929E-1,4.178167343E0,5.008177757E0
8.090539170E0,-1.712064624E0,4.481756687E0,3.824627876E0
8.107205107E0,-2.967399120E0,5.293521881E0,1.154237866E0
8.123871045E0,-4.011268139E0,6.029613972E0,-7.642077208E-1
8.140536982E0,-4.770689964E0,6.655935287E0,-1.066899776E0
8.157202920E0,-4.820042133E0,6.895815849E0,5.614160299E-1
8.173868857E0,-4.589433670E0,7.093223572E0,3.609872103E0
8.190534795E0,-3.817748547E0,7.363911629E0,6.500999928E0
8.207200732E0,-2.098505497E0,8.482556343E0,9.328120232E0
8.223866670E0,-9.355936646E-1,1.021615601E1,1.283240891E1
8.240532607E0,-2.490629196E0,1.284736347E1,1.614497185E1
8.257198545E0,-2.365903378E0,1.464766407E1,2.056840515E1
8.273864482E0,2.166700840E0,1.384158134E1,2.836152840E1
8.290530420E0,6.764210701E0,9.812965393E0,3.374986649E1
8.307196357E0,9.907182693E0,5.933003902E0,3.050280571E1
8.323862295E0,1.026191902E1,4.806881428E0,2.191137695E1
8.340528232E0,8.310871124E0,3.789632797E0,1.509572029E1
8.357194170E0,5.051846981E0,1.869392633E0,1.127767181E1
8.373860107E0,2.970390320E0,-1.085743308E-1,8.093722343E0
8.390526045E0,2.898007393E0,-1.540977836E0,4.534099579E0
8.407191982E0,4.081856251E0,-2.311765671E0,8.338986635E-1
8.423857920E0,5.182255745E0,-2.899502754E0,-2.142473459E0
8.440523857E0,5.384449005E0,-3.706781387E0,-2.963211775E0
8.457189795E0,5.667998791E0,-4.150650024E0,-2.909074068E0
8.473855732E0,5.783452511E0,-3.724727631E0,-3.528217077E0
8.490521670E0,5.517848969E0,-3.196511984E0,-4.994718075E0
8.507187607E0,5.245366573E0,-2.733799934E0,-5.906682491E0
8.523853545E0,5.122734070E0,-2.064108610E0,-5.219045162E0
8.540519482E0,5.257330418E0,-1.386939883E0,-3.016751051E0
8.557185420E0,5.586941719E0,-7.004988194E-1,2.991028305E-4
8.573851357E0,6.745965004E0,-1.824527234E-1,3.575176239E0
8.590517295E0,8.559724808E0,3.930211067E-1,7.808677673E0
8.607183232E0,1.043300629E1,1.264905930E0,1.123131084E1
8.623849170E0,1.134945679E1,3.195315599E0,1.169701481E1
8.640515107E0,9.844670296E0,6.245865345E0,8.842676163E0
8.657181045E0,7.389036179E0,1.090678501E1,1.208016491E1
8.673846982E0,7.520940781E0,1.111047363E1,2.348465729E1
8.690512920E0,6.653841496E0,9.710074425E0,3.070918655E1
8.707178857E0,4.779364109E0,1.009501934E1,2.775315285E1
8.723844795E0,3.940679789E0,1.197398376E1,2.069432640E1
8.740510732E0,4.429413795E0,1.152084255E1,1.573011684E1
8.757176670E0,4.317549229E0,9.831509590E0,1.159771252E1
8.773842607E0,3.582354546E0,7.939684868E0,7.481758118E0
8.790508545E0,2.450848579E0,6.108277798E0,5.112864017E0
8.807174482E0,1.350449324E0,4.630710125E0,4.963611603E0
8.823840420E0,-8.973085321E-3,3.532404423E0,4.962115765E0
8.840506357E0,-1.526620865E0,3.267399311E0,3.468695641E0
8.857172295E0,-3.138485909E0,3.800101519E0,7.719843984E-1
8.873838232E0,-4.561916351E0,4.509274483E0,-1.099202871E0
8.890504170E0,-5.201996326E0,5.017150879E0,-1.599901080E0
8.907170107E0,-5.532206059E0,5.328815937E0,-1.460219979E0
8.923836045E0,-6.158527374E0,5.725426197E0,-3.771686554E-1
8.940501982E0,-6.354439735E0,6.469295025E0,1.923530340E0
8.957167920E0,-5.094020367E0,7.608876705E0,5.108377457E0
8.973833857E0,-3.209971666E0,9.606584549E0,8.851649284E0
8.990499795E0,-3.148057222E0,1.311715508E1,1.211127186E1
9.007165732E0,-1.915155411E0,1.696630859E1,1.704257965E1
9.023831670E0,5.695217133E0,1.687448502E1,2.702902603E1
9.040497607E0,1.325563908E1,1.259342575E1,3.493311691E1
9.057163545E0,1.607588005E1,7.895118237E0,3.262374496E1
9.073829482E0,1.398903942E1,5.767899036E0,2.501277351E1
9.090495420E0,1.004536819E1,4.470689774E0,1.871695709E1
9.107161357E0,6.241976738E0,3.484248877E0,1.358824158E1
9.123827295E0,3.853940010E0,2.512164593E0,9.766604424E0
9.140493232E0,3.421437263E0,1.590329766E0,7.023233414E0
9.157159170E0,4.176970959E0,9.314061999E-1,4.113561153E0
9.173825107E0,4.796412945E0,2.679961324E-1,9.017950296E-1
9.190491045E0,4.675276279E0,-5.781657696E-1,-1.207179070E0
9.207156982E0,3.785146236E0,-1.293918848E0,-2.042872429E0
9.223822920E0,2.411366940E0,-1.535893083E0,-2.400599241E0
9.240488857E0,1.096511006E0,-1.537986755E0,-2.452344179E0
9.257154795E0,3.445664644E-1,-1.291526079E0,-1.782353759E0
9.273820732E0,4.307080805E-1,-4.486542344E-1,-4.920241535E-1
9.290486670E0,1.301396370E0,8.437690735E-1,8.922237158E-1
9.307152607E0,2.279761791E0,2.855833769E0,2.909373283E0
9.323818545E0,3.659822226E0,4.986044407E0,6.833303452E0
9.340484482E0,3.935894251E0,6.821040154E0,1.066630650E1
9.357150420E0,3.820141315E0,8.243273735E0,1.023918724E1
9.373816357E0,4.669593334E0,1.056102180E1,6.336194515E0
9.390482295E0,6.728318214E0,1.141406345E1,7.161418915E0
9.407148232E0,6.734001160E0,8.486743927E0,1.227547932E1
9.423814170E0,5.602196217E0,4.747958183E0,1.615604019E1
9.440480107E0,3.070589542E0,2.193022013E0,1.523749447E1
9.457146045E0,1.582553029E0,1.158724308E0,1.003101158E1
9.473811982E0,2.802593470E0,9.400802255E-1,4.003491402E0
9.490477920E0,4.981856823E0,4.731806815E-1,2.859423161E-1
9.507143857E0,5.618048668E0,-4.043870270E-1,-7.345965505E-1
9.523809795E0,4.771288395E0,-1.040578723E0,-1.452144265E0
9.540475732E0,3.413062334E0,-1.136291623E0,-2.261217356E0
9.557141670E0,1.255035520E0,-2.769692242E-1,-3.756731510E0
9.573807607E0,-6.909275651E-1,7.319046259E-1,-5.832505226E0
9.590473545E0,-2.435594320E0,1.971685886E0,-7.668099403E0
9.607139482E0,-3.851846218E0,2.553141832E0,-8.045866013E0
9.623805420E0,-4.983053207E0,2.465205431E0,-6.358926296E0
9.640471357E0,-6.364908218E0,2.000698805E0,-1.455434322E0
9.657137295E0,-6.763313293E0,1.379462242E0,6.413064003E0
9.673803232E0,-4.711168766E0,9.625129104E-1,1.369382477E1
9.690469170E0,-5.536393523E-1,6.391827464E-1,1.453938866E1
9.707135107E0,1.832902193E0,2.364108801E0,9.134600639E0
9.723801045E0,3.377170086E0,6.303293228E0,6.396314144E0
9.740466982E0,4.727021217E0,9.887442589E0,1.130848026E1
9.757132920E0,5.019543648E0,1.036181927E1,1.758305931E1
9.773798857E0,4.871487617E0,8.630014420E0,2.186680984E1
9.790464795E0,7.780561924E0,7.675876141E0,2.524517632E1
9.807130732E0,1.254526997E1,8.309675217E0,2.862324333E1
9.823796670E0,1.834038734E1,1.032502937E1,3.347469330E1
9.840462607E0,1.949971008E1,1.037049294E1,3.745156097E1
9.857128545E0,1.362862015E1,8.663812637E0,3.468007660E1
9.873794482E0,5.008776188E0,7.402196884E0,2.782314301E1
9.890460420E0,-5.470590591E-1,8.299205780E0,2.243749809E1
9.907126357E0,-2.349153519E0,9.987342834E0,2.082593155E1
9.923792295E0,-2.388934374E0,1.134616661E1,2.261725807E1
9.940458232E0,-1.321735382E0,1.163330555E1,2.568366051E1
9.957124170E0,6.092724800E-1,1.139073277E1,2.786591530E1
9.973790107E0,1.998306036E0,1.161924744E1,2.786711121E1
9.990456045E0,2.503490686E0,1.054666519E1,2.639223480E1
1.000712198E1,2.662015200E0,8.383852005E0,2.365963173E1
1.002378792E1,4.158127785E0,6.204888344E0,2.126710892E1
1.004045386E1,5.439185143E0,4.231407642E0,1.786511230E1
1.005711980E1,6.064609051E0,2.417947292E0,1.445145226E1
1.007378573E1,6.250351906E0,7.091727853E-1,1.135035419E1
1.009045167E1,5.831308842E0,-6.179464459E-1,8.620741844E0
1.010711761E1,5.111966610E0,-1.350150228E0,5.717051506E0
1.012378354E1,5.199603558E0,-1.780260086E0,3.276073217E0
1.014044948E1,5.937191010E0,-2.640479803E0,1.989931107E0
1.015711542E1,7.065107822E0,-3.874279022E0,1.533500195E0
1.017378136E1,8.247760773E0,-4.555634975E0,2.058724880E0
1.019044730E1,8.823234558E0,-4.998307228E0,2.956631422E0
1.020711323E1,8.267500877E0,-5.401198864E0,4.245166302E0
1.022377917E1,8.423932076E0,-5.237290382E0,6.538686752E0
1.024044511E1,1.026580715E1,-4.584349155E0,8.034200668E0
1.025711104E1,1.156570816E1,-2.794517756E0,6.535097599E0
1.027377698E1,1.142243767E1,6.969096065E-1,5.565705299E0
1.029044292E1,1.165155029E1,4.163511276E0,7.509275436E0
1.030710886E1,1.113440228E1,6.667600155E0,1.249472141E1
1.032377480E1,1.000857925E1,7.917252064E0,1.588953876E1
1.034044073E1,7.546962738E0,8.601300240E0,1.386102295E1
1.035710667E1,4.292723656E0,9.147162437E0,8.478966713E0
1.037377261E1,1.706381679E0,9.830313683E0,3.831507206E0
1.039043854E1,-4.534398913E-1,1.025294590E1,1.461715579E0
1.040710448E1,-2.260619164E0,1.003579712E1,1.075573802E0
1.042377042E1,-4.010071754E0,9.013762474E0,3.816552162E-1
1.044043636E1,-5.690132141E0,8.500502586E0,1.013958603E-1
1.045710230E1,-6.347560406E0,8.613862038E0,1.198205948E0
1.047376823E1,-6.046363831E0,9.068498611E0,2.998805046E0
1.049043417E1,-5.554937840E0,9.671489716E0,3.650550127E0
1.050710011E1,-5.794219971E0,1.017607689E1,2.565105915E0
1.052376604E1,-5.663212776E0,1.022961617E1,2.428714991E0
1.054043198E1,-5.070092201E0,9.993923187E0,6.169594288E0
1.055709792E1,-3.954139471E0,9.426525116E0,1.234726429E1
1.057376386E1,-2.242672920E0,8.370990753E0,1.803320885E1
1.059042980E1,-6.134598851E-1,7.623233795E0,2.125813484E1
1.060709573E1,-3.882354796E-1,8.281858444E0,2.091117668E1
1.062376167E1,3.669991791E-1,9.941879272E0,2.121895218E1
1.064042761E1,5.029713154E0,9.272188187E0,2.725574493E1
1.065709354E1,8.281558990E0,5.927021503E0,2.980200768E1
1.067375948E1,9.219545364E0,2.808874607E0,2.424916458E1
1.069042542E1,8.528019905E0,1.483849168E0,1.644975853E1
1.070709136E1,6.460621357E0,1.017547846E0,1.068694401E1
1.072375730E1,4.268197536E0,-5.629115105E-1,7.599604607E0
1.074042323E1,2.449352980E0,-2.257328987E0,5.109872818E0
1.075708917E1,2.474776745E0,-3.982254982E0,2.803789854E0
1.077375511E1,3.733700514E0,-5.505585670E0,9.888339639E-1
1.079042104E1,5.114658356E0,-6.562315941E0,-6.565307379E-1
1.080708698E1,5.107779026E0,-6.640381813E0,-2.947359324E0
1.082375292E1,5.113162994E0,-6.310172558E0,-5.089533806E0
1.084041886E1,4.693820953E0,-5.436792374E0,-5.863911152E0
1.085708480E1,3.835395575E0,-4.743172646E0,-5.225924492E0
1.087375073E1,3.947559118E0,-4.454239368E0,-3.093022346E0
1.089041667E1,4.944468975E0,-4.228117466E0,3.765704632E-1
1.090708261E1,7.208079338E0,-3.424129248E0,4.123730659E0
1.092374854E1,1.029242706E1,-2.067996979E0,7.452745438E0
1.094041448E1,1.232901859E1,-5.174478889E-2,9.092127800E0
1.095708042E1,1.243011570E1,2.539981127E0,9.355338097E0
1.097374636E1,1.156899834E1,6.103791237E0,1.047398281E1
1.099041230E1,1.132403278E1,9.698409081E0,1.640908051E1
1.100707823E1,1.189412308E1,1.117059326E1,2.298934174E1
1.102374417E1,1.174905872E1,1.182114220E1,2.542463875E1
1.104041011E1,1.139521980E1,1.195633698E1,2.338714981E1
1.105707604E1,1.053499985E1,1.108355427E1,1.893978882E1
1.107374198E1,8.901300430E0,9.054141998E0,1.346172142E1
1.109040792E1,6.805486679E0,6.832406044E0,8.330014229E0
1.110707386E1,4.671388149E0,4.937290192E0,3.968795538E0
1.112373980E1,2.483749866E0,3.899403572E0,1.642373681E0
1.114040573E1,1.498505175E-1,3.713660717E0,1.415354609E0
1.115707167E1,-1.852941990E0,3.835694790E0,1.386042476E0
1.117373761E1,-3.203391314E0,4.343272209E0,3.951148391E-1
1.119040354E1,-4.270291328E0,5.183452129E0,-1.613659739E0
1.120706948E1,-5.000401020E0,6.330810547E0,-2.045265198E0
1.122373542E1,-5.498108387E0,7.285546780E0,-4.100699723E-1
1.124040136E1,-6.259624004E0,8.007282257E0,2.394019127E0
1.125706730E1,-6.206084728E0,9.286245346E0,5.301597595E0
1.127373323E1,-3.923929930E0,1.069920731E1,8.727222443E0
1.129039917E1,-3.568296731E-1,1.230628681E1,1.349551964E1
1.130706511E1,2.083849430E0,1.337528038E1,1.809213257E1
1.132373104E1,3.036791086E0,1.314766312E1,2.053221321E1
1.134039698E1,4.688137531E0,1.230658627E1,2.273271179E1
1.135706292E1,1.159472084E1,9.451649666E0,2.630729103E1
1.137372886E1,1.610100365E1,6.446563244E0,2.614098930E1
1.139039480E1,1.562961864E1,4.128516197E0,2.037339020E1
1.140706073E1,1.102582741E1,3.255435228E0,1.387687588E1
1.142372667E1,6.129215240E0,2.546860695E0,1.039651489E1
1.144039261E1,3.208775282E0,1.344766378E0,8.160721779E0
1.145705854E1,2.219941139E0,-1.280160099E-1,6.054140568E0
1.147372448E1,2.114956141E0,-1.564307809E0,4.025325775E0
1.149039042E1,2.899502754E0,-2.902792931E0,1.750050664E0
1.150705636E1,3.841078520E0,-3.967299938E0,-1.534397453E-1
1.152372230E1,4.211368084E0,-4.427021027E0,-2.174178362E0
1.154038823E1,3.594318628E0,-4.097110748E0,-4.444069862E0
1.155705417E1,2.700300455E0,-3.530310631E0,-5.996413708E0
1.157372011E1,2.186441660E0,-3.467499018E0,-6.201299191E0
1.159038604E1,2.086242199E0,-3.153141975E0,-4.617549419E0
1.160705198E1,2.955136061E0,-3.495315790E0,-2.188535452E0
1.162371792E1,4.412065983E0,-3.563511133E0,-1.345962733E-1
1.164038386E1,6.798008919E0,-3.708575964E0,1.640878081E0
1.165704980E1,1.000768185E1,-2.854936600E0,3.802195072E0
1.167371573E1,1.323320675E1,-1.371386528E0,5.231308460E0
1.169038167E1,1.406800270E1,8.318049908E-1,4.527519703E0
1.170704761E1,1.392832184E1,4.318745613E0,7.874480247E0
1.172371354E1,1.997408676E1,6.822535515E0,2.054028893E1
1.174037948E1,2.783091927E1,7.622336388E0,2.971556664E1
1.175704542E1,2.763799858E1,7.232605457E0,2.487518692E1
1.177371136E1,1.942523384E1,1.222672558E1,1.341565895E1
1.179037730E1,1.576959896E1,1.246660614E1,8.670093536E0
1.180704323E1,1.236221886E1,1.113739300E1,8.137690544E0
1.182370917E1,7.666005611E0,8.807681084E0,4.989932537E0
1.184037511E1,3.514458179E0,7.060621262E0,1.865803480E0
1.185704104E1,1.107876897E0,6.160321712E0,4.671986103E-1
1.187370698E1,-7.043871880E-1,5.600401402E0,-9.571290612E-1
1.189037292E1,-2.491825581E0,5.226522923E0,-2.242373943E0
1.190703886E1,-3.594617844E0,5.138885498E0,-2.426920414E0
1.192370480E1,-4.214358807E0,5.096114159E0,-1.485344648E0
1.194037073E1,-4.273282051E0,5.088337421E0,2.916252613E-1
1.195703667E1,-4.237389565E0,5.455934525E0,1.194915771E0
1.197370261E1,-3.418147087E0,6.358926296E0,1.211366415E0
1.199036854E1,-1.931007862E0,8.024929047E0,2.096112728E0
1.200703448E1,2.521436810E-1,1.011386299E1,4.302893162E0
1.202370042E1,2.952144861E0,1.296550941E1,8.869296074E0
1.204036636E1,4.546063900E0,1.616919899E1,1.341027546E1
1.205703230E1,7.541578770E0,1.820010757E1,1.728335762E1
1.207369823E1,1.928614998E1,1.700130463E1,2.448216438E1
1.209036417E1,3.156641579E1,1.307976723E1,2.768944359E1
1.210703011E1,3.261148071E1,8.564809799E0,2.112922287E1
1.212369604E1,2.347239304E1,5.864509106E0,1.341625786E1
1.214036198E1,1.409222984E1,3.672683716E0,1.120828056E1
1.215702792E1,8.074280739E0,1.965105653E0,1.037886810E1
1.217369386E1,5.587240696E0,3.547359705E-1,7.904689789E0
1.219035980E1,5.197509766E0,-1.428215981E0,3.125624657E0
1.220702573E1,5.213960648E0,-3.287140131E0,-2.106282234E0
1.222369167E1,4.294518471E0,-5.144867897E0,-6.100202084E0
1.224035761E1,2.155933142E0,-6.524928093E0,-8.386843681E0
1.225702355E1,-3.625126183E-1,-6.924529552E0,-9.024829865E0
1.227368948E1,-1.650449395E0,-6.766902447E0,-8.614759445E0
1.229035542E1,-1.618744493E0,-6.343671799E0,-8.010572433E0
1.230702136E1,-8.330013752E-1,-6.058627129E0,-7.470093250E0
1.232368730E1,-2.868396044E-1,-5.699404240E0,-6.359524250E0
1.234035323E1,8.330013752E-1,-5.488237858E0,-4.960620403E0
1.235701917E1,3.348157167E0,-5.265406132E0,-3.365504980E0
1.237368511E1,7.289734364E0,-4.854139805E0,-6.978068948E-1
1.239035105E1,1.180199909E1,-3.804588079E0,2.947060108E0
1.240701698E1,1.609891129E1,-2.351845503E0,5.898008823E0
1.242368292E1,1.719960976E1,-1.609173268E-1,5.426622868E0
1.244034886E1,1.595414543E1,4.400999069E0,5.981458187E0
1.245701480E1,2.203640175E1,9.995418549E0,1.698993874E1
1.247368073E1,3.188585663E1,1.146341515E1,2.897139931E1
1.249034667E1,3.076452065E1,1.088136101E1,2.647628403E1
1.250701261E1,2.026152420E1,1.082213879E1,1.645663834E1
1.252367855E1,1.232542896E1,1.008873844E1,9.394520760E0
1.254034448E1,7.602894783E0,9.429216385E0,5.384150028E0
1.255701042E1,4.848755836E0,8.277072906E0,2.456531525E0
1.257367636E1,3.579961777E0,6.855436802E0,6.768696904E-1
1.259034230E1,3.296711445E0,5.643771172E0,-7.737790346E-1
1.260700823E1,2.853141785E0,4.823631287E0,-1.612463355E0
1.262367417E1,1.865504384E0,4.242773533E0,-1.805384636E0
1.264034011E1,3.182454109E-1,3.965206146E0,-1.894218206E0
1.265700605E1,-1.290030479E0,3.986442566E0,-2.066501379E0
1.267367198E1,-2.841177702E0,4.336392879E0,-2.951845884E0
1.269033792E1,-3.504587889E0,4.249952316E0,-4.169792652E0
1.270700386E1,-3.211168051E0,3.756731510E0,-4.736293316E0
1.272366980E1,-1.485045552E0,3.576970816E0,-4.147658825E0
1.274033573E1,2.599203587E0,4.835595608E0,-1.627717614E0
1.275700167E1,7.169195652E0,7.668996811E0,1.396810263E-1
1.277366761E1,1.066062355E1,1.134616661E1,2.982952595E0
1.279033355E1,2.182673073E1,1.208524990E1,1.077996540E1
1.280699948E1,3.153171921E1,1.289880943E1,1.949971008E1
1.282366542E1,3.242214966E1,1.118315601E1,2.288286209E1
1.284033136E1,2.403201485E1,9.489635468E0,1.874507332E1
1.285699730E1,1.386491203E1,7.772486210E0,1.193450165E1
1.287366323E1,6.832705021E0,6.620342255E0,7.511967659E0
1.289032917E1,5.025226593E0,4.467400074E0,5.777470112E0
1.290699511E1,5.708975792E0,1.963610053E0,3.990629911E0
1.292366105E1,6.890132904E0,2.988037169E-1,1.659721613E0
1.294032698E1,7.403094292E0,-7.130611539E-1,-4.992026389E-1
1.295699292E1,7.151847839E0,-1.244866014E0,-3.837489188E-1
1.297365886E1,6.829115868E0,-2.494218588E0,5.359922647E-1
1.299032480E1,6.719644070E0,-4.858027935E0,2.201396823E-1
1.300699073E1,5.191527843E0,-4.983651161E0,1.331007630E-1
1.302365667E1,4.809872627E0,-4.878965378E0,7.761718631E-1
1.304032261E1,4.886742115E0,-4.047160625E0,7.851449251E-1
1.305698855E1,5.821139336E0,-3.053839922E0,4.974080026E-1
1.307365448E1,6.782156467E0,-3.099602699E0,4.411766827E-1
1.309032042E1,7.396812916E0,-3.501596928E0,3.927220106E-1
1.310698636E1,6.992724895E0,-3.475873947E0,4.722833633E-1
1.312365230E1,4.844269276E0,-3.416651726E0,8.976075649E-1
1.314031823E1,2.886342287E0,-2.707179785E0,9.948160052E-1
1.315698417E1,3.117249727E0,-2.095215321E0,-2.272284269E0
1.317365011E1,4.941477776E0,9.583254457E-1,-7.751548767E0
1.319031605E1,9.409774780E0,4.826323509E0,-1.181396389E1
1.320698198E1,1.301725388E1,5.583950520E0,-6.956533432E0
1.322364792E1,1.444696617E1,6.567699909E0,6.485745907E0
1.324031386E1,2.061237335E1,8.429615021E0,2.014995956E1
1.325697980E1,2.838755035E1,9.502496719E0,2.330579376E1
1.327364573E1,2.975833893E1,1.102822018E1,1.650120354E1
1.329031167E1,2.811566544E1,1.089422226E1,8.130512238E0
1.330697761E1,2.561038017E1,9.028418541E0,7.839186192E0
1.332364355E1,2.306322098E1,6.978667259E0,1.278305721E1
1.334030948E1,2.196252251E1,5.855535984E0,1.581506252E1
1.335697542E1,2.162124634E1,5.273481846E0,1.548604870E1
1.337364136E1,2.142892265E1,4.860720158E0,1.316860008E1
1.339030730E1,2.104158592E1,4.193122387E0,1.155852985E1
1.340697323E1,1.996930122E1,3.137289524E0,1.292303658E1
1.342363917E1,1.914347839E1,2.106880426E0,1.599901009E1
1.344030511E1,1.757946968E1,1.897807479E0,1.636481285E1
1.345697105E1,1.495185184E1,2.417349100E0,1.396301746E1
1.347363698E1,1.216660595E1,3.230011463E0,1.162493038E1
1.349030292E1,1.011625576E1,3.794418573E0,1.127617645E1
1.350696886E1,9.083154678E0,3.784847260E0,1.162253761E1
1.352363480E1,7.346563816E0,3.119642496E0,1.012433147E1
1.354030073E1,3.668795347E0,2.997010469E0,8.161020279E0
1.355696667E1,-4.543372095E-1,3.825525284E0,6.600601196E0
1.357363261E1,-3.977170229E0,5.502295494E0,4.942674160E0
1.359029855E1,-6.505486488E0,6.620042801E0,2.004886389E0
1.360696448E1,-8.138887405E0,8.535796165E0,-1.140179992E0
1.362363042E1,-7.181757927E0,1.170299625E1,-2.181356907E0
1.364029636E1,-1.708774447E0,1.660349655E1,-2.997010350E-1
1.365696230E1,4.695914268E0,2.231576347E1,5.023432255E0
1.367362823E1,1.048385334E1,2.612364197E1,1.274536991E1
1.369029417E1,1.509542084E1,2.751835823E1,1.917308998E1
1.370696011E1,1.812413597E1,2.530888557E1,2.401526451E1
1.372362605E1,1.769641876E1,2.014098549E1,2.169572258E1
1.374029198E1,1.328046513E1,1.578754425E1,1.494437408E1
1.375695792E1,1.122891808E1,1.198385429E1,1.338724422E1
1.377362386E1,1.142363453E1,6.809075832E0,1.412901974E1
1.379028980E1,8.801998138E0,1.246361494E0,1.152562809E1
1.380695573E1,4.807778835E0,-2.838485956E0,6.491727829E0
1.382362167E1,2.462812662E0,-4.809872627E0,2.379961252E0
1.384028761E1,1.988136530E0,-5.458327770E0,-4.007977843E-1
1.385695355E1,7.770691514E-1,-6.175576210E0,-2.487937450E0
1.387361948E1,-7.115656137E-1,-7.322336197E0,-4.433900356E0
1.389028542E1,-7.450651526E-1,-8.397312164E0,-4.255036831E0
1.390695136E1,-5.793621540E-1,-9.815358162E0,-2.074278116E0
1.392361730E1,-8.823533654E-1,-9.981060982E0,-3.861417472E-1
1.394028323E1,-1.597209126E-1,-9.198010445E0,-8.419744968E-1
1.395694917E1,2.155634165E0,-8.760123253E0,-2.561516523E0
1.397361511E1,4.111766815E0,-8.249555588E0,-4.321736813E0
1.399028105E1,5.566004753E0,-7.806882858E0,-3.714258909E0
1.400694698E1,6.830611229E0,-7.536194801E0,1.617249012E0
1.402361292E1,1.005823040E1,-6.346961975E0,1.004835987E1
1.404027886E1,1.514148235E1,-3.612863064E0,1.616650772E1
1.405694480E1,1.992383766E1,-4.283152521E-1,1.480558968E1
1.407361073E1,2.138405800E1,4.367499352E0,8.598309517E0
1.409027667E1,2.309223366E1,8.969795227E0,1.262363529E1
1.410694261E1,2.375414848E1,1.178584766E1,2.596960258E1
1.412360855E1,2.283111763E1,1.437039566E1,3.439263916E1
1.414027448E1,1.827219200E1,1.619731522E1,2.794936562E1
1.415694042E1,9.525827408E0,1.848545265E1,1.704048729E1
1.417360636E1,6.039783478E0,1.793211174E1,1.527817249E1
1.419027230E1,3.568595886E0,1.551805305E1,1.369083405E1
1.420693823E1,5.533402413E-2,1.301934814E1,7.526922703E0
1.422360417E1,-2.393420935E0,1.129502010E1,2.684148788E0
1.424027011E1,-3.725924015E0,9.513862610E0,2.721835673E-1
1.425693605E1,-5.480162144E0,8.223234177E0,-7.821539044E-1
1.427360198E1,-6.585945129E0,7.948358536E0,-2.171486616E-1
1.429026792E1,-7.832007408E0,8.351848602E0,2.114657015E-1
1.430693386E1,-8.864809990E0,8.909674644E0,4.271188378E-1
1.432359980E1,-8.954540253E0,1.002263641E1,2.554936409E0
1.434026573E1,-5.611468315E0,1.107817078E1,6.294020653E0
1.435693167E1,1.507777333E0,1.258176041E1,1.025593662E1
1.437359761E1,6.547659874E0,1.340728474E1,1.457079411E1
1.439026355E1,7.705487251E0,1.394866085E1,1.800389671E1
1.440692948E1,7.782356739E0,1.465514183E1,2.156800652E1
1.442359542E1,9.821640015E0,1.487498188E1,2.673650360E1
1.444026136E1,1.579292870E1,1.164885902E1,3.063351440E1
1.445692730E1,2.125364876E1,7.214061260E0,2.756023216E1
1.447359323E1,2.184437752E1,4.067798615E0,1.803500366E1
1.449025917E1,1.632563019E1,2.598904610E0,9.753444672E0
1.450692511E1,9.040083885E0,1.262513041E0,7.648358345E0
1.452359105E1,3.829114437E0,-7.992027402E-1,7.520641804E0
1.454025698E1,2.031805515E0,-3.236292601E0,5.784050465E0
1.455692292E1,2.287239313E0,-5.380859852E0,2.990729094E0
1.457358886E1,3.451945782E0,-7.272087097E0,-1.003489971E0
1.459025480E1,3.181556702E0,-8.175377846E0,-5.100301266E0
1.460692073E1,1.725823283E0,-7.969295979E0,-7.835896015E0
1.462358667E1,5.575276613E-1,-7.660023689E0,-9.146265030E0
1.464025261E1,3.589233849E-3,-7.137490749E0,-8.900702477E0
1.465691855E1,3.020938635E-1,-6.935596466E0,-7.682157040E0
1.467358448E1,1.288834095E0,-6.737889290E0,-5.662913799E0
1.469025042E1,2.712563515E0,-6.142973900E0,-3.536292791E0
1.470691636E1,5.113760948E0,-5.675775528E0,-1.415653706E0
1.472358230E1,9.065507889E0,-4.597509384E0,5.958128572E-1
1.474024823E1,1.433211040E1,-2.783750057E0,3.437588930E0
1.475691417E1,1.792852211E1,-7.366902828E-1,5.171787262E0
1.477358011E1,1.804666901E1,1.823929071E0,4.565206528E0
1.479024605E1,1.642134285E1,5.619544029E0,6.101996899E0
1.480691198E1,1.772961998E1,1.068365383E1,1.736650848E1
1.482357792E1,2.282304192E1,1.252732372E1,2.868336296E1
1.484024386E1,2.380080795E1,1.326401424E1,2.698774910E1
1.485690980E1,1.837897110E1,1.526590919E1,1.669562149E1
1.487357573E1,1.320598793E1,1.570020676E1,1.182921791E1
1.489024167E1,9.150154114E0,1.370758343E1,1.197308636E1
1.490690761E1,4.865206718E0,1.031097221E1,8.926125526E0
1.492357355E1,1.074676514E0,7.634599686E0,3.403790236E0
1.494023948E1,-1.201496124E0,6.467500687E0,-8.566305041E-1
1.495690542E1,-2.176272154E0,5.947659969E0,-3.486641645E0
1.497357136E1,-3.349054337E0,5.703292847E0,-4.823930264E0
1.499023730E1,-5.020142078E0,5.793920994E0,-4.758427143E0
1.500690323E1,-5.537889004E0,5.942873955E0,-3.254238844E0
1.502356917E1,-5.435894966E0,6.396014690E0,-5.024927258E-1
1.504023511E1,-4.730011940E0,7.345666409E0,2.480459690E0
1.505690105E1,-2.114357948E0,8.598608017E0,3.924827337E0
1.507356698E1,5.772684515E-2,1.060648537E1,4.743771076E0
1.509023292E1,1.905285001E0,1.259970665E1,6.407081604E0
1.510689886E1,4.114159584E0,1.496531105E1,1.066959572E1
1.512356480E1,5.149354458E0,1.732852173E1,1.541964817E1
1.514023073E1,6.991229534E0,1.985534286E1,2.049003983E1
1.515689667E1,1.685175323E1,1.837598038E1,2.775225639E1
1.517356261E1,2.652772903E1,1.382064438E1,2.923251534E1
1.519022854E1,2.836332321E1,9.418747902E0,2.117289162E1
1.520689448E1,2.171067810E1,5.915655613E0,1.338993645E1
1.522356042E1,1.230957699E1,3.101995468E0,1.108534908E1
1.524022636E1,5.545665741E0,5.593222976E-1,1.010100174E1
1.525689230E1,2.968296528E0,-1.556531072E0,7.415058136E0
1.527355823E1,2.834896564E0,-3.604488134E0,2.855534792E0
1.529022417E1,3.765106440E0,-5.569593906E0,-2.178664923E0
1.530689011E1,4.081258297E0,-7.349554539E0,-6.029015541E0
1.532355604E1,2.469393015E0,-8.104789734E0,-8.774779320E0
1.534022198E1,6.729813665E-2,-7.855936050E0,-9.804591179E0
1.535688792E1,-1.464407444E0,-7.301997185E0,-8.817850113E0
1.537355386E1,-1.822433591E0,-6.956533432E0,-6.892525673E0
1.539021980E1,-9.903294444E-1,-6.533003807E0,-4.552644253E0
1.540688573E1,6.780661345E-1,-6.057131290E0,-3.152543783E0
1.542355167E1,3.796512127E0,-5.350650311E0,-2.461317301E0
1.544021761E1,8.860024452E0,-4.312165737E0,-9.601200819E-1
1.545688354E1,1.426660633E1,-2.583052158E0,2.776571512E0
1.547354948E1,1.919462585E1,-8.285148144E-1,5.720640659E0
1.549021542E1,2.006232262E1,8.799605370E-1,4.500600338E0
1.550688136E1,1.675065613E1,5.153242588E0,7.687242031E0
1.552354730E1,2.151147652E1,9.771091461E0,2.390848541E1
1.554021323E1,2.973291588E1,1.193569851E1,3.386651611E1
1.555687917E1,2.942244720E1,1.409432316E1,2.511476707E1
1.557354511E1,2.220120621E1,1.548814297E1,1.176281738E1
1.559021104E1,1.591885090E1,1.435035515E1,7.254439831E0
1.560687698E1,1.022094154E1,1.189083290E1,6.826424122E0
1.562354292E1,5.694020748E0,9.160024643E0,5.111966610E0
1.564020886E1,2.987738132E0,7.222136974E0,2.641077995E0
1.565687480E1,1.874776483E0,6.092425346E0,4.956133962E-1
1.567354073E1,1.068395257E0,5.463113308E0,-1.556531072E0
1.569020667E1,-7.752745152E-1,5.495416164E0,-3.481556892E0
1.570687261E1,-3.078964472E0,6.217151642E0,-4.003192425E0
1.572353854E1,-4.812265396E0,7.064509869E0,-3.219841957E0
1.574020448E1,-5.746961594E0,7.441080093E0,-2.191227436E0
1.575687042E1,-6.123831272E0,7.394121170E0,-9.634101987E-1
1.577353636E1,-6.386742592E0,7.300501823E0,-1.307079345E-1
1.579020230E1,-6.614659309E0,7.633104324E0,-6.580262445E-3
1.580686823E1,-6.317649841E0,9.045766830E0,6.939185858E-1
1.582353417E1,-2.875873804E0,1.132134151E1,4.117748737E0
1.584020011E1,2.413161755E0,1.541007710E1,1.012792110E1
1.585686604E1,5.994319916E0,2.144238281E1,1.547019672E1
1.587353198E1,1.458903980E1,2.521765900E1,1.857009888E1
1.589019792E1,2.816591454E1,2.394078827E1,2.326511574E1
1.590686386E1,3.560310745E1,1.954607010E1,2.283709908E1
1.592352980E1,3.345943832E1,1.330738449E1,1.848036766E1
1.594019573E1,2.423600388E1,7.983652592E0,1.554916000E1
1.595686167E1,1.592991734E1,4.112364769E0,1.296102333E1
1.597352761E1,1.122203922E1,1.440778375E0,9.728918076E0
1.599019354E1,9.299406052E0,-7.187440991E-1,7.736892700E0
1.600685948E1,9.556035995E0,-3.653840065E0,6.468098640E0
1.602352542E1,1.017846966E1,-6.714559555E0,4.403990269E0
1.604019136E1,1.022034359E1,-9.693623543E0,1.554736495E0
1.605685730E1,9.113364220E0,-1.137129116E1,-1.974676847E0
1.607352323E1,7.406384468E0,-1.143829060E1,-6.616154671E0
1.609018917E1,5.465207100E0,-1.068156052E1,-1.116640568E1
1.610685511E1,3.426223040E0,-9.427123070E0,-1.361007595E1
1.612352104E1,2.539382935E0,-8.510671616E0,-1.332592869E1
1.614018698E1,2.932105064E0,-8.092226982E0,-1.044766140E1
1.615685292E1,4.403092861E0,-6.913762093E0,-6.074479580E0
1.617351886E1,7.493722439E0,-4.655834675E0,-2.637189627E0
1.619018480E1,1.096181965E1,-1.430309772E0,5.371887088E-1
1.620685073E1,1.404796219E1,2.146062851E0,9.200403094E-1
1.622351667E1,1.337109280E1,6.249155521E0,-5.534897804E0
1.624018261E1,5.594120026E0,1.448285770E1,-1.190399361E1
1.625684854E1,1.275045490E1,1.997767639E1,8.886344910E0
1.627351448E1,2.978884697E1,1.901247215E1,3.600001526E1
1.629018042E1,3.006103134E1,1.628495216E1,3.322434235E1
1.630684636E1,1.561705589E1,1.974108505E1,2.019811440E1
1.632351230E1,8.285746574E0,1.837687874E1,1.303699493E1
1.634017823E1,5.918048382E0,1.833530235E1,8.503493309E0
1.635684417E1,5.728716373E0,1.594547081E1,5.358427048E0
1.637351011E1,4.590929508E0,1.249860954E1,4.243371964E0
1.639017604E1,1.902294040E0,9.882357597E0,2.627319336E0
1.640684198E1,-1.299302697E0,8.474480629E0,3.260220885E-1
1.642350792E1,-4.137788773E0,8.176873207E0,-8.817551732E-1
1.644017386E1,-5.866901875E0,8.141280174E0,-3.092723191E-1
1.645683980E1,-8.377571106E0,8.608179092E0,7.923234105E-1
1.647350573E1,-1.255872917E1,1.017906761E1,2.295913219E0
1.649017167E1,-1.624098396E1,1.219950676E1,5.126323223E0
1.650683761E1,-1.645185280E1,1.333310699E1,9.934700966E0
1.652350354E1,-1.041296577E1,1.324905872E1,1.507298851E1
1.654016948E1,-1.995015889E-1,1.213071346E1,1.815703773E1
1.655683542E1,5.955137253E0,1.185882950E1,1.564158249E1
1.657350136E1,7.311269760E0,1.280638695E1,1.185284710E1
1.659016730E1,6.371488571E0,1.605015755E1,1.143948650E1
1.660683323E1,8.988039970E0,1.370758343E1,1.195424271E1
1.662349917E1,1.497219086E1,5.306981564E0,2.135145569E1
1.664016511E1,1.868106461E1,-5.417051315E0,2.588914490E1
1.665683104E1,1.656700706E1,-1.275763321E1,1.897179413E1
1.667349698E1,1.348804188E1,-1.418076420E1,1.211515999E1
1.669016292E1,1.330529022E1,-1.467039585E1,5.366502762E0
1.670682886E1,1.096780205E1,-1.343121243E1,-2.576172590E0
1.672349480E1,7.890332699E0,-1.085623646E1,-9.070592880E0
1.674016073E1,5.867500305E0,-8.110771179E0,-1.237388420E1
1.675682667E1,4.191627026E0,-5.561518192E0,-1.121605682E1
1.677349261E1,2.831008196E0,-3.760919094E0,-7.328019142E0
1.679015854E1,1.704886079E0,-1.984846354E0,-3.779762506E0
1.680682448E1,1.870888233E0,-3.140579537E-2,-7.872386575E-1
1.682349042E1,3.329313517E0,1.975873351E0,9.631111026E-1
1.684015636E1,4.945366383E0,3.749852180E0,9.972088337E-1
1.685682230E1,5.309374332E0,5.543870926E0,-6.520441771E-1
1.687348823E1,4.493721008E0,8.058129311E0,-1.170688510E0
1.689015417E1,3.539582968E0,1.062802124E1,2.207977057E0
1.690682011E1,3.450450182E0,1.169342518E1,8.581559181E0
1.692348604E1,4.680660248E0,1.208524990E1,1.247677517E1
1.694015198E1,7.674978733E0,1.291226959E1,1.258355522E1
1.695681792E1,1.057747269E1,1.456571007E1,9.182157516E0
1.697348386E1,1.190818119E1,1.696630859E1,7.925028801E0
1.699014980E1,1.612672806E1,1.783819389E1,1.496531105E1
1.700681573E1,2.346611214E1,1.665823364E1,2.676521683E1
1.702348167E1,2.757309341E1,1.394895935E1,3.188615608E1
1.704014761E1,2.427817726E1,1.014048290E1,2.327797699E1
1.705681354E1,1.565653801E1,8.772088051E0,1.037468052E1
1.707347948E1,9.999306679E0,1.120199966E1,7.986643791E0
1.709014542E1,1.399980736E1,1.164826107E1,1.513550091E1
1.710681136E1,1.824078560E1,9.155537605E0,1.845853233E1
1.712347730E1,2.126351929E1,6.115157604E0,1.503739452E1
1.714014323E1,2.065873337E1,4.922335148E0,1.097976589E1
1.715680917E1,1.692114449E1,4.162913322E0,1.037468052E1
1.717347511E1,1.392144203E1,3.129812002E0,1.072044373E1
1.719014104E1,1.394955826E1,1.858325839E0,1.134826088E1
1.720680698E1,1.405155182E1,3.879363835E-1,1.066600704E1
1.722347292E1,1.200269794E1,-1.160519004E0,7.368099213E0
1.724013886E1,9.276973724E0,-2.474776745E0,5.150849819E0
1.725680480E1,7.934300900E0,-3.750450373E0,4.135395527E0
1.727347073E1,7.799704552E0,-5.278865814E0,3.079861879E0
1.729013667E1,8.438288689E0,-6.396014690E0,1.861316919E0
1.730680261E1,8.186743736E0,-7.243672371E0,5.952146277E-2
1.732346854E1,6.619145870E0,-7.437191963E0,-1.410868049E0
1.734013448E1,4.960321426E0,-7.356434345E0,-1.120738268E0
1.735680042E1,3.942175388E0,-7.022635460E0,6.595217586E-1
1.737346636E1,4.043570995E0,-6.276074886E0,1.908575177E0
1.739013230E1,5.435595512E0,-5.488536835E0,1.977967024E0
1.740679823E1,6.355037689E0,-3.563211918E0,2.058126688E0
1.742346417E1,7.435098171E0,-1.600499272E0,3.591327667E0
1.744013011E1,8.127820015E0,-1.528415531E-1,5.745466232E0
1.745679604E1,8.231609344E0,6.532405615E-1,6.629913330E0
1.747346198E1,8.102097511E0,1.246361494E0,6.142076492E0
1.749012792E1,7.029514790E0,1.924726725E0,6.257829189E0
1.750679386E1,6.898507595E0,1.615155339E0,6.954140663E0
1.752345980E1,6.265007973E0,9.200403094E-1,6.795018196E0
1.754012573E1,7.074978352E0,1.343569875E0,6.888936520E0
1.755679167E1,1.107936668E1,2.377867460E0,8.628518105E0
1.757345761E1,1.526919937E1,3.349951744E0,9.349655151E0
1.759012354E1,1.733600044E1,4.187439442E0,9.716055870E0
1.760678948E1,1.764018822E1,4.594219685E0,1.119392300E1
1.762345542E1,1.747628021E1,4.543072701E0,1.145145130E1
1.764012136E1,1.586620903E1,5.462814331E0,8.732307434E0
1.765678730E1,1.404287815E1,7.284948349E0,5.223232746E0
1.767345323E1,1.342463207E1,9.294919968E0,1.850848317E0
1.769011917E1,1.260389423E1,1.114935684E1,1.731805354E-1
1.770678511E1,1.107188988E1,1.253779221E1,2.020140409E0
1.772345104E1,9.949655533E0,1.326491165E1,6.328417778E0
1.774011698E1,9.569794655E0,1.327777290E1,8.856734276E0
1.775678292E1,1.033131123E1,1.288893890E1,9.885647774E0
1.777344886E1,1.122622681E1,1.231645679E1,1.121785164E1
1.779011480E1,1.169701481E1,1.141496086E1,1.273998642E1
1.780678073E1,1.203111267E1,1.036989498E1,1.391605854E1
1.782344667E1,1.376800251E1,9.050253868E0,1.669143295E1
1.784011261E1,1.486750412E1,7.000202656E0,1.994597054E1
1.785677854E1,1.531795311E1,4.610072136E0,2.397727966E1
1.787344448E1,1.542024612E1,2.021037817E0,2.681367111E1
1.789011042E1,1.600439453E1,-6.299105883E-1,2.730569649E1
1.790677636E1,1.805294991E1,-3.631407499E0,2.546112823E1
1.792344230E1,1.900708771E1,-5.616852283E0,2.228166580E1
1.794010823E1,1.592034626E1,-7.975277901E0,1.935195351E1
1.795677417E1,9.937093735E0,-1.034506989E1,1.556232071E1
1.797344011E1,4.530510426E0,-1.099860954E1,1.133061314E1
1.799010604E1,1.357627749E0,-1.073539925E1,7.232605457E0
1.800677198E1,5.338985324E-1,-1.045902824E1,2.886940479E0
1.802343792E1,1.287338614E0,-1.055115128E1,-1.380060434E0
1.804010386E1,9.355936646E-1,-1.089242744E1,-3.760919094E0
1.805676980E1,-3.858426511E-1,-1.119571781E1,-4.443471432E0
1.807343573E1,-1.200897813E0,-1.074497032E1,-3.899702787E0
1.809010167E1,6.789634377E-2,-9.734002113E0,-3.383152008E0
1.810676761E1,2.539382935E0,-8.606683731E0,-5.258227825E0
1.812343354E1,4.258625984E0,-7.278368473E0,-7.999804497E0
1.814009948E1,5.307579517E0,-6.807580471E0,-8.049156189E0
1.815676542E1,6.130710602E0,-6.792325974E0,-4.406083584E0
1.817343136E1,8.273183823E0,-6.353542328E0,1.320239902E0
1.819009730E1,1.368365574E1,-3.889832258E0,6.104090691E0
1.820676323E1,2.048555374E1,-1.181157112E0,7.219744205E0
1.822342917E1,2.436940384E1,1.313360572E0,5.452644825E0
1.824009511E1,2.638655281E1,4.803591251E0,9.831211090E0
1.825676104E1,2.881048203E1,8.079665184E0,2.194427681E1
1.827342698E1,2.842792892E1,9.498309135E0,2.751745987E1
1.829009292E1,1.977099609E1,1.137248802E1,2.051097679E1
1.830675886E1,1.102193928E1,1.300349522E1,1.543938923E1
1.832342480E1,6.749554634E0,1.367737389E1,1.516720581E1
1.834009073E1,4.331607342E0,1.283300686E1,1.186002541E1
1.835675667E1,2.423331022E0,1.141944695E1,5.189733028E0
1.837342261E1,1.532902002E0,9.992427826E0,-1.096211910E0
1.839008854E1,-6.580262445E-3,8.089236259E0,-3.442972660E0
1.840675448E1,-2.229811668E0,6.552146435E0,-3.201895714E0
1.842342042E1,-4.862215519E0,6.112764359E0,-2.244766712E0
1.844008636E1,-7.130312443E0,6.628118515E0,-1.435095429E0
1.845675230E1,-7.376772881E0,7.360920429E0,-8.159525394E-1
1.847341823E1,-6.039783478E0,8.384151459E0,6.900302172E-1
1.849008417E1,-3.315255880E0,9.757631302E0,3.634996653E0
1.850675011E1,1.555334687E0,1.176820087E1,8.432905197E0
1.852341604E1,6.363412857E0,1.341356564E1,1.321466255E1
1.854008198E1,8.116454124E0,1.436351585E1,1.577617836E1
1.855674792E1,8.412865639E0,1.570977783E1,1.781665802E1
1.857341386E1,1.229372501E1,1.648565102E1,2.398356056E1
1.859007980E1,1.943899155E1,1.312313652E1,2.885325432E1
1.860674573E1,2.245095825E1,8.332107544E0,2.445913315E1
1.862341167E1,2.104696846E1,5.280062199E0,1.593260956E1
1.864007761E1,1.594367599E1,3.313461065E0,1.016530895E1
1.865674354E1,9.630811691E0,1.493719578E0,8.394021988E0
1.867340948E1,4.951348305E0,-4.214358926E-1,6.839584351E0
1.869007542E1,2.851646423E0,-2.028216362E0,4.807778835E0
1.870674136E1,3.206980467E0,-3.807878017E0,2.600998163E0
1.872340730E1,4.296911240E0,-5.871986866E0,-3.245265782E-1
1.874007323E1,4.567898273E0,-7.409375191E0,-3.620041609E0
1.875673917E1,3.488735437E0,-7.964210987E0,-6.872784615E0
1.877340511E1,2.365903378E0,-7.658827305E0,-9.272188187E0
1.879007104E1,1.488335729E0,-7.274479866E0,-1.014855862E1
1.880673698E1,3.993022740E-1,-6.640980244E0,-9.962218285E0
1.882340292E1,2.003988996E-2,-6.257530212E0,-8.451748848E0
1.884006886E1,1.041476011E0,-6.127121449E0,-5.437390327E0
1.885673480E1,3.876372576E0,-5.691029549E0,-2.531905413E0
1.887340073E1,9.048757553E0,-4.112963200E0,1.109970570E0
1.889006667E1,1.556501198E1,-1.254736423E0,5.770890236E0
1.890673261E1,1.938306046E1,8.838488460E-1,7.039684296E0
1.892339854E1,1.948624992E1,3.782454491E0,7.943572998E0
1.894006448E1,2.268814659E1,8.412566185E0,1.829163361E1
1.895673042E1,2.972992325E1,1.068395329E1,3.040649414E1
1.897339636E1,3.095714378E1,1.260389423E1,2.759762001E1
1.899006230E1,2.300070763E1,1.414547062E1,1.438415432E1
1.900672823E1,1.506222057E1,1.355713463E1,8.630612373E0
1.902339417E1,9.217751503E0,1.204726410E1,9.873982430E0
1.904006011E1,4.993521690E0,1.013928699E1,8.648558617E0
1.905672604E1,1.985743642E0,8.432307243E0,4.987539768E0
1.907339198E1,5.030909777E-1,6.827620506E0,1.858624935E0
1.909005792E1,-1.025922745E-1,5.700002670E0,-9.029914737E-1
1.910672386E1,-1.663310885E0,5.336891651E0,-3.459423304E0
1.912338980E1,-4.453940392E0,5.812166214E0,-4.855037212E0
1.914005573E1,-7.267002583E0,6.442076683E0,-3.910171270E0
1.915672167E1,-8.816654205E0,6.907181740E0,-1.667199135E0
1.917338761E1,-8.320741653E0,6.758826733E0,4.348955154E-1
1.919005354E1,-6.930511475E0,6.423532486E0,1.249651670E0
1.920671948E1,-5.505885124E0,6.891329288E0,7.019943595E-1
1.922338542E1,-3.660719633E0,8.897412300E0,6.741777658E-1
1.924005136E1,-2.811566554E-2,1.255603790E1,4.229313850E0
1.925671730E1,4.496113777E0,1.747029686E1,1.207059383E1
1.927338323E1,8.065009117E0,2.292802620E1,2.078585243E1
1.929004917E1,1.784178352E1,2.471008110E1,2.716242599E1
1.930671511E1,3.282144928E1,2.052712822E1,2.922593498E1
1.932338104E1,3.702414322E1,1.474487209E1,2.237917328E1
1.934004698E1,3.072563744E1,8.934201241E0,1.394267845E1
1.935671292E1,2.028246117E1,4.473680973E0,1.013898754E1
1.937337886E1,1.066122150E1,1.431207061E0,8.367700577E0
1.939004480E1,5.313262463E0,-9.726824164E-1,6.641279221E0
1.940671073E1,3.894917011E0,-3.044268608E0,3.582055569E0
1.942337667E1,3.680460215E0,-4.890929699E0,-4.749752879E-1
1.944004261E1,3.104687452E0,-6.607480526E0,-3.518346548E0
1.945670854E1,1.866700768E0,-8.053941727E0,-5.573482037E0
1.947337448E1,3.083750308E-1,-8.733503342E0,-7.100701332E0
1.949004042E1,-7.540382147E-1,-8.938090324E0,-7.869395256E0
1.950670636E1,-8.204390407E-1,-9.190832138E0,-8.175975800E0
1.952337230E1,-4.133601189E-1,-9.103194237E0,-8.365905762E0
1.954003823E1,3.251247704E-1,-8.493324280E0,-7.708477974E0
1.955670417E1,2.138884306E0,-8.094321251E0,-5.894120216E0
1.957337011E1,5.355735302E0,-7.499405384E0,-3.699602842E0
1.959003604E1,1.030857944E1,-5.978766441E0,-3.227319419E-1
1.960670198E1,1.504158211E1,-3.771985769E0,3.567698479E0
1.962336792E1,1.890718651E1,-1.405484200E0,3.474976778E0
1.964003386E1,1.694507217E1,2.805285454E0,-1.187139153E0
1.965669980E1,1.590748501E1,9.219246864E0,5.659025669E0
1.967336573E1,2.742683220E1,1.308126259E1,2.653191566E1
1.969003167E1,3.542484283E1,1.228654575E1,3.403221893E1
1.970669761E1,2.946521759E1,1.097378349E1,2.692164803E1
1.972336354E1,1.763540268E1,1.090409279E1,1.870140457E1
1.974002948E1,8.989535332E0,1.028644562E1,1.236879921E1
1.975669542E1,4.216751575E0,9.633803368E0,7.714759350E0
1.977336136E1,2.160120726E0,8.465507507E0,4.870889664E0
1.979002730E1,1.406381488E0,7.006783009E0,3.440878868E0
1.980669323E1,1.025623560E0,5.834000587E0,2.454736948E0
1.982335917E1,5.042873621E-1,5.053043365E0,3.888336718E-1
1.984002511E1,-5.682953633E-3,4.582554340E0,-1.748555183E0
1.985669104E1,-7.115656137E-1,4.283750534E0,-2.668296337E0
1.987335698E1,-1.552343726E0,4.134797573E0,-2.571087837E0
1.989002292E1,-2.052443504E0,4.265505314E0,-2.218445778E0
1.990668886E1,-2.578565598E0,4.613361835E0,-1.884347796E0
1.992335480E1,-3.121736288E0,4.933402061E0,-1.742274046E0
1.994002073E1,-3.408575773E0,5.043172836E0,-2.021636009E0
1.995668667E1,-3.731606960E0,4.912764072E0,-2.448156595E0
1.997335261E1,-3.554837227E0,5.009972572E0,-1.430309772E0
1.999001854E1,-1.416850090E0,6.025725842E0,7.567301393E-1
2.000668448E1,2.919542789E0,7.853542805E0,3.240779161E0
2.002335042E1,7.549953461E0,1.125015450E1,6.365506649E0
2.004001636E1,9.579665184E0,1.555843163E1,9.938289642E0
2.005668230E1,1.896910095E1,1.393161201E1,1.687059593E1
2.007334823E1,3.296322632E1,1.056999493E1,2.688964272E1
2.009001417E1,4.217977905E1,4.713561535E0,3.220739365E1
2.010668011E1,3.819094467E1,-9.424729943E-1,2.881137848E1
2.012334604E1,2.471636200E1,-3.267399311E0,1.927717781E1
2.014001198E1,1.257099247E1,-3.215355396E0,9.136096001E0
2.015667792E1,5.748756409E0,-3.042174816E0,2.524727106E0
2.017334386E1,2.974876642E0,-2.804986238E0,-8.563314080E-1
2.019000980E1,3.254238844E0,-3.661616802E0,-3.283251762E0
2.020667573E1,3.271287680E0,-4.115654945E0,-6.375376701E0
2.022334167E1,2.651247501E0,-4.217648983E0,-1.002473068E1
2.024000761E1,1.658525229E0,-4.283750534E0,-1.234666538E1
2.025667354E1,6.681957245E-1,-4.416253090E0,-1.164885902E1
2.027333948E1,4.501497746E-1,-4.615455627E0,-9.067900658E0
2.029000542E1,1.010668516E0,-5.101198673E0,-6.043671608E0
2.030667136E1,1.954038739E0,-5.686244011E0,-4.550849438E0
2.032333730E1,3.399004459E0,-6.372385979E0,-4.374977112E0
2.034000323E1,5.269294739E0,-6.407081604E0,-3.914358854E0
2.035666917E1,8.465806961E0,-6.141777515E0,-1.832303882E0
2.037333511E1,1.316830158E1,-6.028716564E0,1.771586061E0
2.039000104E1,1.716042709E1,-6.129514217E0,4.405485630E0
2.040666698E1,1.604866219E1,-1.074078321E0,7.177271366E0
2.042333292E1,2.385823631E1,3.389732361E0,2.027947044E1
2.043999886E1,3.751975632E1,4.555634975E0,3.569612885E1
2.045666480E1,3.832344818E1,9.571290612E-1,3.707020569E1
2.047333073E1,2.399851608E1,5.176273346E0,2.634617424E1
2.048999667E1,1.200897884E1,5.038087845E0,1.286650658E1
2.050666261E1,5.656632900E0,6.317350864E0,3.227618694E0
2.052332855E1,4.185944080E0,7.296613693E0,-1.551745534E0
2.053999448E1,4.647459984E0,6.699604511E0,-2.831307411E0
2.055666042E1,4.424029827E0,6.011966705E0,-2.942274570E0
2.057332636E1,3.536292791E0,5.053043365E0,-2.835195780E0
2.058999230E1,2.503490686E0,4.228416920E0,-2.513062000E0
2.060665823E1,1.133898854E0,3.442075491E0,-1.465902925E0
2.062332417E1,-1.743769497E-1,3.065804005E0,-1.606182158E-1
2.063999011E1,-7.686942816E-1,2.910569668E0,9.008977413E-1
2.065665605E1,-7.737790346E-1,3.059522867E0,1.514058471E0
2.067332198E1,-6.903293133E-1,3.341876030E0,1.063908815E0
2.068998792E1,-5.228317380E-1,3.278765202E0,-5.309075117E-1
2.070665386E1,-3.849453330E-1,3.249752283E0,-1.491027594E0
2.072331980E1,-2.784647346E-1,2.982653379E0,-1.565504193E0
2.073998573E1,2.635096014E-1,3.440878868E0,-8.754739761E-1
2.075665167E1,2.523530483E0,4.368695736E0,1.028315544E0
2.077331761E1,5.785545826E0,5.720939636E0,3.536292791E0
2.078998355E1,8.986245155E0,8.391927719E0,5.358427048E0
2.080664948E1,1.655982780E1,8.490034103E0,9.182157516E0
2.082331542E1,2.741815758E1,6.887740135E0,1.672792435E1
2.083998136E1,3.583820343E1,1.401296735E0,2.308146667E1
2.085664730E1,3.295694351E1,-5.220541000E0,2.609313202E1
2.087331323E1,1.615394592E1,-1.903490424E0,2.382712936E1
2.088997917E1,5.763711452E0,-2.410768867E-1,1.704048729E1
2.090664511E1,4.396213531E0,1.179063320E0,1.262393379E1
2.092331105E1,5.988337994E0,3.031108141E0,8.905786514E0
2.093997698E1,7.811668396E0,3.690330744E0,6.366104603E0
2.095664292E1,9.323932648E0,4.283152580E0,4.869693279E0
2.097330886E1,9.285049438E0,4.481457710E0,4.413262367E0
2.098997480E1,7.770691395E0,4.494019985E0,5.053940296E0
2.100664073E1,6.067001820E0,4.281657219E0,5.847161293E0
2.102330667E1,4.580460548E0,4.002295017E0,5.758626938E0
2.103997261E1,4.275974274E0,3.498605728E0,6.312266350E0
2.105663855E1,4.989633560E0,2.847458839E0,5.950950146E0
2.107330448E1,5.108078003E0,2.360220432E0,5.864210129E0
2.108997042E1,4.822434902E0,1.311266780E0,5.102694511E0
2.110663636E1,3.708575964E0,1.110867858E0,4.392923355E0
2.112330230E1,2.817847729E0,7.163512707E-1,3.993321896E0
2.113996823E1,2.327319145E0,3.158525825E-1,3.812364578E0
2.115663417E1,1.950449586E0,1.223330572E-1,3.442075491E0
2.117330011E1,2.347957134E0,9.272187948E-3,3.145963669E0
2.118996605E1,2.924029350E0,-1.677966863E-1,3.365504980E0
2.120663198E1,3.125026464E0,-2.584248483E-1,4.210171223E0
2.122329792E1,3.640380621E0,-1.037886813E-1,5.230710506E0
2.123996386E1,4.194618225E0,3.978067636E-1,6.983751774E0
2.125662980E1,4.538885593E0,8.676972985E-1,8.959027290E0
2.127329573E1,4.085445404E0,1.427019596E0,1.012253666E1
2.128996167E1,5.691627979E0,1.363011599E0,1.298315620E1
2.130662761E1,6.282654762E0,1.453639746E0,1.741705704E1
2.132329355E1,6.364609241E0,1.609771490E0,2.048166466E1
2.133995948E1,5.506782055E0,2.319542408E0,2.025763702E1
2.135662542E1,3.856930971E0,3.042474031E0,1.782263947E1
2.137329136E1,2.576471806E0,3.925724745E0,1.437906933E1
2.138995730E1,1.862214208E0,4.670490742E0,1.161954689E1
2.140662323E1,2.085345030E0,5.039284706E0,9.987641335E0
2.142328917E1,1.439581871E0,5.134399414E0,8.464012146E0
2.143995511E1,2.581257343E0,4.988736153E0,6.661917210E0
2.145662105E1,5.051248550E0,2.870190859E0,6.835696220E0
2.147328698E1,4.941776752E0,2.590529680E0,9.984052658E0
2.148995292E1,3.592225075E0,1.744367719E0,7.619046211E0
2.150661886E1,2.666501760E0,1.220937729E0,6.715456963E0
2.152328480E1,2.089233160E0,1.293918848E0,6.615556240E0
2.153995073E1,9.005986452E-1,1.358525038E0,6.383452415E0
2.155661667E1,1.032503009E0,1.789532185E0,6.332904339E0
2.157328261E1,1.263410330E0,2.767598391E0,6.167799473E0
2.158994855E1,1.267896891E0,3.904189348E0,5.879165173E0
2.160661448E1,1.322333574E0,4.587639332E0,5.656931877E0
2.162328042E1,1.774577141E0,5.133202553E0,6.157330990E0
2.163994636E1,1.345962763E0,5.726323605E0,6.977769852E0
2.165661230E1,7.226324677E-1,5.449055195E0,7.114758968E0
2.167327823E1,7.199404836E-1,4.095315933E0,5.774778366E0
2.168994417E1,5.374878049E-1,4.161118507E0,5.680262089E0
2.170661011E1,-5.324030519E-1,5.509174824E0,7.531708241E0
2.172327605E1,-1.585245013E0,6.765407085E0,9.191130638E0
2.173994198E1,-1.803889155E0,5.898606777E0,1.004925728E1
2.175660792E1,-1.386341572E0,3.715455294E0,1.070608711E1
2.177327386E1,-2.667698145E0,4.521836758E0,1.098724365E1
2.178993980E1,-3.087937593E0,5.248058319E0,1.064536858E1
2.180660573E1,-3.130410194E0,5.203192711E0,1.004237747E1
2.182327167E1,-3.217449188E0,5.009673119E0,9.328718185E0
2.183993761E1,-3.345764160E0,4.790431023E0,8.924630165E0
2.185660355E1,-3.916153431E0,4.999803066E0,8.741579056E0
2.187326948E1,-4.260719776E0,5.239085197E0,8.320442200E0
2.188993542E1,-4.308576107E0,5.207081318E0,8.146663666E0
2.190660136E1,-4.524229527E0,5.275276661E0,7.815258026E0
2.192326730E1,-5.325825214E0,5.398507118E0,7.701000690E0
2.193993323E1,-5.323431969E0,5.088935375E0,7.625327587E0
2.195659917E1,-5.048556805E0,5.205286503E0,7.851748466E0
2.197326511E1,-3.981956005E0,5.205585480E0,8.234899521E0
2.198993105E1,-3.289233923E0,4.952245712E0,8.059326172E0
2.200659698E1,-4.023531437E0,4.956732273E0,7.247261524E0
2.202326292E1,-4.418646336E0,4.885844707E0,7.152146816E0
2.203992886E1,-4.261617184E0,4.774279594E0,7.980362415E0
2.205659480E1,-3.705883980E0,4.551447868E0,8.808578491E0
2.207326073E1,-3.605983734E0,4.555934429E0,8.665307999E0
2.208992667E1,-3.718147278E0,4.665405750E0,7.954639912E0
2.210659261E1,-3.387638569E0,4.620540619E0,7.487142086E0
2.212325855E1,-2.871686220E0,4.414458752E0,7.232306480E0
2.213992448E1,-3.133102179E0,4.528117657E0,7.135995388E0
2.215659042E1,-3.438785315E0,4.485645294E0,7.334001541E0
2.217325636E1,-3.418147087E0,4.440181732E0,7.588238716E0
2.218992230E1,-3.342474222E0,4.347459793E0,7.691429138E0
2.220658823E1,-3.389732361E0,4.385744572E0,7.753942013E0
2.222325417E1,-3.229712248E0,4.473083019E0,7.981858253E0
2.223992011E1,-3.062214851E0,4.485046864E0,8.133204460E0
2.225658605E1,-3.260818958E0,4.701298237E0,8.323433876E0
2.227325198E1,-3.409473181E0,4.674977303E0,8.404789925E0
2.228991792E1,-3.300300598E0,4.707878590E0,8.140681267E0
2.230658386E1,-3.196511984E0,4.754239559E0,7.780860901E0
2.232324980E1,-3.193820000E0,4.575376034E0,7.525127888E0
2.233991573E1,-3.325425386E0,4.516153812E0,7.343273640E0
2.235658167E1,-4.057928085E0,4.613960266E0,7.032206535E0
2.237324761E1,-4.095016956E0,4.575675011E0,9.893424034E0
2.238991355E1,-4.196412563E0,4.576871395E0,1.067228794E1
2.240657948E1,-4.037290096E0,4.471587181E0,9.744471550E0
2.242324542E1,-3.672384501E0,4.381856441E0,8.709276199E0
2.243991136E1,-3.753441334E0,4.336392879E0,7.056733131E0
