"Time (s)","Gyroscope x (rad/s)","Gyroscope y (rad/s)","Gyroscope z (rad/s)"
2.422542000E-2,-5.988765359E-1,-5.810851455E-1,2.596175298E-3
4.089135700E-2,-3.425424397E-1,-3.220784664E-1,-1.924224012E-2
5.755729500E-2,-1.563050300E-1,-2.001345754E-1,-3.367391974E-2
7.422323200E-2,-1.275180280E-1,-2.087630332E-1,-5.276344717E-2
9.088917000E-2,-1.427132785E-1,-2.209803313E-1,-9.002619982E-2
1.075551070E-1,-1.696676910E-1,-2.528216541E-1,-1.195767820E-1
1.242210450E-1,-2.249509543E-1,-2.265544683E-1,-1.579848975E-1
1.408869820E-1,-3.045161068E-1,-9.552398324E-2,-1.955530941E-1
1.575529200E-1,-3.741546869E-1,3.817904799E-4,-1.954767257E-1
1.742188570E-1,-3.911061883E-1,-1.198822167E-2,-2.086103261E-1
1.908847950E-1,-3.384954333E-1,-9.193515033E-2,-1.764635593E-1
2.075507320E-1,-2.005927265E-1,-1.679878086E-1,-9.002619982E-2
2.242166700E-1,-5.261072889E-2,-1.043051630E-1,-4.703658819E-2
2.408826070E-1,5.146535859E-2,3.749182448E-2,-1.053741761E-2
2.575485450E-1,1.040760875E-1,1.492037177E-1,1.685223281E-1
2.742144820E-1,-2.474002354E-2,-4.008800164E-2,2.621373534E-1
2.908804200E-1,-2.167042792E-1,-4.284452796E-1,3.501782417E-1
3.075463570E-1,-4.148535430E-1,-8.331431746E-1,5.497782826E-1
3.242122950E-1,-5.171734095E-1,-1.126510978E0,7.863357067E-1
3.408782320E-1,-4.962512851E-1,-1.147814870E0,9.663116932E-1
3.575441700E-1,-5.499309897E-1,-1.036637545E0,9.789108038E-1
3.742101070E-1,-8.749874234E-1,-8.194751143E-1,8.080977201E-1
3.908760450E-1,-1.241659045E0,-7.880918980E-1,5.717694163E-1
4.075419820E-1,-1.414457440E0,-7.824414372E-1,4.567741454E-1
4.242079200E-1,-1.479209065E0,-7.174606919E-1,6.215549111E-1
4.408738570E-1,-1.547244072E0,-5.763509274E-1,7.037925720E-1
4.575397950E-1,-1.495167851E0,-3.052033186E-1,6.140718460E-1
4.742057320E-1,-1.316642642E0,4.046979360E-3,3.242164850E-1
4.908716700E-1,-9.859357476E-1,5.320632458E-1,1.964693815E-1
5.075376070E-1,-6.786707640E-1,1.066722631E0,2.418260872E-1
5.242035450E-1,-4.198168218E-1,1.103909016E0,2.265544683E-1
5.408694820E-1,-1.062141135E-1,6.095666885E-1,1.750891209E-1
5.575354200E-1,1.442404389E-1,6.146826968E-2,-3.023780696E-2
5.742013570E-1,2.079994529E-1,-3.374264240E-1,-1.413388401E-1
5.908672950E-1,6.391172856E-2,-2.762635946E-1,-3.866010606E-1
6.075332320E-1,-4.795288667E-2,-1.259144992E-1,-7.864884138E-1
6.241991700E-1,-1.019380614E-1,-1.718820781E-1,-8.081740737E-1
6.408651070E-1,-7.185296714E-2,-1.737146676E-1,-9.206495881E-1
6.575310450E-1,4.581485689E-2,-2.615264952E-1,-1.031063437E0
6.741969820E-1,2.234237939E-1,-2.519817352E-1,-9.355394244E-1
6.908629200E-1,4.164570570E-1,-9.575305134E-2,-5.465712547E-1
7.075288570E-1,6.369792223E-1,-1.572976857E-1,-1.043815166E-1
7.241947950E-1,8.376483321E-1,-3.135263622E-1,2.916879393E-2
7.408607320E-1,9.578359723E-1,-4.675406218E-1,-3.627009690E-2
7.575266700E-1,9.801325202E-1,-5.628355145E-1,-9.659299254E-2
7.741926070E-1,9.538653493E-1,-5.327504277E-1,-1.810450554E-1
7.908585450E-1,8.857539296E-1,-5.662716627E-1,-2.310595959E-1
8.075244820E-1,7.938951254E-1,-5.918515921E-1,-2.569449842E-1
8.241904200E-1,7.121156454E-1,-5.344303250E-1,-2.722929716E-1
8.408563570E-1,6.349175572E-1,-5.364919901E-1,-2.665661275E-1
8.575222950E-1,5.390118361E-1,-4.870882928E-1,-3.286452591E-1
8.741882320E-1,4.159225523E-1,-4.700604379E-1,-3.917170465E-1
8.908541700E-1,3.413206935E-1,-4.563923478E-1,-4.213439822E-1
9.075201070E-1,3.158934414E-1,-3.150535226E-1,-3.702604175E-1
9.241860450E-1,2.667188346E-1,-2.095266134E-1,-1.955530941E-1
9.408519820E-1,1.589775532E-1,-1.276707351E-1,-3.581194952E-2
9.575179200E-1,2.557996288E-2,-4.749473557E-2,1.320995111E-2
9.741838570E-1,-8.353576064E-2,-1.580612548E-2,-1.977674663E-2
9.908497950E-1,-1.169042438E-1,-2.206749097E-2,-9.437860548E-2
1.007515732E0,-3.573558852E-2,-5.291616172E-2,-1.678351015E-1
1.024181670E0,1.046869531E-1,-1.309541315E-1,-2.072358727E-1
1.040847607E0,2.644280791E-1,-1.766162813E-1,-1.964693815E-1
1.057513545E0,3.940077722E-1,-7.040216774E-2,-1.618791670E-1
1.074179482E0,3.669006526E-1,-4.932733253E-2,-1.421787739E-1
1.090845420E0,2.193768173E-1,-1.072831303E-1,-1.087339297E-1
1.107511357E0,9.040798992E-2,3.283398226E-3,-6.330086291E-2
1.124177295E0,-1.580612548E-2,1.143080741E-1,-1.511890348E-2
1.140843232E0,-1.425605714E-1,1.450803876E-1,2.680169232E-2
1.157509170E0,-2.258672565E-1,1.875354946E-1,3.978256881E-2
1.174175107E0,-2.062432170E-1,1.824194938E-1,4.978547990E-2
1.190841045E0,-1.104901657E-1,6.146826968E-2,7.284562290E-2
1.207506982E0,3.764454275E-2,-3.023780696E-2,6.856957078E-2
1.224172920E0,1.498145908E-1,-4.886918236E-3,3.756818548E-2
1.240838857E0,1.819613427E-1,1.924224012E-2,6.108647678E-3
1.257504795E0,1.925751269E-1,1.496618707E-2,-1.069013402E-2
1.274170732E0,2.005927265E-1,-8.628465235E-3,-1.359174121E-2
1.290836670E0,2.091448307E-1,-2.893971838E-2,-2.313650399E-2
1.307502607E0,2.264781147E-1,-8.170315996E-3,-3.382663801E-2
1.324168545E0,2.651916742E-1,4.780016840E-2,-4.589121789E-2
1.340834482E0,2.816850245E-1,5.642863363E-2,-6.811141968E-2
1.357500420E0,2.677878439E-1,4.123337194E-2,-9.086613357E-2
1.374166357E0,2.402989268E-1,5.742128938E-2,-1.199585721E-1
1.390832295E0,2.086103261E-1,4.986183718E-2,-1.323285848E-1
1.407498232E0,1.750891209E-1,4.818195850E-2,-1.188895553E-1
1.424164170E0,1.498909444E-1,7.383827865E-2,-9.537126124E-2
1.440830107E0,1.299614757E-1,1.406516135E-1,-1.030070707E-1
1.457496045E0,1.262199283E-1,2.060905099E-1,-1.384372264E-1
1.474161982E0,1.601229310E-1,2.216675580E-1,-1.773798615E-1
1.490827920E0,2.278525680E-1,1.499672979E-1,-1.899025887E-1
1.507493857E0,2.998582423E-1,-1.282816008E-2,-1.457676142E-1
1.524159795E0,3.513236046E-1,-4.871646687E-2,-9.193515033E-2
1.540825732E0,3.091739416E-1,-6.734783947E-2,-7.490729541E-2
1.557491670E0,2.442695498E-1,-3.237583488E-2,-9.888373315E-2
1.574157607E0,1.929569095E-1,-5.115992390E-3,-1.392008066E-1
1.590823545E0,1.159879491E-1,6.872228696E-4,-1.873827726E-1
1.607489482E0,5.612320080E-2,1.176678315E-1,-1.642462611E-1
1.624155420E0,7.101303339E-2,1.597411335E-1,-1.157588735E-1
1.640821357E0,1.317177117E-1,1.216384470E-1,-1.343138963E-1
1.657487295E0,1.744782478E-1,7.620538026E-2,-1.517235339E-1
1.674153232E0,1.940259188E-1,8.208495378E-2,-1.421024203E-1
1.690819170E0,1.708894223E-1,1.004872546E-1,-1.505781710E-1
1.707485107E0,1.245400533E-1,1.207985133E-1,-1.707367003E-1
1.724151045E0,4.749473557E-2,1.093447953E-1,-1.605047137E-1
1.740816982E0,-6.490438245E-3,6.192641705E-2,-1.501963735E-1
1.757482920E0,3.970621154E-3,-1.488982886E-2,-1.317940801E-1
1.774148857E0,7.597630471E-2,-5.818486959E-2,-1.049923822E-1
1.790814795E0,1.401934624E-1,-2.703076601E-2,-8.636100590E-2
1.807480732E0,9.995274991E-2,2.191477455E-2,-8.918625861E-2
1.824146670E0,-6.719512399E-3,9.812015295E-2,-1.175914705E-1
1.840812607E0,-8.109229803E-2,1.659261435E-1,-1.421024203E-1
1.857478545E0,-1.230892539E-1,1.339320987E-1,-1.257617921E-1
1.874144482E0,-1.017089859E-1,6.307178736E-2,-8.865175396E-2
1.890810420E0,-2.557996288E-2,2.672533318E-2,-7.666353136E-2
1.907476357E0,6.490438245E-3,1.107192412E-2,-4.260781780E-2
1.924142295E0,-3.207040019E-3,-1.916588284E-2,6.719512399E-3
1.940808232E0,-1.221729559E-3,-3.397935256E-2,2.512181364E-2
1.957474170E0,8.475748822E-3,5.345067009E-3,2.542724647E-2
1.974140107E0,4.581485991E-4,4.505127668E-3,2.893971838E-2
1.990806045E0,5.726857111E-3,-1.740964688E-2,2.122755162E-2
2.007471982E0,4.474584386E-2,-2.901607659E-3,-9.239329956E-3
2.024137920E0,9.094249457E-2,4.665479809E-2,-3.703367710E-2
2.040803857E0,1.078939885E-1,7.719803602E-2,-3.443750367E-2
2.057469795E0,1.127045527E-1,5.482511222E-2,2.290742996E-4
2.074135732E0,1.211803034E-1,-4.657844082E-3,4.444041103E-2
2.090801670E0,8.506292105E-2,-1.672242396E-2,5.826122686E-2
2.107467607E0,-3.512472380E-3,2.076940238E-2,3.008509055E-2
2.124133545E0,-6.276635826E-2,7.597630471E-2,-2.092211880E-2
2.140799482E0,-3.970621154E-2,8.712458611E-2,-2.947422490E-2
2.157465420E0,1.847865991E-2,7.536543906E-2,5.726857111E-3
2.174131357E0,5.978839099E-2,3.871355578E-2,4.825831577E-2
2.190797295E0,5.398517475E-2,-7.101302966E-3,6.253728271E-2
2.207463232E0,2.374736778E-2,-1.244636998E-2,4.505127668E-2
2.224129170E0,4.046979360E-3,1.794415340E-2,6.261364091E-3
2.240795107E0,9.926552884E-4,4.612028971E-2,-1.733328775E-2
2.257461045E0,1.725693047E-2,5.650499091E-2,-1.229365356E-2
2.274126982E0,3.581194952E-2,3.214675933E-2,5.650499370E-3
2.290792920E0,3.810269013E-2,-1.908952487E-3,4.405862093E-2
2.307458857E0,5.016727000E-2,-1.534797717E-2,7.108938694E-2
2.324124795E0,7.498364896E-2,2.367100911E-3,7.192932814E-2
2.340790732E0,7.528908551E-2,3.061959706E-2,7.292198390E-2
2.357456670E0,6.001746282E-2,5.597048625E-2,7.276926935E-2
2.374122607E0,6.826414168E-2,6.528617442E-2,8.139773458E-2
2.390788545E0,8.964440972E-2,6.360629201E-2,9.804379940E-2
2.407454482E0,1.022434905E-1,5.077813566E-2,8.926261961E-2
2.424120420E0,1.027780026E-1,5.986474827E-2,7.154753804E-2
2.440786357E0,9.498947114E-2,9.170607477E-2,7.101303339E-2
2.457452295E0,7.536543906E-2,1.089630052E-1,7.841976732E-2
2.474118232E0,7.170025259E-2,1.138499230E-1,7.834340632E-2
2.490784170E0,7.582359016E-2,1.007926911E-1,7.712167501E-2
2.507450107E0,7.299833745E-2,9.162971377E-2,7.979421318E-2
2.524116045E0,7.406735420E-2,7.819069177E-2,8.918625861E-2
2.540781982E0,7.803797722E-2,8.666644245E-2,8.811724186E-2
2.557447920E0,6.772962958E-2,1.001054645E-1,8.567378670E-2
2.574113857E0,7.429642975E-2,1.012508348E-1,1.007926911E-1
2.590779795E0,1.014799103E-1,7.666353136E-2,1.100320220E-1
2.607445732E0,1.001818255E-1,5.031998456E-2,1.130099818E-1
2.624111670E0,6.719512492E-2,4.894553870E-2,1.103374511E-1
2.640777607E0,3.611737862E-2,7.070759684E-2,1.037706509E-1
2.657443545E0,3.428478539E-2,9.246965498E-2,9.468404204E-2
2.674109482E0,4.176788032E-2,8.315397054E-2,1.000291109E-1
2.690775420E0,5.658135191E-2,6.856957078E-2,1.072831303E-1
2.707441357E0,6.062832847E-2,6.841685623E-2,1.135444939E-1
2.724107295E0,3.497200832E-2,6.604975462E-2,1.159879491E-1
2.740773232E0,2.901607752E-2,6.414080411E-2,1.092684343E-1
2.757439170E0,5.650499091E-2,7.788526267E-2,1.056032479E-1
2.774105107E0,9.208786488E-2,1.071304083E-1,1.282052398E-1
2.790771045E0,1.417206228E-1,1.042288020E-1,1.533270627E-1
2.807436982E0,1.689041108E-1,4.818195850E-2,1.507308781E-1
2.824102920E0,1.614973694E-1,-4.505127668E-3,1.244636998E-1
2.840768857E0,1.211803034E-1,-7.406735327E-3,9.651663154E-2
2.857434795E0,4.489856213E-2,3.229947388E-2,4.749473557E-2
2.874100732E0,-7.330377586E-3,6.887500733E-2,1.275180187E-2
2.890766670E0,-1.282816008E-2,9.689842910E-2,-5.879573524E-3
2.907432607E0,-1.267544460E-2,8.643736690E-2,-3.092502989E-2
2.924098545E0,-2.214384731E-3,6.643154658E-3,-1.165224537E-1
2.940764482E0,-2.871064469E-2,-5.665770918E-2,-1.702785641E-1
2.957430420E0,-1.278998107E-1,-5.703949928E-2,-2.334267050E-1
2.974096357E0,-1.881463528E-1,-1.786779426E-2,-2.644280791E-1
2.990762295E0,-1.189659163E-1,1.313359290E-2,-2.601520419E-1
3.007428232E0,3.321577236E-2,-4.337139800E-2,-2.170097083E-1
3.024094170E0,1.419496983E-1,-1.039233729E-1,-1.521816850E-1
3.040760107E0,1.294269711E-1,-1.414915472E-1,-1.356119812E-1
3.057426045E0,4.482220486E-2,-2.030361742E-1,-1.892917305E-1
3.074091982E0,-4.222602770E-2,-2.449567765E-1,-2.656498253E-1
3.090757920E0,-1.340848207E-1,-2.418260872E-1,-2.906952798E-1
3.107423857E0,-2.110537887E-1,-2.157879770E-1,-2.792415619E-1
3.124089795E0,-2.031125426E-1,-2.241873741E-1,-2.210566849E-1
3.140755732E0,-9.010255337E-2,-2.380845547E-1,-1.301141977E-1
3.157421670E0,4.848739132E-2,-2.078467458E-1,-1.033125073E-1
3.174087607E0,1.056796089E-1,-1.924224049E-1,-1.540906429E-1
3.190753545E0,3.161225095E-2,-2.590066791E-1,-2.448040545E-1
3.207419482E0,-1.398116797E-1,-3.276526034E-1,-3.200167716E-1
3.224085420E0,-2.598465979E-1,-2.930623889E-1,-3.715584874E-1
3.240751357E0,-2.318995446E-1,-1.704312712E-1,-3.670533597E-1
3.257417295E0,-1.162933856E-1,-9.109520912E-2,-3.335321844E-1
3.274083232E0,1.527161949E-4,-6.070468575E-2,-3.091739416E-1
3.290749170E0,2.909243479E-2,-7.131846249E-2,-3.008508980E-1
3.307415107E0,-2.779434808E-2,-1.061377525E-1,-3.164279461E-1
3.324081045E0,-1.088866442E-1,-1.722638607E-1,-3.300196826E-1
3.340746982E0,-1.421024203E-1,-2.422078848E-1,-3.045161068E-1
3.357412920E0,-1.369100660E-1,-2.579376400E-1,-2.324340492E-1
3.374078857E0,-1.646280587E-1,-1.819613427E-1,-1.418733448E-1
3.390744795E0,-2.512944937E-1,-1.107956022E-1,-6.467530876E-2
3.407410732E0,-3.103956580E-1,-1.150716543E-1,-2.206749097E-2
3.424076670E0,-2.619846463E-1,-1.971566081E-1,-1.298087649E-3
3.440742607E0,-1.173623949E-1,-2.283107042E-1,4.344775900E-2
3.457408545E0,5.192350596E-3,-1.805869043E-1,1.053741723E-1
3.474074482E0,3.726275265E-2,-1.443168074E-1,1.600465775E-1
3.490740420E0,1.145371422E-2,-1.682168841E-1,1.790597439E-1
3.507406357E0,-1.275180187E-2,-2.521344423E-1,1.676060259E-1
3.524072295E0,5.192350596E-3,-2.935205400E-1,1.367573589E-1
3.540738232E0,9.560033679E-2,-2.318231910E-1,9.453132749E-2
3.557404170E0,1.769217104E-1,-1.619555205E-1,6.849320978E-2
3.574070107E0,1.903607398E-1,-1.341611743E-1,7.521272451E-2
3.590736045E0,1.548542231E-1,-1.556178033E-1,7.093667239E-2
3.607401982E0,1.065959036E-1,-1.860846877E-1,2.008217946E-2
3.624067920E0,4.497491941E-2,-1.952476501E-1,-7.047852129E-2
3.640733857E0,-3.054323979E-2,-1.764635593E-1,-1.508836001E-1
3.657399795E0,-8.139773458E-2,-8.941533417E-2,-1.569922417E-1
3.674065732E0,-8.170316368E-2,4.581485991E-4,-1.482874304E-1
3.690731670E0,-5.612320080E-2,5.787943676E-2,-1.356119812E-1
3.707397607E0,-5.482511222E-2,6.933315098E-2,-1.167515293E-1
3.724063545E0,-5.093085021E-2,8.208495378E-2,-9.002619982E-2
3.740729482E0,-2.741255611E-2,9.468404204E-2,-6.024653837E-2
3.757395420E0,-1.130099874E-2,7.757982612E-2,-4.657844082E-3
3.774061357E0,6.108647678E-3,2.557996288E-2,4.360047355E-2
3.790727295E0,2.260199748E-2,3.741546767E-3,6.498073786E-2
3.807393232E0,1.229365356E-2,4.253146052E-2,1.036942974E-1
3.824059170E0,2.138026804E-2,4.986183718E-2,1.510363221E-1
3.840725107E0,6.994401664E-2,-1.603520103E-2,1.881463528E-1
3.857391045E0,1.138499230E-1,-9.246965498E-2,2.007454336E-1
3.874056982E0,1.262962967E-1,-1.747836918E-1,1.675296724E-1
3.890722920E0,1.396589577E-1,-2.276998460E-1,1.335503161E-1
3.907388857E0,1.477529258E-1,-2.096793354E-1,1.510363221E-1
3.924054795E0,1.488982886E-1,-1.804341823E-1,1.798233241E-1
3.940720732E0,1.631008983E-1,-1.697440445E-1,2.190713882E-1
3.957386670E0,1.501200199E-1,-1.559232324E-1,2.223547846E-1
3.974052607E0,1.125518382E-1,-1.278234571E-1,2.067777216E-1
3.990718545E0,6.284271181E-2,-1.282052398E-1,1.844048053E-1
4.007384482E0,2.947422490E-2,-1.146898642E-1,1.494327933E-1
4.024050420E0,2.504545636E-2,-5.535962060E-2,1.244636998E-1
4.040716357E0,1.863137633E-2,3.191768378E-2,1.162170246E-1
4.057382295E0,1.244636998E-2,6.093376130E-2,1.224783882E-1
4.074048232E0,1.191186346E-2,2.764163166E-2,1.417969912E-1
4.090714170E0,7.712167688E-3,-1.542433538E-2,1.275943816E-1
4.107380107E0,-1.939495653E-2,-6.062832847E-2,7.918334752E-2
4.124046045E0,-7.093667239E-2,-5.650499091E-2,2.550360374E-2
4.140711982E0,-1.120936871E-1,-3.871355578E-2,1.168278884E-2
4.157377920E0,-1.211803034E-1,-1.756236330E-2,2.084576152E-2
4.174043857E0,-1.049923822E-1,-1.511890348E-2,2.313650399E-2
4.190709795E0,-9.361502528E-2,-2.993237413E-2,3.069595434E-2
4.207375732E0,-7.658717036E-2,-5.497783050E-2,3.352120519E-2
4.224041670E0,-5.322159454E-2,-8.666644245E-2,2.817613818E-2
4.240707607E0,-3.283398226E-3,-7.551816106E-2,2.687804960E-2
4.257373545E0,2.328922041E-2,-3.680460155E-2,1.679878123E-2
4.274039482E0,6.337722298E-3,-1.534797717E-2,7.024944760E-3
4.290705420E0,-2.183841541E-2,-9.621120058E-3,-3.130682046E-3
4.307371357E0,-4.734202102E-2,-3.978256881E-2,-3.588830587E-3
4.324037295E0,-4.833467677E-2,-9.766200930E-2,1.076649129E-2
4.340703232E0,-9.697478265E-3,-1.249218509E-1,2.008217946E-2
4.357369170E0,3.497200832E-2,-1.226311028E-1,9.162971750E-3
4.374035107E0,2.970330045E-2,-1.301141977E-1,2.206749097E-2
4.390701045E0,9.162971750E-3,-1.637117565E-1,3.428478539E-2
4.407366982E0,-1.870773360E-2,-1.887572110E-1,1.847865991E-2
4.424032920E0,-7.345648855E-2,-1.529452652E-1,-1.450803876E-2
4.440698857E0,-1.792124510E-1,-1.031597927E-1,-3.504836559E-2
4.457364795E0,-2.383136153E-1,-7.024945319E-2,-5.543597788E-2
4.474030732E0,-1.737910360E-1,-1.565340906E-2,-4.528035223E-2
4.490696670E0,-9.140064567E-2,1.710421406E-2,1.382081583E-2
4.507362607E0,-7.040216774E-2,1.313359290E-2,3.512472659E-2
4.524028545E0,-9.720385820E-2,-3.474293277E-2,3.474293277E-2
4.540694482E0,-1.366809905E-1,-1.074358448E-1,5.276344717E-2
4.557360420E0,-1.274416596E-1,-1.172096804E-1,6.918043643E-2
4.574026357E0,-8.437569439E-2,-1.158352345E-1,6.841685623E-2
4.590692295E0,-1.091920771E-2,-5.436696485E-2,4.757109284E-2
4.607358232E0,9.697478265E-3,2.168569900E-2,5.161807314E-2
4.624024170E0,-3.588830680E-2,4.390590638E-2,3.741546720E-2
4.640690107E0,-1.023198515E-1,-8.399390616E-3,-6.490438245E-3
4.657356045E0,-1.814268380E-1,-7.055488229E-2,-4.741837829E-2
4.674021982E0,-1.984546930E-1,-8.811724186E-2,-7.651081681E-2
4.690687920E0,-1.760054082E-1,-6.887500733E-2,-6.849320978E-2
4.707353857E0,-1.602756530E-1,-4.886918142E-2,-4.802924395E-2
4.724019795E0,-1.911243200E-1,-3.718639165E-2,-4.352411628E-2
4.740685732E0,-2.605338395E-1,-7.490729541E-2,-3.657552972E-2
4.757351670E0,-3.154352903E-1,-1.253799945E-1,-4.612028971E-2
4.774017607E0,-3.420842886E-1,-1.797469556E-1,-3.145953640E-2
4.790683545E0,-3.437641561E-1,-2.441168427E-1,7.788525894E-3
4.807349482E0,-3.178787529E-1,-2.874118686E-1,2.145662531E-2
4.824015420E0,-3.092502952E-1,-3.042870164E-1,1.030834299E-2
4.840681357E0,-3.337612450E-1,-2.981783748E-1,-1.565340906E-2
4.857347295E0,-3.471239209E-1,-2.893208265E-1,-3.207040206E-2
4.874013232E0,-3.360520005E-1,-2.798524201E-1,-3.749182448E-2
4.890679170E0,-2.927569449E-1,-2.684750557E-1,-3.955349326E-2
4.907345107E0,-2.512944937E-1,-2.590066791E-1,-5.238165334E-2
4.924011045E0,-2.346484363E-1,-1.992946416E-1,-5.849030241E-2
4.940676982E0,-2.658788860E-1,-1.461493969E-1,-4.199695215E-2
4.957342920E0,-3.125337064E-1,-1.079703495E-1,-2.664897591E-2
4.974008857E0,-3.609447181E-1,-1.291978955E-1,-4.810560029E-3
4.990674795E0,-4.619664848E-1,-2.170097083E-1,-2.138026757E-3
5.007340732E0,-5.946768522E-1,-3.536143601E-1,-5.421424750E-3
5.024006670E0,-6.970730424E-1,-4.853320718E-1,-3.046688065E-2
5.040672607E0,-7.444151044E-1,-5.415316224E-1,-6.039925665E-2
5.057338545E0,-7.544180155E-1,-5.664243698E-1,-4.726566374E-2
5.074004482E0,-7.682388425E-1,-6.065887213E-1,-1.931859925E-2
5.090670420E0,-7.698423266E-1,-6.491965652E-1,-1.206457894E-2
5.107336357E0,-7.100539207E-1,-6.766090989E-1,-4.291325063E-2
5.124002295E0,-6.899717450E-1,-6.162098646E-1,-1.116355360E-1
5.140668232E0,-8.494074941E-1,-4.293615818E-1,-1.889099330E-1
5.157334170E0,-1.117653489E0,-1.431714296E-1,-2.682459950E-1
5.174000107E0,-1.411784887E0,1.652389169E-1,-2.994000912E-1
5.190666045E0,-1.572595000E0,3.213912249E-1,-2.022725940E-1
5.207331982E0,-1.436066747E0,2.425133139E-1,-3.703367710E-2
5.223997920E0,-9.225585461E-1,6.543888897E-2,2.181550860E-1
5.240663857E0,-1.592066288E-1,-9.132428467E-2,5.643627048E-1
5.257329795E0,4.377609789E-1,-2.777144015E-1,1.014417291E0
5.273995732E0,9.227876067E-1,-3.126864135E-1,1.478979945E0
5.290661670E0,1.559308648E0,-2.232710719E-1,1.806708932E0
5.307327607E0,2.278678417E0,-3.726275265E-1,1.991648197E0
5.323993545E0,2.933449030E0,-6.459131241E-1,1.713704824E0
5.340659482E0,3.061043501E0,-1.809686981E-2,1.233412385E0
5.357325420E0,2.950629711E0,-3.306305781E-2,1.173394918E0
5.373991357E0,3.423820734E0,-1.088790059E0,1.216384530E0
5.390657295E0,4.354167938E0,-1.284954071E0,1.225547433E0
5.407323232E0,4.881649494E0,-3.145953715E-1,1.411555767E0
5.423989170E0,4.632187843E0,6.682860851E-1,1.628947258E0
5.440655107E0,3.725435257E0,1.212261200E0,1.536248565E0
5.457321045E0,2.356105566E0,1.478216410E0,1.002581835E0
5.473986982E0,6.863829494E-1,1.616195440E0,4.275289774E-1
5.490652920E0,-8.122211099E-1,1.697440505E0,1.302669197E-1
5.507318857E0,-1.729281783E0,1.645135164E0,-1.032361463E-1
5.523984795E0,-1.878103733E0,1.297324061E0,-2.319758981E-1
5.540650732E0,-1.480507135E0,9.418007731E-1,-2.155589163E-1
5.557316670E0,-9.432515502E-1,7.219657898E-1,-3.581194952E-2
5.573982607E0,-5.730675459E-1,4.793761373E-1,1.647044122E-1
5.590648545E0,-5.965858102E-1,3.896553814E-1,2.342666388E-1
5.607314482E0,-9.979239702E-1,3.528507650E-1,1.263726503E-1
5.623980420E0,-1.555567145E0,2.228129357E-1,2.840521187E-2
5.640646357E0,-1.910861373E0,-1.379027218E-1,-1.099556610E-1
5.657312295E0,-1.883983374E0,-9.734894037E-1,-4.974730015E-1
5.673978232E0,-1.499062181E0,-1.886350393E0,-8.554397821E-1
5.690644170E0,-8.071814775E-1,-2.087019444E0,-7.931315303E-1
5.707310107E0,-5.930733681E-1,-1.636735797E0,-6.210203767E-1
5.723976045E0,-1.626656532E0,-1.545411587E0,-6.665298343E-1
5.740641982E0,-2.363893986E0,-2.027307510E0,-6.554579139E-1
5.757307920E0,-1.692019105E0,-2.417955399E0,-6.082686186E-1
5.773973857E0,-5.367974043E-1,-2.051436663E0,-5.937605500E-1
5.790639795E0,-1.815031916E-1,-1.072373152E0,-7.012727857E-1
5.807305732E0,-4.692205191E-1,-6.086503863E-1,-9.493602514E-1
5.823971670E0,-7.713695168E-1,-8.826996088E-1,-1.259679556E0
5.840637607E0,-8.665117025E-1,-1.486386776E0,-1.630779862E0
5.857303545E0,-9.521090984E-1,-1.657657981E0,-1.881768942E0
5.873969482E0,-1.155374408E0,-1.207450628E0,-2.000963926E0
5.890635420E0,-1.227609158E0,-4.229474962E-1,-1.944917083E0
5.907301357E0,-8.819360137E-1,3.214675784E-1,-1.744477153E0
5.923967295E0,-1.807396114E-1,8.010727763E-1,-1.444313407E0
5.940633232E0,5.691732764E-1,9.563851953E-1,-9.617302418E-1
5.957299170E0,1.183092356E0,7.018836141E-1,-3.815613985E-1
5.973965107E0,1.585270405E0,2.394589931E-1,7.422006875E-2
5.990631045E0,1.908341527E0,-1.388190240E-1,2.637408674E-1
6.007296982E0,2.319988012E0,-3.521635532E-1,1.531743407E-1
6.023962920E0,2.911839724E0,-4.451677203E-2,-2.065486610E-1
6.040628857E0,3.874639034E0,3.271944523E-1,-3.656025827E-1
6.057294795E0,4.694725037E0,7.992402315E-1,-8.972076327E-2
6.073960732E0,4.611723423E0,1.038775563E0,1.585957706E-1
6.090626670E0,3.817065001E0,7.935897112E-1,1.098793000E-1
6.107292607E0,2.911381483E0,8.157335520E-1,4.360047355E-2
6.123958545E0,2.302196741E0,1.361312151E0,2.371682525E-1
6.140624482E0,1.521053314E0,2.233016253E0,5.842158198E-1
6.157290420E0,5.388590693E-1,2.979034901E0,1.035568476E0
6.173956357E0,-2.067777216E-1,2.974224329E0,1.501123786E0
6.190622295E0,-5.671879649E-1,2.096182585E0,1.750280261E0
6.207288232E0,-7.443387508E-1,1.151556492E0,1.794415236E0
6.223954170E0,-8.779653907E-1,8.083268404E-1,1.856036305E0
6.240620107E0,-8.411607742E-1,9.594395161E-1,1.988746643E0
6.257286045E0,-5.091558099E-1,1.160413980E0,2.073198795E0
6.273951982E0,-1.689041108E-1,1.206763387E0,1.921627879E0
6.290617920E0,-1.851683855E-1,1.006247044E0,1.453934550E0
6.307283857E0,-6.025417447E-1,6.394227147E-1,8.868992925E-1
6.323949795E0,-1.120020628E0,2.981020212E-1,4.871646762E-1
6.340615732E0,-1.462181211E0,1.153007299E-1,2.131154537E-1
6.357281670E0,-1.512730241E0,-9.926552884E-3,-6.612611562E-2
6.373947607E0,-1.246545911E0,-4.323395491E-1,-4.105774760E-1
6.390613545E0,-9.702059627E-1,-6.759982109E-1,-7.912989855E-1
6.407279482E0,-7.622829080E-1,-2.743546367E-1,-1.145905972E0
6.423945420E0,-6.488147378E-1,2.407570779E-1,-1.269987822E0
6.440611357E0,-1.159192324E0,-1.082757786E-1,-1.600847483E0
6.457277295E0,-2.289902925E0,-1.621769667E0,-2.231260061E0
6.473943232E0,-2.633361816E0,-2.755610943E0,-2.573802471E0
6.490609170E0,-2.046015263E0,-2.518900871E0,-2.467588186E0
6.507275107E0,-1.196073294E0,-1.291902661E0,-2.114202976E0
6.523941045E0,-7.485384345E-1,-3.029889166E-1,-1.962250352E0
6.540606982E0,-7.861065865E-1,-1.678351015E-1,-2.169791698E0
6.557272920E0,-1.064431906E0,-5.979602337E-1,-2.506912708E0
6.573938857E0,-1.425071120E0,-1.339779139E0,-2.866559267E0
6.590604795E0,-1.688888431E0,-1.523420453E0,-3.057989120E0
6.607270732E0,-1.695989728E0,-9.208786488E-1,-2.914512157E0
6.623936670E0,-1.073213100E0,5.627591908E-2,-2.398178816E0
6.640602607E0,2.695440874E-2,8.440623879E-1,-1.774714947E0
6.657268545E0,9.912044406E-1,1.179656267E0,-1.212490201E0
6.673934482E0,1.405447125E0,9.979239702E-1,-7.638863921E-1
6.690600420E0,1.473482251E0,5.571087003E-1,-4.347066581E-1
6.707266357E0,1.520289779E0,4.796051979E-1,-2.204458266E-1
6.723932295E0,1.710726857E0,5.818486810E-1,-1.563813835E-1
6.740598232E0,2.242331982E0,8.268818259E-1,-1.220202371E-1
6.757264170E0,3.066846609E0,1.297858596E0,2.840521187E-2
6.773930107E0,3.623268127E0,1.871155143E0,2.435059696E-1
6.790596045E0,3.145648241E0,2.112370491E0,5.044979453E-1
6.807261982E0,1.774714947E0,1.611690402E0,5.897135735E-1
6.823927920E0,2.888626754E-1,8.340594769E-1,3.652971387E-1
6.840593857E0,-5.913934708E-1,7.595340014E-1,2.209039778E-1
6.857259795E0,-9.857066870E-1,1.285717607E0,4.089739621E-1
6.873925732E0,-1.005483389E0,1.751807451E0,8.288671374E-1
6.890591670E0,-8.720858097E-1,1.488295674E0,1.150792837E0
6.907257607E0,-7.365502119E-1,4.776198864E-1,1.196226001E0
6.923923545E0,-8.151226640E-1,-6.998219490E-1,1.075580120E0
6.940589482E0,-1.096425891E0,-1.192637086E0,1.027398229E0
6.957255420E0,-1.227990866E0,-8.754456043E-1,1.085964918E0
6.973921357E0,-9.417244196E-1,-1.554650813E-1,1.261053920E0
6.990587295E0,-3.084867001E-1,4.321868420E-1,1.415526390E0
7.007253232E0,2.360228747E-1,4.108065665E-1,1.321071386E0
7.023919170E0,4.056905806E-1,2.298378758E-2,1.002276421E0
7.040585107E0,1.513417512E-1,-4.375318885E-1,6.540070772E-1
7.057251045E0,-4.016435891E-2,-7.736602426E-1,4.217257798E-1
7.073916982E0,1.626427472E-2,-1.122005939E0,2.496146262E-1
7.090582920E0,2.016617358E-1,-1.651320219E0,-3.634645417E-2
7.107248857E0,4.778489769E-1,-1.970268011E0,-3.415497839E-1
7.123914795E0,7.993165851E-1,-1.315649986E0,-4.409680068E-1
7.140580732E0,5.596284866E-1,1.657734364E-1,-4.205040336E-1
7.157246670E0,-1.391091824E0,6.037634611E-1,-9.762382507E-1
7.173912607E0,-3.275227785E0,-1.008537769E0,-1.591531873E0
7.190578545E0,-2.507676363E0,-2.612974167E0,-1.559995890E0
7.207244482E0,-1.740200967E-1,-2.569526434E0,-8.744529486E-1
7.223910420E0,1.221729517E0,-1.380096197E0,-1.419496983E-1
7.240576357E0,5.966621637E-1,-4.751764536E-1,-1.626427472E-1
7.257242295E0,-7.158571482E-1,1.262962967E-1,-9.256892204E-1
7.273908232E0,-1.650174856E0,3.225366175E-1,-1.693546295E0
7.290574170E0,-2.041433811E0,-6.742420048E-2,-2.242255449E0
7.307240107E0,-2.030896425E0,-7.011200786E-1,-2.470718861E0
7.323906045E0,-1.873216867E0,-1.208137870E0,-2.420628071E0
7.340571982E0,-1.525711179E0,-1.157970548E0,-2.144211769E0
7.357237920E0,-9.748638272E-1,-6.899717450E-1,-1.759672403E0
7.373903857E0,-3.355174661E-1,-1.798996776E-1,-1.334815860E0
7.390569795E0,5.742128938E-2,6.398808211E-2,-9.954805374E-1
7.407235732E0,1.972329617E-1,-7.506000996E-2,-7.898481488E-1
7.423901670E0,4.682278633E-1,-1.705076247E-1,-5.441278219E-1
7.440567607E0,9.695951343E-1,6.910407543E-2,-2.040288299E-1
7.457233545E0,1.666973591E0,4.721984863E-1,2.313650399E-1
7.473899482E0,2.330449104E0,9.217185974E-1,6.520981789E-1
7.490565420E0,2.834488869E0,1.652541995E0,7.747292519E-1
7.507231357E0,2.969871759E0,2.617326498E0,9.281326532E-1
7.523897295E0,2.449567795E0,2.720944405E0,1.301752806E0
7.540563232E0,1.663919330E0,1.068860650E0,1.488372087E0
7.557229170E0,1.759214163E0,-1.070540547E-1,1.427896380E0
7.573895107E0,2.024024010E0,8.326850533E-1,1.551672935E0
7.590561045E0,1.367038965E0,2.732169151E0,1.839008451E0
7.607226982E0,3.807978332E-1,3.730627537E0,2.082896233E0
7.623892920E0,-1.802814752E-1,3.277213097E0,2.154825449E0
7.640558857E0,-2.438877672E-1,1.851531148E0,2.209879637E0
7.657224795E0,-2.228129357E-1,5.209149122E-1,2.175365925E0
7.673890732E0,-4.362338185E-1,9.231694043E-2,1.978132844E0
7.690556670E0,-8.738420606E-1,4.021781087E-1,1.704007268E0
7.707222607E0,-1.137812018E0,8.306233883E-1,1.484325051E0
7.723888545E0,-8.574250937E-1,1.009225011E0,1.372994900E0
7.740554482E0,-3.250564337E-1,7.566323876E-1,1.240895391E0
7.757220420E0,-3.092502989E-2,2.376264036E-1,1.013195634E0
7.773886357E0,-5.963567272E-2,-1.814268380E-1,7.176133990E-1
7.790552295E0,-2.206749022E-1,-3.914879560E-1,4.522690177E-1
7.807218232E0,-3.187187016E-1,-5.624537468E-1,1.883754283E-1
7.823884170E0,-4.414261580E-1,-8.268818259E-1,-9.086613357E-2
7.840550107E0,-5.791761875E-1,-1.110781193E0,-3.539197743E-1
7.857216045E0,-6.607266068E-1,-9.843322635E-1,-6.252201200E-1
7.873881982E0,-1.211039424E0,-2.832885385E-1,-1.173700333E0
7.890547920E0,-2.742630243E0,-3.254382014E-1,-1.797546029E0
7.907213857E0,-3.175656796E0,-1.011515737E0,-1.638950229E0
7.923879795E0,-1.412472129E0,-1.324813008E0,-7.258600593E-1
7.940545732E0,8.255074024E-1,-1.034194112E0,-8.086322248E-2
7.957211670E0,9.463822842E-1,-6.423243284E-1,-9.277509153E-2
7.973877607E0,-2.157879770E-1,-9.941824526E-2,-7.460185885E-1
7.990543545E0,-1.431485295E0,1.426369250E-1,-1.635132313E0
8.007209482E0,-2.076558352E0,5.337430909E-2,-2.200869560E0
8.023875420E0,-2.256229162E0,-2.244928032E-1,-2.282649040E0
8.040541357E0,-2.284634352E0,-8.051197529E-1,-2.112065077E0
8.057207295E0,-2.086332321E0,-1.395138741E0,-1.862450361E0
8.073873232E0,-1.394375205E0,-1.481805205E0,-1.577634692E0
8.090539170E0,-3.943895698E-1,-1.062370181E0,-1.191720843E0
8.107205107E0,4.004982114E-1,-5.275580883E-1,-7.142536640E-1
8.123871045E0,7.713695168E-1,-3.178023994E-1,-3.024544120E-1
8.140536982E0,9.082795978E-1,-5.057960153E-1,-1.053741761E-2
8.157202920E0,9.852485061E-1,-7.874810696E-1,2.267835438E-1
8.173868857E0,1.316108227E0,-7.596867085E-1,4.571559429E-1
8.190534795E0,1.987601280E0,-4.308123887E-1,7.591522336E-1
8.207200732E0,2.661232471E0,5.345066637E-2,1.071991324E0
8.223866670E0,3.095022678E0,4.872410297E-1,1.041142702E0
8.240532607E0,3.425347805E0,1.019227862E0,8.775836229E-1
8.257198545E0,3.322188139E0,1.113911867E0,9.666171670E-1
8.273864482E0,2.679940224E0,-9.934188426E-2,9.279035926E-1
8.290530420E0,2.602818489E0,-7.964149714E-1,6.440805793E-1
8.307196357E0,3.116937637E0,4.712058306E-1,7.137191296E-1
8.323862295E0,2.759199858E0,2.485990524E0,1.034194112E0
8.340528232E0,1.602527380E0,3.702833176E0,9.956332445E-1
8.357194170E0,7.468585372E-1,3.712225199E0,8.619301915E-1
8.373860107E0,5.657371283E-1,2.842430115E0,1.089095592E0
8.390526045E0,6.297252178E-1,1.842673659E0,1.503643632E0
8.407191982E0,4.954876900E-1,1.229518056E0,1.743942618E0
8.423857920E0,2.466366626E-2,1.173013091E0,1.677892804E0
8.440523857E0,-4.994583130E-1,1.374903917E0,1.480278134E0
8.457189795E0,-6.127737164E-1,1.479132652E0,1.335426807E0
8.473855732E0,-3.204749227E-1,1.210123181E0,1.104901671E0
8.490521670E0,-7.399099320E-2,6.188823581E-1,7.704532146E-1
8.507187607E0,-1.876882017E-1,1.782197952E-1,4.442514181E-1
8.523853545E0,-5.612320304E-1,1.244636998E-2,1.456148922E-1
8.540519482E0,-8.660535216E-1,-9.323323518E-2,-1.470656991E-1
8.557185420E0,-9.731075764E-1,-4.454731345E-1,-4.008800089E-1
8.573851357E0,-9.313397408E-1,-8.414662480E-1,-6.000219584E-1
8.590517295E0,-8.167262077E-1,-1.187902927E0,-7.793107629E-1
8.607183232E0,-5.483275056E-1,-1.247309566E0,-9.875392914E-1
8.623849170E0,-3.148244321E-1,-8.211549520E-1,-1.162170291E0
8.640515107E0,-7.633519173E-1,3.443750367E-2,-1.381394386E0
8.657181045E0,-2.513250351E0,-1.188132018E-1,-1.855119944E0
8.673846982E0,-3.744753838E0,-1.696142435E0,-2.388939381E0
8.690512920E0,-3.204367638E0,-2.797531605E0,-2.466137409E0
8.707178857E0,-1.940564632E0,-2.357021809E0,-1.823049545E0
8.723844795E0,-1.483103275E0,-1.564959168E0,-1.165606380E0
8.740510732E0,-1.523649454E0,-1.607796073E0,-1.162093878E0
8.757176670E0,-1.442175388E0,-1.964159369E0,-1.431179762E0
8.773842607E0,-1.573282242E0,-2.008294344E0,-1.680412650E0
8.790508545E0,-1.949727654E0,-1.577940106E0,-1.847789645E0
8.807174482E0,-2.082896233E0,-1.217682600E0,-1.971413374E0
8.823840420E0,-1.654680014E0,-1.097189546E0,-2.010355949E0
8.840506357E0,-8.140536547E-1,-1.080314398E0,-1.861075878E0
8.857172295E0,-3.970621154E-2,-1.198516726E0,-1.569082499E0
8.873838232E0,3.992001414E-1,-1.502192855E0,-1.233412385E0
8.890504170E0,6.575959325E-1,-1.727220178E0,-9.341649413E-1
8.907170107E0,8.064942360E-1,-1.487150311E0,-6.912698746E-1
8.923836045E0,9.017127752E-1,-8.544471264E-1,-4.783834815E-1
8.940501982E0,1.155756116E0,-3.633881807E-1,-1.107956022E-1
8.957167920E0,1.577252865E0,-2.513708472E-1,3.197113574E-1
8.973833857E0,2.060981512E0,-2.757290900E-1,5.590176582E-1
8.990499795E0,2.435976028E0,7.437278330E-2,6.294961572E-1
9.007165732E0,2.318384647E0,4.025598764E-1,8.267291188E-1
9.023831670E0,1.594891548E0,-7.801506519E-1,7.719803452E-1
9.040497607E0,1.673540473E0,-1.753640056E0,1.879936308E-1
9.057163545E0,2.443840981E0,-7.040216774E-2,-3.046688065E-2
9.073829482E0,2.451858521E0,3.075933218E0,1.848629564E-1
9.090495420E0,1.935448647E0,5.058189392E0,6.538543701E-1
9.107161357E0,1.667050004E0,5.229155064E0,1.059697628E0
9.123827295E0,1.754098177E0,3.988488913E0,1.472260475E0
9.140493232E0,2.113592148E0,2.459494352E0,1.927583814E0
9.157159170E0,2.543793678E0,1.501047492E0,2.201403856E0
9.173825107E0,2.674747705E0,1.191186309E0,2.142531872E0
9.190491045E0,2.416657448E0,1.366199136E0,1.850996614E0
9.207156982E0,2.111683130E0,1.761734009E0,1.549076676E0
9.223822920E0,1.979125500E0,2.081979990E0,1.325958371E0
9.240488857E0,1.996000648E0,1.998902321E0,1.221424103E0
9.257154795E0,2.079460144E0,1.498527646E0,1.246164203E0
9.273820732E0,2.215301037E0,9.141591191E-1,1.361846685E0
9.290486670E0,2.316704750E0,4.631882310E-1,1.457294345E0
9.307152607E0,2.192699194E0,3.182605505E-1,1.466839075E0
9.323818545E0,1.925369382E0,1.971566081E-1,1.237993836E0
9.340484482E0,1.913228512E0,3.233001828E-1,9.151517749E-1
9.357150420E0,2.100611210E0,1.221500516E0,8.844558597E-1
9.373816357E0,1.531590700E0,2.409403324E0,1.090011835E0
9.390482295E0,-3.680460155E-1,2.187506676E0,7.221185565E-1
9.407148232E0,-1.962021351E0,1.254563570E0,9.911280870E-2
9.423814170E0,-2.243629932E0,1.343368053E0,1.708130687E-1
9.440480107E0,-1.398269534E0,2.132376194E0,7.933606505E-1
9.457146045E0,-2.222020626E-1,2.508898020E0,1.745164275E0
9.473811982E0,4.310414493E-1,1.599625826E0,2.436434269E0
9.490477920E0,3.515526950E-1,-2.232710719E-1,2.422613382E0
9.507143857E0,-1.886045001E-2,-1.132314205E0,1.932241678E0
9.523809795E0,-4.261545539E-1,-2.492328286E-1,1.628870964E0
9.540475732E0,-7.816014886E-1,1.643302560E0,1.564119220E0
9.557141670E0,-8.774309158E-1,3.001407623E0,1.548465848E0
9.573807607E0,-8.540652990E-1,3.243921041E0,1.515020967E0
9.590473545E0,-9.159153700E-1,2.539746761E0,1.484783173E0
9.607139482E0,-1.260366797E0,1.631314397E0,1.426827431E0
9.623805420E0,-1.811595917E0,1.438357472E0,1.475391150E0
9.640471357E0,-2.183078051E0,1.593517184E0,1.784030557E0
9.657137295E0,-1.815337420E0,1.101465583E0,2.573878765E0
9.673803232E0,-3.221548200E-1,-2.984837890E-1,3.754680395E0
9.690469170E0,1.935219646E0,-1.364824653E0,4.733438492E0
9.707135107E0,3.285154343E0,-1.049236655E0,5.092168808E0
9.723801045E0,2.697578907E0,9.010255337E-3,4.849502563E0
9.740466982E0,1.713170290E0,7.806851864E-1,4.166632175E0
9.757132920E0,1.544266105E0,6.433169842E-1,3.629529476E0
9.773798857E0,1.869704366E0,-1.189659163E-1,3.811719894E0
9.790464795E0,2.161086798E0,-1.403385520E0,4.345768452E0
9.807130732E0,2.177580118E0,-2.875416994E0,4.284376621E0
9.823796670E0,1.672318697E0,-3.637852430E0,3.440237761E0
9.840462607E0,1.368947983E0,-2.589913845E0,1.959196091E0
9.857128545E0,1.568318963E0,8.513928205E-2,8.396336436E-1
9.873794482E0,1.768988013E0,2.205145597E0,7.777072191E-1
9.890460420E0,1.941786408E0,2.433150768E0,1.172325850E0
9.907126357E0,2.058614254E0,9.277508855E-1,1.323896646E0
9.923792295E0,2.120311737E0,-3.833176494E-1,1.008537769E0
9.940458232E0,2.134361506E0,-3.218493760E-1,8.455132246E-1
9.957124170E0,2.368017435E0,1.164308310E0,1.044884205E0
9.973790107E0,2.689713955E0,2.842812061E0,1.279227257E0
9.990456045E0,3.019657373E0,3.169777393E0,1.299156666E0
1.000712198E1,3.349600554E0,2.624275208E0,1.307708740E0
1.002378792E1,3.513617754E0,2.068311691E0,1.323209524E0
1.004045386E1,3.460777998E0,2.113057613E0,1.232496023E0
1.005711980E1,3.064174175E0,2.390466690E0,1.151251078E0
1.007378573E1,2.505996466E0,2.529209375E0,1.088713765E0
1.009045167E1,1.932776213E0,2.499429703E0,1.067486167E0
1.010711761E1,1.360777617E0,2.217133760E0,1.116279006E0
1.012378354E1,7.259364128E-1,1.788688421E0,1.156137943E0
1.014044948E1,7.238747925E-2,1.328325510E0,1.066188097E0
1.015711542E1,-5.181660652E-1,1.057330608E0,9.688315392E-1
1.017378136E1,-9.780708551E-1,8.986584544E-1,8.156571984E-1
1.019044730E1,-1.280143499E0,9.202677608E-1,4.408916533E-1
1.020711323E1,-1.474780321E0,1.055803418E0,1.104138121E-1
1.022377917E1,-1.456377983E0,9.450078011E-1,1.121700481E-1
1.024044511E1,-9.140064120E-1,4.656316638E-1,3.090212345E-1
1.025711104E1,-2.477820218E-1,-4.123337194E-2,4.129445851E-1
1.027377698E1,-2.869537175E-1,-5.284743905E-1,4.484511018E-1
1.029044292E1,-9.905172586E-1,-1.139797330E0,1.618028134E-1
1.030710886E1,-1.431638002E0,-1.575343966E0,-3.103193045E-1
1.032377480E1,-1.010752082E0,-1.725158453E0,-6.701186895E-1
1.034044073E1,-3.649916872E-2,-1.324660301E0,-8.193224072E-1
1.035710667E1,4.379900396E-1,-7.648790479E-1,-7.921388745E-1
1.037377261E1,2.645044625E-1,-1.279761642E-1,-7.693842053E-1
1.039043854E1,-1.669951528E-1,2.428951114E-1,-8.330668211E-1
1.040710448E1,-4.744892120E-1,2.081521749E-1,-9.094249606E-1
1.042377042E1,-4.968621433E-1,1.939495653E-1,-9.631810188E-1
1.044043636E1,-3.999637067E-1,3.941605091E-1,-7.795398235E-1
1.045710230E1,-1.949422210E-1,3.654498458E-1,-4.189005196E-1
1.047376823E1,2.939023077E-1,1.566104591E-1,-5.787943676E-2
1.049043417E1,1.028849006E0,1.481347084E-1,7.834340632E-2
1.050710011E1,1.580154419E0,5.801688433E-1,3.352120519E-2
1.052376604E1,1.542891741E0,1.333212376E0,3.825540841E-2
1.054043198E1,1.355279922E0,1.832441568E0,1.398880333E-1
1.055709792E1,1.762573957E0,1.761428595E0,3.631591201E-1
1.057376386E1,2.850829601E0,1.435684919E0,7.517454624E-1
1.059042980E1,4.276129723E0,1.643989801E0,1.226692796E0
1.060709573E1,5.226940632E0,2.640157461E0,1.771584272E0
1.062376167E1,4.961672783E0,3.423362494E0,2.390008450E0
1.064042761E1,4.226497173E0,2.433990717E0,2.666272163E0
1.065709354E1,4.385779858E0,6.203331947E-1,2.381227255E0
1.067375948E1,4.548651695E0,2.632063627E-1,2.205145597E0
1.069042542E1,3.785070896E0,1.406134367E0,2.177503824E0
1.070709136E1,2.468580961E0,2.525773048E0,1.885434151E0
1.072375730E1,1.319315195E0,2.896797180E0,1.531743407E0
1.074042323E1,7.459422350E-1,2.385426998E0,1.493335366E0
1.075708917E1,5.141190886E-1,1.367726207E0,1.637804866E0
1.077375511E1,4.369973838E-1,4.580722153E-1,1.685757756E0
1.079042104E1,3.691150546E-1,4.337140024E-1,1.505399942E0
1.080708698E1,2.539670467E-1,1.261283040E0,1.242957115E0
1.082375292E1,-7.238747925E-2,1.953927398E0,9.856303334E-1
1.084041886E1,-5.329031348E-1,1.832976103E0,5.931497216E-1
1.085708480E1,-1.000825524E0,1.185764909E0,2.607629001E-1
1.087375073E1,-1.451414704E0,4.633409381E-1,1.255327165E-1
1.089041667E1,-1.650022149E0,-8.246674202E-3,2.018908113E-1
1.090708261E1,-1.535026789E0,-3.277289569E-1,3.632354736E-1
1.092374854E1,-1.194622397E0,-6.149880886E-1,4.080576599E-1
1.094041448E1,-8.422298431E-1,-7.822123766E-1,2.651153207E-1
1.095708042E1,-9.046907425E-1,-6.017781496E-1,9.628756344E-2
1.097374636E1,-1.628947258E0,-2.026543915E-1,-5.520690605E-2
1.099041230E1,-2.607781649E0,-4.942659736E-1,-2.895499170E-1
1.100707823E1,-2.775998592E0,-1.524642110E0,-6.124683022E-1
1.102374417E1,-2.320827961E0,-2.436739683E0,-8.490256667E-1
1.104041011E1,-1.853821874E0,-2.539441347E0,-9.834923148E-1
1.105707604E1,-1.639484763E0,-1.902156591E0,-1.143386126E0
1.107374198E1,-1.600083947E0,-1.093906045E0,-1.392619014E0
1.109040792E1,-1.604054570E0,-6.150645018E-1,-1.644371629E0
1.110707386E1,-1.667508125E0,-4.433351159E-1,-1.901774764E0
1.112373980E1,-1.895437002E0,-5.635991096E-1,-2.080987215E0
1.114040573E1,-1.908723354E0,-8.984293938E-1,-2.107636213E0
1.115707167E1,-1.485775828E0,-1.199127555E0,-1.920787930E0
1.117373761E1,-9.010255337E-1,-1.462028503E0,-1.652923703E0
1.119040354E1,-5.465712547E-1,-1.401552916E0,-1.383303285E0
1.120706948E1,-5.008327365E-1,-1.026787281E0,-1.185612202E0
1.122373542E1,-4.990001619E-1,-6.012436748E-1,-1.144226074E0
1.124040136E1,-2.683987021E-1,-8.437569439E-2,-1.044044256E0
1.125706730E1,2.863428593E-1,4.928915203E-1,-6.535489559E-1
1.127373323E1,9.657008648E-1,1.075961947E0,-1.354592592E-1
1.129039917E1,1.681023479E0,1.342222691E0,1.822667718E-1
1.130706511E1,2.554101944E0,1.446298718E0,1.217148080E-1
1.132373104E1,3.353724003E0,1.661017656E0,3.336848691E-2
1.134039698E1,3.623039007E0,1.742339015E0,4.833467603E-1
1.135706292E1,3.430692911E0,7.996219993E-1,1.061530232E0
1.137372886E1,3.369224787E0,-8.804088831E-2,1.073747516E0
1.139039480E1,3.019122839E0,3.394880891E-1,8.013018966E-1
1.140706073E1,1.804647326E0,1.632307053E0,7.468585372E-1
1.142372667E1,5.446622968E-1,2.504316568E0,9.445496798E-1
1.144039261E1,8.093958721E-3,2.316322803E0,1.264566422E0
1.145705854E1,1.308014244E-1,1.208214164E0,1.602451086E0
1.147372448E1,5.862011313E-1,-2.838230431E-1,1.864130259E0
1.149039042E1,1.008919597E0,-1.310304999E0,2.040822983E0
1.150705636E1,1.158886790E0,-1.407814264E0,2.046396971E0
1.152372230E1,1.193706155E0,-7.553343177E-1,1.917504549E0
1.154038823E1,1.097265840E0,9.873101860E-2,1.639942884E0
1.155705417E1,6.942478418E-1,4.085921645E-1,1.252959967E0
1.157372011E1,4.169152305E-2,3.492619395E-1,8.967494965E-1
1.159038604E1,-5.426769853E-1,-2.141844630E-1,6.367501616E-1
1.160705198E1,-8.250492215E-1,-1.141553521E0,4.918225110E-1
1.162371792E1,-8.035926223E-1,-1.879630923E0,4.159225523E-1
1.164038386E1,-7.180715203E-1,-2.342055559E0,3.615556061E-1
1.165704980E1,-7.149408460E-1,-2.688644886E0,2.552651167E-1
1.167371573E1,-8.642209172E-1,-2.315330267E0,1.579848975E-1
1.169038167E1,-1.434844971E0,-1.186986566E0,1.216384470E-1
1.170704761E1,-3.049437046E0,-6.399571896E-1,2.902371287E-1
1.172371354E1,-4.626689911E0,-2.187964916E0,4.590648711E-1
1.174037948E1,-3.884259939E0,-3.899455309E0,6.840158105E-1
1.175704542E1,-1.864359260E0,-2.788368702E0,-1.122464053E-2
1.177371136E1,-1.060003161E0,-6.484329700E-1,-1.704312712E-1
1.179037730E1,-1.852523804E0,2.569449842E-1,-1.297324002E-1
1.180704323E1,-1.864359260E0,-4.185187221E-1,-6.655371785E-1
1.182370917E1,-1.244560599E0,-1.463708401E0,-1.157665133E0
1.184037511E1,-8.790344000E-1,-1.724547625E0,-1.169653296E0
1.185704104E1,-7.010436654E-1,-1.541288137E0,-1.035950303E0
1.187370698E1,-6.054433584E-1,-1.181030750E0,-9.730312228E-1
1.189037292E1,-6.538543701E-1,-6.672934294E-1,-9.823469520E-1
1.190703886E1,-6.865356565E-1,-3.654498458E-1,-1.056566954E0
1.192370480E1,-5.362629294E-1,-4.986183643E-1,-1.156672478E0
1.194037073E1,-1.014799103E-1,-9.660826325E-1,-1.284801364E0
1.195703667E1,4.974730015E-1,-1.178739905E0,-1.337106586E0
1.197370261E1,9.039271474E-1,-5.703186393E-1,-1.261435747E0
1.199036854E1,1.143615246E0,5.036579967E-1,-1.224173069E0
1.200703448E1,1.341764450E0,1.371391416E0,-1.210963011E0
1.202370042E1,1.670562506E0,1.454087257E0,-1.214551926E0
1.204036636E1,2.362061501E0,1.223791242E0,-1.293735266E0
1.205703230E1,2.919170141E0,1.097265840E0,-1.027321815E0
1.207369823E1,2.900920391E0,3.031416424E-2,-2.064722925E-1
1.209036417E1,3.304778576E0,-7.809142470E-1,-1.440113783E-1
1.210703011E1,3.630674839E0,5.327504277E-1,-1.034117699E0
1.212369604E1,2.625878572E0,3.122740746E0,-1.273500323E0
1.214036198E1,1.617035389E0,4.834536552E0,-7.022654414E-1
1.215702792E1,1.663384795E0,4.431824207E0,1.459966749E-1
1.217369386E1,2.551811218E0,2.325562239E0,1.013348341E0
1.219035980E1,3.460014582E0,1.562286615E-1,1.437288523E0
1.220702573E1,3.603262186E0,-7.758746147E-1,1.315955400E0
1.222369167E1,3.025842428E0,-3.616319597E-1,9.059124589E-1
1.224035761E1,2.066020966E0,7.626646757E-1,6.109411120E-1
1.225702355E1,1.206763387E0,1.613904715E0,6.023890376E-1
1.227368948E1,6.635518670E-1,1.470275164E0,7.268527150E-1
1.229035542E1,3.859901726E-1,6.242274642E-1,7.556397319E-1
1.230702136E1,1.038470119E-1,-3.381136656E-1,6.542361975E-1
1.232368730E1,-3.045161068E-1,-9.033163190E-1,5.697077513E-1
1.234035323E1,-6.940951347E-1,-1.072296739E0,6.922625303E-1
1.235701917E1,-1.077183723E0,-1.107116103E0,8.927788734E-1
1.237368511E1,-1.461341262E0,-1.290070057E0,1.009759426E0
1.239035105E1,-1.778685570E0,-1.617340803E0,9.064469934E-1
1.240701698E1,-1.951712966E0,-1.467144489E0,6.514872909E-1
1.242368292E1,-2.139553785E0,-4.050033391E-1,4.653262496E-1
1.244034886E1,-3.447109938E0,5.587885380E-1,6.591994762E-1
1.245701480E1,-5.364232540E0,-4.210385382E-1,1.091386318E0
1.247368073E1,-5.276573658E0,-2.044029951E0,9.141591191E-1
1.249034667E1,-3.407709122E0,-1.015868187E0,-7.269290835E-2
1.250701261E1,-2.266308308E0,1.585117698E0,-6.937133074E-1
1.252367855E1,-2.042273760E0,2.739423037E0,-7.854957581E-1
1.254034448E1,-1.823660493E0,1.922620535E0,-8.141300082E-1
1.255701042E1,-1.499291301E0,2.371682525E-1,-8.311578631E-1
1.257367636E1,-1.200731039E0,-1.140713573E0,-7.486911416E-1
1.259034230E1,-1.018998861E0,-1.713781118E0,-6.711876988E-1
1.260700823E1,-1.055803418E0,-1.508530617E0,-7.205913663E-1
1.262367417E1,-1.102000117E0,-9.040798545E-1,-8.820123672E-1
1.264034011E1,-9.608139396E-1,-3.252091408E-1,-1.013348341E0
1.265700605E1,-5.377900600E-1,-1.427132785E-1,-1.063362837E0
1.267367198E1,8.223766834E-2,-3.555996716E-1,-1.012966514E0
1.269033792E1,5.859720111E-1,-7.521272302E-1,-9.375247359E-1
1.270700386E1,9.235512018E-1,-1.071685910E0,-8.228348494E-1
1.272366980E1,1.137735605E0,-1.390251875E0,-5.540543795E-1
1.274033573E1,1.315726399E0,-1.853898287E0,-2.129627317E-1
1.275700167E1,1.493717074E0,-1.907807112E0,-1.479056329E-1
1.277366761E1,1.216918945E0,-1.822362304E0,-6.658425927E-2
1.279033355E1,2.787070572E-1,-2.808756351E0,1.137735620E-1
1.280699948E1,-5.028180480E-1,-3.919919252E0,-5.031998754E-1
1.282366542E1,-3.466657698E-1,-2.505232811E0,-1.464013815E0
1.284033136E1,4.159225523E-1,3.737728894E-1,-2.348011494E0
1.285699730E1,8.772782087E-1,1.911395907E0,-2.591975689E0
1.287366323E1,1.100396514E0,1.679343581E0,-2.316246510E0
1.289032917E1,1.385899425E0,4.010327160E-1,-1.889710188E0
1.290699511E1,1.781358004E0,-7.072287202E-1,-1.656283498E0
1.292366105E1,1.879707336E0,-9.760855436E-1,-1.598022223E0
1.294032698E1,1.553963661E0,-5.037343502E-1,-1.701029301E0
1.295699292E1,1.017395258E0,-4.703658819E-2,-1.943389893E0
1.297365886E1,7.375428677E-1,-7.811433077E-2,-2.247142553E0
1.299032480E1,5.570323467E-1,-4.274526238E-1,-2.468122721E0
1.300699073E1,2.393826395E-1,-3.431532979E-1,-2.475071430E0
1.302365667E1,1.511890348E-2,-3.404807448E-1,-2.350531340E0
1.304032261E1,2.099847607E-2,-5.216021538E-1,-2.325256824E0
1.305698855E1,-4.214967042E-2,-9.001855850E-1,-2.418566465E0
1.307365448E1,-2.315177470E-1,-1.104061723E0,-2.601214886E0
1.309032042E1,-5.238928795E-1,-7.502183318E-1,-2.801349401E0
1.310698636E1,-7.758746147E-1,-2.832885459E-2,-3.121748209E0
1.312365230E1,-7.699950337E-1,3.670533597E-1,-3.233918190E0
1.314031823E1,-3.627773225E-1,-1.197294965E-1,-2.750724077E0
1.315698417E1,2.040288299E-1,-8.346703649E-1,-1.783801556E0
1.317365011E1,-1.176678315E-1,-1.097571254E0,-7.115047574E-1
1.319031605E1,-2.378860235E0,-1.397964001E0,-2.220493406E-1
1.320698198E1,-5.595215797E0,-1.073976636E0,-2.948949635E-1
1.322364792E1,-7.346565247E0,-7.070759535E-1,1.435532272E-1
1.324031386E1,-6.552211761E0,-2.029292822E0,1.340160966E0
1.325697980E1,-3.874027967E0,-3.447949886E0,1.878256440E0
1.327364573E1,-1.904065490E0,-3.676947832E0,1.532965183E0
1.329031167E1,-2.225533009E0,-2.702694893E0,1.048091292E0
1.330697761E1,-3.762774229E0,-1.687972069E0,4.733438492E-1
1.332364355E1,-4.529333115E0,-2.021504164E0,1.162933856E-1
1.334030948E1,-4.057058334E0,-3.220708132E0,1.939495653E-1
1.335697542E1,-3.190241337E0,-4.219166756E0,3.447568119E-1
1.337364136E1,-2.752022266E0,-4.308963776E0,4.123337269E-1
1.339030730E1,-2.976056814E0,-4.025064468E0,2.054032832E-1
1.340697323E1,-3.590357780E0,-3.848677158E0,-1.485928595E-1
1.342363917E1,-3.841041327E0,-4.062098026E0,-4.034761786E-1
1.344030511E1,-3.541106701E0,-4.253222466E0,-5.301542878E-1
1.345697105E1,-3.423209906E0,-3.960999966E0,-6.256018877E-1
1.347363698E1,-3.737118006E0,-3.362428904E0,-7.554870248E-1
1.349030292E1,-4.276816845E0,-3.035616159E0,-1.009912252E0
1.350696886E1,-4.573468208E0,-3.147938967E0,-1.349782109E0
1.352363480E1,-4.640357971E0,-3.077383995E0,-1.736383080E0
1.354030073E1,-4.626384258E0,-2.572962523E0,-1.967060924E0
1.355696667E1,-4.426249981E0,-2.041510105E0,-1.935601354E0
1.357363261E1,-4.109210968E0,-1.710192323E0,-1.838244796E0
1.359029855E1,-3.715584993E0,-1.169806004E0,-1.813122988E0
1.360696448E1,-3.444055557E0,-3.669006526E-1,-1.529910803E0
1.362363042E1,-3.315621376E0,2.137263119E-1,-9.511164427E-1
1.364029636E1,-2.927951336E0,1.464548260E-1,-5.141190886E-1
1.365696230E1,-2.369849920E0,-6.185769439E-1,-7.339540124E-1
1.367362823E1,-1.478139997E0,-1.244178891E0,-1.167667985E0
1.369029417E1,-1.937204897E-1,-5.559632778E-1,-1.544342518E0
1.370696011E1,1.605429053E0,6.241511106E-1,-1.774485826E0
1.372362605E1,3.602651358E0,1.332677841E0,-2.288375854E0
1.374029198E1,4.429838657E0,1.638339281E0,-2.812497854E0
1.375695792E1,4.170526505E0,1.306487083E0,-2.845942736E0
1.377362386E1,4.127995014E0,4.846448302E-1,-2.921078920E0
1.379028980E1,4.371272087E0,3.226893246E-1,-2.988426924E0
1.380695573E1,4.270708561E0,1.142011762E0,-2.443993568E0
1.382362167E1,3.695273876E0,1.870544314E0,-1.397735000E0
1.384028761E1,2.993695498E0,1.559308648E0,-5.994874239E-1
1.385695355E1,2.145357132E0,3.993528485E-1,-4.105011225E-1
1.387361948E1,9.662353396E-1,-1.867718995E-1,-3.092502952E-1
1.389028542E1,-4.742601514E-1,2.686277926E-1,-6.414080411E-2
1.390695136E1,-1.587408543E0,1.069242477E0,2.391535640E-1
1.392361730E1,-1.899178624E0,1.768529892E0,7.273108959E-1
1.394028323E1,-1.760741353E0,1.789833784E0,1.202869058E0
1.395694917E1,-1.801822066E0,1.127045512E0,1.416595459E0
1.397361511E1,-2.318384647E0,5.061778426E-1,1.386586666E0
1.399028105E1,-3.374722481E0,2.841284871E-1,1.277852774E0
1.400694698E1,-4.496270180E0,3.762163520E-1,1.195309639E0
1.402361292E1,-4.656927586E0,-1.595884189E-2,1.291902661E0
1.404027886E1,-3.664501429E0,-1.221042395E0,1.476307511E0
1.405694480E1,-2.511188745E0,-2.208199739E0,1.384448647E0
1.407361073E1,-3.195586443E0,-1.935983181E0,9.739475250E-1
1.409027667E1,-5.784889698E0,-1.170264244E0,2.505309284E-1
1.410694261E1,-7.147652626E0,-1.507690668E0,-6.813433170E-1
1.412360855E1,-6.145223141E0,-2.623969555E0,-1.084055901E0
1.414027448E1,-4.166327000E0,-2.681161880E0,-1.373529434E0
1.415694042E1,-3.689088821E0,-1.758068800E0,-1.570151567E0
1.417360636E1,-3.941833973E0,-1.946902394E0,-1.750662088E0
1.419027230E1,-3.252549410E0,-3.006676435E0,-2.050138474E0
1.420693823E1,-2.516228437E0,-3.431532860E0,-2.032652617E0
1.422360417E1,-2.347629786E0,-2.988808632E0,-1.967977285E0
1.424027011E1,-2.384510756E0,-2.032270670E0,-2.079307318E0
1.425693605E1,-2.327013016E0,-9.717331529E-1,-2.164828539E0
1.427360198E1,-1.942320943E0,-3.571268320E-1,-2.218966246E0
1.429026792E1,-1.148578525E0,-1.488219351E-1,-2.318842649E0
1.430693386E1,-4.193586707E-1,-1.908952370E-2,-2.196287870E0
1.432359980E1,2.567922771E-1,2.880991101E-1,-1.752723813E0
1.434026573E1,1.177823663E0,6.931788325E-1,-1.013042927E0
1.435693167E1,2.194607973E0,9.408081174E-1,-6.808851361E-1
1.437359761E1,2.981478214E0,1.152320027E0,-9.950223565E-1
1.439026355E1,3.668013811E0,1.757992506E0,-1.356043458E0
1.440692948E1,4.298044682E0,2.470108032E0,-1.223943949E0
1.442359542E1,4.749397278E0,2.203389168E0,-7.208967805E-1
1.444026136E1,5.362018108E0,8.607084751E-1,-2.732856274E-1
1.445692730E1,5.921188831E0,4.673115537E-2,-7.414371520E-2
1.447359323E1,5.608120441E0,5.992583632E-1,-2.170860767E-1
1.449025917E1,3.931602001E0,1.997146010E0,-4.066068828E-1
1.450692511E1,2.153069258E0,2.998276949E0,-3.117701113E-1
1.452359105E1,1.427209258E0,3.020344496E0,1.766926348E-1
1.454025698E1,1.649105787E0,2.068617105E0,8.412371874E-1
1.455692292E1,2.146197081E0,6.876810193E-1,1.281899691E0
1.457358886E1,2.423835039E0,-1.287397593E-1,1.382616043E0
1.459025480E1,2.154672861E0,1.017089859E-1,1.225852847E0
1.460692073E1,1.459814072E0,8.846849203E-1,1.086957574E0
1.462358667E1,6.172025204E-1,1.435684919E0,1.024038434E0
1.464025261E1,-1.915824711E-1,1.245400548E0,9.492838383E-1
1.465691855E1,-8.591812849E-1,4.829649627E-1,8.960622549E-1
1.467358448E1,-1.328707218E0,-2.797760665E-1,9.310342669E-1
1.469025042E1,-1.565875530E0,-7.589994669E-1,1.037019372E0
1.470691636E1,-1.687590361E0,-9.272927642E-1,1.179427147E0
1.472358230E1,-1.732488871E0,-9.184352160E-1,1.250363827E0
1.474024823E1,-1.829845428E0,-9.560033679E-1,1.091768026E0
1.475691417E1,-1.880547166E0,-6.479747891E-1,6.136900187E-1
1.477358011E1,-2.265010357E0,4.358520210E-1,1.994473487E-1
1.479024605E1,-3.429547548E0,1.427285552E0,7.330377400E-2
1.480691198E1,-4.585914612E0,5.813142061E-1,-7.635809743E-5
1.482357792E1,-3.990397930E0,-2.179947376E0,-2.747364342E-1
1.484024386E1,-2.338848591E0,-3.378082275E0,-7.009673119E-1
1.485690980E1,-1.938350320E0,-2.004247427E0,-1.007163286E0
1.487357573E1,-2.800738573E0,-5.703949928E-1,-1.220202446E0
1.489024167E1,-2.945895433E0,-7.383064628E-1,-1.590844631E0
1.490690761E1,-2.161926746E0,-1.837786674E0,-1.731572628E0
1.492357355E1,-1.479972601E0,-2.449720383E0,-1.494328022E0
1.494023948E1,-1.345658779E0,-2.413373947E0,-1.193171620E0
1.495690542E1,-1.511279464E0,-1.966755509E0,-1.061988473E0
1.497357136E1,-1.746004224E0,-1.179427147E0,-1.088026524E0
1.499023730E1,-1.827172875E0,-5.513818264E-1,-1.132772326E0
1.500690323E1,-1.657352448E0,-5.031998754E-1,-1.131703377E0
1.502356917E1,-1.234405041E0,-7.856484652E-1,-1.075198412E0
1.504023511E1,-4.459312856E-1,-8.390991092E-1,-8.359684348E-1
1.505690105E1,5.141954422E-1,-2.987892330E-1,-6.343067288E-1
1.507356698E1,1.290299177E0,6.096430421E-1,-7.443387508E-1
1.509023292E1,1.748676777E0,1.344742417E0,-8.755983114E-1
1.510689886E1,2.035172462E0,1.730579972E0,-9.153045416E-1
1.512356480E1,2.659399748E0,2.221333504E0,-9.538653493E-1
1.514023073E1,3.371362686E0,2.142302752E0,-5.854375362E-1
1.515689667E1,3.768424749E0,6.826413870E-1,7.322741300E-2
1.517356261E1,4.381351471E0,-4.935787320E-1,-3.252854943E-2
1.519022854E1,4.389979839E0,5.666534305E-1,-5.807796717E-1
1.520689448E1,2.988044977E0,3.137248755E0,-9.106466770E-1
1.522356042E1,1.713322997E0,4.982823849E0,-7.486147881E-1
1.524022636E1,1.609399676E0,4.918988705E0,-6.032289565E-2
1.525689230E1,2.369315386E0,3.251404047E0,7.969494462E-1
1.527355823E1,3.128238440E0,1.225547433E0,1.340466380E0
1.529022417E1,3.322340727E0,-1.611155830E-2,1.407356143E0
1.530689011E1,2.861214161E0,8.055779338E-2,1.040150046E0
1.532355604E1,2.013181210E0,1.129718065E0,6.304124594E-1
1.534022198E1,1.014799118E0,2.072740555E0,4.444041252E-1
1.535688792E1,1.724929363E-1,2.066708326E0,4.331794977E-1
1.537355386E1,-3.192532063E-1,1.294346094E0,5.012145638E-1
1.539021980E1,-4.579195082E-1,2.118173689E-1,6.407971382E-1
1.540688573E1,-4.521162808E-1,-6.387354732E-1,8.346703649E-1
1.542355167E1,-5.920043588E-1,-9.331722856E-1,1.064202785E0
1.544021761E1,-1.010446668E0,-9.820414782E-1,1.101236463E0
1.545688354E1,-1.537852049E0,-1.341840863E0,8.500183225E-1
1.547354948E1,-1.929111004E0,-1.311373949E0,4.214966893E-1
1.549021542E1,-2.610454321E0,-1.834121495E-1,3.825540841E-2
1.550688136E1,-4.495811939E0,1.036561131E0,4.802924395E-2
1.552354730E1,-5.723192215E0,-3.833176568E-2,4.828122556E-1
1.554021323E1,-4.084089279E0,-2.254549265E0,5.612320304E-1
1.555687917E1,-1.732794285E0,-2.395353556E0,-1.007926911E-1
1.557354511E1,-1.708741546E0,-8.386409879E-1,-5.632936954E-1
1.559021104E1,-2.700938702E0,2.476293147E-1,-9.922734499E-1
1.560687698E1,-2.880151033E0,-1.323285848E-1,-1.451185584E0
1.562354292E1,-2.284710646E0,-1.217453480E0,-1.562210321E0
1.564020886E1,-1.605276227E0,-2.147647858E0,-1.346804142E0
1.565687480E1,-1.073518515E0,-2.717202902E0,-1.088561058E0
1.567354073E1,-7.242565751E-1,-2.780656576E0,-9.666935205E-1
1.569020667E1,-5.583304167E-1,-2.322813272E0,-9.053016305E-1
1.570687261E1,-4.545597434E-1,-1.825645804E0,-8.070287108E-1
1.572353854E1,-1.522580534E-1,-1.770362496E0,-6.993638277E-1
1.574020448E1,3.775908053E-1,-2.123518705E0,-6.495783329E-1
1.575687042E1,9.744057059E-1,-2.397720575E0,-6.616429090E-1
1.577353636E1,1.536859393E0,-2.350149632E0,-7.102830410E-1
1.579020230E1,1.885510445E0,-1.772653222E0,-7.157807946E-1
1.580686823E1,1.949804068E0,-8.765909672E-1,-5.797106624E-1
1.582353417E1,1.896658778E0,-2.977965772E-1,-2.119700760E-1
1.584020011E1,2.188423157E0,-3.394880891E-1,-1.169806048E-1
1.585686604E1,2.967581034E0,-6.537780166E-1,-2.759581506E-1
1.587353198E1,3.328449488E0,-1.097571254E0,-1.687513888E-1
1.589019792E1,3.005607367E0,-1.911472201E0,-5.093085170E-1
1.590686386E1,2.780122042E0,-1.153999925E0,-1.669493437E0
1.592352980E1,2.159941435E0,1.801898360E0,-2.705138206E0
1.594019573E1,1.465235591E0,4.855916977E0,-2.940015793E0
1.595686167E1,1.485241294E0,6.397052288E0,-2.465144873E0
1.597352761E1,1.914450169E0,6.155149937E0,-1.687895775E0
1.599019354E1,2.340681076E0,4.791470528E0,-9.808961153E-1
1.600685948E1,2.815475702E0,3.450240612E0,-6.004800797E-1
1.602352542E1,3.239950418E0,2.809443474E0,-5.046506524E-1
1.604019136E1,3.511556149E0,2.740873814E0,-6.042979956E-1
1.605685730E1,3.606927395E0,3.001942158E0,-7.754164934E-1
1.607352323E1,3.476660490E0,3.369606495E0,-9.033926725E-1
1.609018917E1,2.800815105E0,3.295691729E0,-1.034575820E0
1.610685511E1,1.609705091E0,2.656039953E0,-1.084208608E0
1.612352104E1,2.273944169E-1,1.596724153E0,-1.001818180E0
1.614018698E1,-9.556216002E-1,5.019781590E-1,-7.830522656E-1
1.615685292E1,-1.589775562E0,-4.640281498E-1,-2.954294682E-1
1.617351886E1,-1.749134898E0,-1.169271588E0,2.501491308E-1
1.619018480E1,-1.676671147E0,-1.673540473E0,5.348884463E-1
1.620685073E1,-1.377271056E0,-1.864817500E0,5.496255755E-1
1.622351667E1,-1.538615704E0,-1.197142243E0,5.294670463E-1
1.624018261E1,-4.110738277E0,4.523453712E-1,7.737365961E-1
1.625684854E1,-8.350979805E0,-1.283961415E0,1.821140647E0
1.627351448E1,-8.231708527E0,-5.301160812E0,2.069151640E0
1.629018042E1,-4.242150307E0,-4.590954304E0,7.668643594E-1
1.630684636E1,-1.963548422E0,-3.028362095E-1,6.834049523E-2
1.632351230E1,-1.371925950E0,2.409937859E0,5.096139312E-1
1.634017823E1,-5.854375362E-1,2.167195559E0,6.653081179E-1
1.635684417E1,9.720385820E-2,4.482220486E-2,5.067123175E-1
1.637351011E1,1.065500855E0,-1.885357738E0,3.175733387E-1
1.639017604E1,2.227823734E0,-2.765919447E0,3.275762498E-1
1.640684198E1,3.133736372E0,-2.708192587E0,4.814378023E-1
1.642350792E1,3.610440016E0,-1.970497012E0,5.689441562E-1
1.644017386E1,3.912130833E0,-9.569196701E-1,4.358520210E-1
1.645683980E1,4.281932831E0,1.015562657E-2,1.085812151E-1
1.647350573E1,4.791317940E0,7.492256761E-1,-1.442404389E-1
1.649017167E1,5.311622143E0,7.856484652E-1,-2.454912812E-1
1.650683761E1,5.856971741E0,5.355756879E-1,-1.573740393E-1
1.652350354E1,6.442790985E0,4.786125422E-1,-5.375609919E-2
1.654016948E1,7.018148899E0,9.377537966E-1,-4.270708263E-1
1.655683542E1,7.043728828E0,2.202091217E0,-1.269071579E0
1.657350136E1,5.744572163E0,4.067137718E0,-1.508530617E0
1.659016730E1,4.126315117E0,5.548561096E0,-9.302706718E-1
1.660683323E1,2.379012823E0,4.955487728E0,-2.915352285E-1
1.662349917E1,1.827249229E-1,2.364657640E0,5.444332212E-2
1.664016511E1,3.361283541E-1,2.004705429E0,2.440404743E-1
1.665683104E1,1.680030823E0,3.530263901E0,7.279217243E-1
1.667349698E1,2.545778990E0,3.733834505E0,1.478063703E0
1.669016292E1,3.323409796E0,2.911686897E0,1.827325583E0
1.670682886E1,3.771097422E0,2.094349861E0,1.779678226E0
1.672349480E1,3.280114889E0,1.668271661E0,1.762573957E0
1.674016073E1,1.937128544E0,1.763261199E0,1.777998328E0
1.675682667E1,3.503309488E-1,1.933616042E0,1.754556417E0
1.677349261E1,-6.981421113E-1,1.714086533E0,1.779983640E0
1.679015854E1,-1.034499526E0,1.258915901E0,1.976911187E0
1.680682448E1,-8.688024282E-1,5.917752385E-1,2.298073292E0
1.682349042E1,-3.737728894E-1,-1.336266696E-1,2.528980255E0
1.684015636E1,1.569158882E-1,-5.487856269E-1,2.504087448E0
1.685682230E1,3.691150546E-1,-2.156352699E-1,2.343506336E0
1.687348823E1,-3.588830680E-2,6.705768108E-1,2.076864004E0
1.689015417E1,-5.968148708E-1,1.533194184E0,1.737299442E0
1.690682011E1,-2.438877672E-1,1.928500056E0,1.562515736E0
1.692348604E1,1.144149780E0,1.757152557E0,1.866726398E0
1.694015198E1,2.706283808E0,1.427209258E0,2.309450626E0
1.695681792E1,3.409923553E0,1.491808176E0,2.404974699E0
1.697348386E1,2.650084019E0,1.931936264E0,2.242102861E0
1.699014980E1,1.540677309E0,1.909105182E0,2.117944479E0
1.700681573E1,1.501963735E0,7.496837974E-1,1.788306594E0
1.702348167E1,2.898018837E0,5.883391500E-1,1.112613797E0
1.704014761E1,4.403495312E0,2.521115303E0,1.512653977E-1
1.705681354E1,4.367301464E0,4.735881805E0,-3.174206018E-1
1.707347948E1,3.414352417E0,4.782689571E0,1.488982886E-1
1.709014542E1,3.174893379E0,1.342757106E0,5.393172503E-1
1.710681136E1,4.049727917E0,-1.557934284E0,3.958403766E-1
1.712347730E1,4.595917702E0,-1.383455992E0,3.772853613E-1
1.714014323E1,4.004065990E0,3.577376902E-1,2.228892893E-1
1.715680917E1,3.073031664E0,6.034580469E-1,6.314814836E-2
1.717347511E1,2.506454468E0,-5.953640938E-1,2.438877672E-1
1.719014104E1,2.184681416E0,-1.700953007E0,6.225475669E-1
1.720680698E1,2.101756573E0,-2.065410137E0,7.898481488E-1
1.722347292E1,1.836641312E0,-1.711108565E0,9.876156449E-1
1.724013886E1,1.215315461E0,-1.016555309E0,1.477300167E0
1.725680480E1,7.315105796E-1,-7.645736337E-1,2.081979990E0
1.727347073E1,5.235111117E-1,-1.387273908E0,2.695135355E0
1.729013667E1,5.235874653E-1,-2.172693253E0,3.115715742E0
1.730680261E1,3.972148299E-1,-2.153222084E0,3.303327560E0
1.732346854E1,-1.238528341E-1,-1.430263519E0,3.377624035E0
1.734013448E1,-8.746820092E-1,-6.362920403E-1,3.474369764E0
1.735680042E1,-1.296025991E0,-3.475056887E-1,3.498575211E0
1.737346636E1,-1.345887780E0,-3.923279047E-1,3.527896881E0
1.739013230E1,-1.415068269E0,-3.533852696E-1,3.424660683E0
1.740679823E1,-1.685757756E0,-2.101374865E-1,3.098535299E0
1.742346417E1,-2.175289392E0,-6.711876392E-2,2.550742149E0
1.744013011E1,-2.539212227E0,3.619373739E-1,1.911777735E0
1.745679604E1,-2.693913698E0,1.178587198E0,1.336113930E0
1.747346198E1,-2.778747559E0,2.076252937E0,7.489202023E-1
1.749012792E1,-2.897102594E0,2.541960955E0,1.796706021E-1
1.750679386E1,-2.872973442E0,2.564944744E0,-3.110828996E-1
1.752345980E1,-2.605720043E0,2.731710911E0,-6.376664639E-1
1.754012573E1,-2.245615244E0,2.807229042E0,-4.660134614E-1
1.755679167E1,-1.754785419E0,2.176205873E0,-2.735910714E-1
1.757345761E1,-1.224631190E0,1.512501240E0,-4.351648092E-1
1.759012354E1,-1.069471478E0,1.538233876E0,-7.244856358E-1
1.760678948E1,-9.691369534E-1,2.085416079E0,-8.724676371E-1
1.762345542E1,-3.806451261E-1,2.654436588E0,-8.965204358E-1
1.764012136E1,4.918988645E-1,2.751716852E0,-8.473458290E-1
1.765678730E1,1.201418281E0,2.376874924E0,-6.536253095E-1
1.767345323E1,1.644066215E0,2.034408808E0,-5.493965149E-1
1.769011917E1,1.715079188E0,1.780594468E0,-7.075341344E-1
1.770678511E1,1.656741619E0,1.352072835E0,-8.476512432E-1
1.772345104E1,2.146731615E0,7.048615813E-1,-7.194460034E-1
1.774011698E1,3.171151876E0,3.871355578E-2,-4.432587624E-1
1.775678292E1,4.071566582E0,-4.499019086E-1,-2.896262705E-1
1.777344886E1,4.710225582E0,-5.868119597E-1,-4.106538594E-1
1.779011480E1,5.313683510E0,-6.902772188E-1,-6.870701313E-1
1.780678073E1,5.706622601E0,-7.653372288E-1,-1.127732754E0
1.782344667E1,5.861323833E0,-7.589994669E-1,-1.676900148E0
1.784011261E1,6.042827129E0,-3.455203772E-1,-2.283412457E0
1.785677854E1,6.426068306E0,-1.307250559E-1,-2.594495535E0
1.787344448E1,7.089085579E0,-5.724566579E-1,-2.711399794E0
1.789011042E1,7.572508812E0,-1.515479207E0,-2.713079453E0
1.790677636E1,7.432086468E0,-1.996611476E0,-2.627711296E0
1.792344230E1,6.464170933E0,-1.467526317E0,-2.742630243E0
1.794010823E1,5.156003952E0,8.315397054E-2,-2.940015793E0
1.795677417E1,4.185721874E0,1.663232088E0,-2.600604057E0
1.797344011E1,3.536219835E0,2.437197685E0,-1.699578524E0
1.799010604E1,3.116632223E0,2.376874924E0,-7.347176075E-1
1.800677198E1,2.739881277E0,2.032499790E0,3.031416424E-2
1.802343792E1,1.993862629E0,1.876652956E0,2.928332984E-1
1.804010386E1,8.065705895E-1,2.441702843E0,2.260199636E-1
1.805676980E1,-2.784016132E-1,3.257054567E0,3.289506733E-1
1.807343573E1,-9.292780161E-1,3.469864607E0,7.208204269E-1
1.809010167E1,-9.504292607E-1,2.856480122E0,1.160795808E0
1.810676761E1,-8.156571984E-1,1.956370831E0,1.270064235E0
1.812343354E1,-1.336190343E0,1.446756840E0,1.013042927E0
1.814009948E1,-2.508363485E0,1.491044521E0,5.751292109E-1
1.815676542E1,-3.598222733E0,1.745698810E0,2.978729308E-1
1.817343136E1,-3.925264359E0,1.538844705E0,3.908007443E-1
1.819009730E1,-3.388543367E0,8.042035103E-1,7.212022543E-1
1.820676323E1,-2.722013474E0,5.131264031E-2,6.441569328E-1
1.822342917E1,-3.116632223E0,1.988364905E-1,7.269290835E-2
1.824009511E1,-4.716639519E0,5.734493136E-1,-5.445859432E-1
1.825676104E1,-5.647368431E0,-3.065013885E-1,-1.139720917E0
1.827342698E1,-4.694725037E0,-1.409112334E0,-1.764406562E0
1.829009292E1,-3.477882147E0,-8.019890785E-1,-2.344499111E0
1.830675886E1,-3.357236385E0,1.204167232E-1,-2.209879637E0
1.832342480E1,-2.744081020E0,-4.075995386E-1,-1.953163743E0
1.834009073E1,-1.405065298E0,-2.117028236E0,-1.733634233E0
1.835675667E1,-3.833940029E-1,-3.225213289E0,-1.561064959E0
1.837342261E1,-3.939314187E-1,-2.884427071E0,-1.675831199E0
1.839008854E1,-1.080161691E0,-1.721493363E0,-2.011501312E0
1.840675448E1,-1.570915103E0,-6.974548697E-1,-2.270737171E0
1.842342042E1,-1.494786143E0,-1.514181048E-1,-2.311588764E0
1.844008636E1,-9.368374944E-1,-1.856265366E-1,-2.090226650E0
1.845675230E1,-2.487746775E-1,-5.686387420E-1,-1.739361048E0
1.847341823E1,3.145190179E-1,-8.898009062E-1,-1.419191599E0
1.849008417E1,7.544180155E-1,-8.360447884E-1,-1.091157198E0
1.850675011E1,1.336648464E0,-4.035525322E-1,-8.543707728E-1
1.852341604E1,2.203771114E0,1.617264450E-1,-9.823469520E-1
1.854008198E1,3.072344303E0,1.021824002E0,-1.233717799E0
1.855674792E1,3.686950684E0,1.931783557E0,-1.095891356E0
1.857341386E1,4.003073215E0,1.664072037E0,-6.444623470E-1
1.859007980E1,4.741837978E0,2.520580888E-1,-5.154935122E-1
1.860674573E1,5.361025810E0,2.469420880E-1,-7.119628787E-1
1.862341167E1,4.781696796E0,1.619249821E0,-7.170025110E-1
1.864007761E1,3.263239622E0,2.900233269E0,-7.204386592E-1
1.865674354E1,1.964770198E0,3.414581299E0,-5.561160445E-1
1.867340948E1,1.441793561E0,3.263850451E0,-1.298087649E-2
1.869007542E1,1.467831731E0,2.514090300E0,7.599157691E-1
1.870674136E1,1.716530085E0,1.172707677E0,1.295262456E0
1.872340730E1,1.859701514E0,2.413679510E-1,1.394909739E0
1.874007323E1,1.769827962E0,3.583485484E-1,1.169347882E0
1.875673917E1,1.398651242E0,1.244178891E0,9.282854199E-1
1.877340511E1,7.718276381E-1,1.977445602E0,7.535017133E-1
1.879007104E1,9.896009415E-2,1.862068534E0,5.301542878E-1
1.880673698E1,-5.524508357E-1,1.027169108E0,3.273471594E-1
1.882340292E1,-1.232343316E0,1.550832987E-1,2.754236460E-1
1.884006886E1,-1.727983713E0,-3.821722865E-1,4.507418573E-1
1.885673480E1,-1.943771720E0,-6.508764029E-1,7.958804369E-1
1.887340073E1,-2.077322006E0,-8.681151867E-1,1.094822407E0
1.889006667E1,-2.036394119E0,-1.661704898E0,8.751401305E-1
1.890673261E1,-2.135201454E0,-2.100840330E0,2.409861535E-1
1.892339854E1,-3.261712551E0,-1.515860915E0,5.429060757E-2
1.894006448E1,-4.826213360E0,-1.100243807E0,3.631591201E-1
1.895673042E1,-4.427700520E0,-1.871536970E0,3.187950552E-1
1.897339636E1,-2.388939381E0,-2.591059208E0,-3.946186602E-1
1.899006230E1,-1.851912975E0,-1.892917275E0,-1.101236463E0
1.900672823E1,-2.916879416E0,-7.037925720E-1,-1.421329618E0
1.902339417E1,-3.162446976E0,-7.221949100E-1,-1.638644814E0
1.904006011E1,-2.276922226E0,-1.856036305E0,-1.591302752E0
1.905672604E1,-1.363755584E0,-3.034165382E0,-1.306028843E0
1.907339198E1,-8.416953087E-1,-3.688706875E0,-9.849430919E-1
1.909005792E1,-6.669116020E-1,-3.535227299E0,-8.495602012E-1
1.910672386E1,-8.504765034E-1,-2.498895168E0,-9.380592108E-1
1.912338980E1,-1.235168576E0,-1.279608965E0,-1.083597779E0
1.914005573E1,-1.430187106E0,-6.498073936E-1,-1.129565358E0
1.915672167E1,-1.046716809E0,-8.578068614E-1,-1.043128014E0
1.917338761E1,-2.492328286E-1,-1.504330873E0,-9.430988431E-1
1.919005354E1,5.945241451E-1,-1.639866471E0,-9.245438576E-1
1.920671948E1,1.097953081E0,-9.072869420E-1,-9.151517749E-1
1.922338542E1,1.113530159E0,5.807033181E-1,-8.739184141E-1
1.924005136E1,9.137009978E-1,1.828623772E0,-7.610611320E-1
1.925671730E1,1.120707750E0,2.140241146E0,-7.199804783E-1
1.927338323E1,2.307847023E0,1.757305264E0,-6.015490890E-1
1.929004917E1,3.607156515E0,4.625009894E-1,1.313359290E-2
1.930671511E1,4.459541798E0,-8.216131330E-1,-3.764454275E-2
1.932338104E1,4.640205383E0,1.912006736E-1,-1.098945737E0
1.934004698E1,3.585394382E0,2.583270788E0,-1.754861832E0
1.935671292E1,2.295171738E0,4.260323524E0,-1.785099626E0
1.937337886E1,1.817246318E0,4.426326275E0,-1.336724877E0
1.939004480E1,2.118631840E0,3.247357130E0,-4.470766485E-1
1.940671073E1,2.723922491E0,1.577863693E0,3.398698866E-1
1.942337667E1,2.973766088E0,5.118283033E-1,6.451495886E-1
1.944004261E1,2.750418663E0,3.267363012E-1,6.400335431E-1
1.945670854E1,2.310595989E0,6.646972299E-1,5.794816017E-1
1.947337448E1,1.853058338E0,1.045876861E0,5.972730517E-1
1.949004042E1,1.408196092E0,8.790344000E-1,6.782889962E-1
1.950670636E1,1.000672817E0,2.289979309E-1,7.348703146E-1
1.952337230E1,5.007563829E-1,-4.161516428E-1,8.037453294E-1
1.954003823E1,-1.736383140E-1,-8.779653907E-1,9.046143889E-1
1.955670417E1,-8.572723866E-1,-1.149342060E0,1.093066216E0
1.957337011E1,-1.436295867E0,-1.348178625E0,1.329318166E0
1.959003604E1,-2.021427870E0,-1.722867727E0,1.450422049E0
1.960670198E1,-2.406349182E0,-1.752189279E0,1.279990792E0
1.962336792E1,-2.625802279E0,-8.963677287E-1,9.655481577E-1
1.964003386E1,-3.892201185E0,6.685914993E-1,7.335722446E-1
1.965669980E1,-6.962636948E0,1.134452224E0,9.014837146E-1
1.967336573E1,-8.647554398E0,-1.408196092E0,1.092378974E0
1.969003167E1,-7.145972729E0,-3.052796841E0,4.847212136E-1
1.970669761E1,-5.127598763E0,-1.302440047E0,-5.522981286E-1
1.972336354E1,-3.927020550E0,1.538539290E0,-1.104214430E0
1.974002948E1,-3.065624952E0,2.581590891E0,-1.156367064E0
1.975669542E1,-2.370308161E0,1.655443549E0,-1.015180945E0
1.977336136E1,-1.745927930E0,-1.031597927E-1,-7.822123766E-1
1.979002730E1,-1.120936871E0,-1.744400740E0,-5.056433082E-1
1.980669323E1,-4.717403352E-1,-2.767904758E0,-2.717584670E-1
1.982335917E1,2.321286127E-2,-2.995146275E0,-1.114828214E-1
1.984002511E1,1.141553521E-1,-2.574031353E0,-2.962694131E-2
1.985669104E1,-1.527161920E-3,-2.080758095E0,-2.611446939E-2
1.987335698E1,-4.909825698E-2,-1.819308043E0,-8.933897130E-3
1.989002292E1,6.291907281E-2,-1.808923364E0,4.428769462E-3
1.990668886E1,2.858083546E-1,-1.855807185E0,-2.428187430E-2
1.992335480E1,5.668061376E-1,-1.770973325E0,-8.949168772E-2
1.994002073E1,8.148172498E-1,-1.538921118E0,-2.174678594E-1
1.995668667E1,9.246202111E-1,-1.022205830E0,-3.672060966E-1
1.997335261E1,8.661298752E-1,-6.080395579E-1,-2.942077518E-1
1.999001854E1,8.672752976E-1,-3.275762498E-1,2.893971838E-2
2.000668448E1,8.529199362E-1,4.565450549E-1,4.847212136E-1
2.002335042E1,8.025999665E-1,1.935143232E0,4.100429714E-1
2.004001636E1,5.757400393E-1,3.318522930E0,1.132390574E-1
2.005668230E1,-3.517054021E-1,2.454760075E0,6.134609580E-1
2.007334823E1,-1.565340996E0,-9.543235302E-1,1.326340199E0
2.009001417E1,-1.534645081E0,-1.776776552E0,1.091768026E0
2.010668011E1,-5.818486959E-2,1.211192131E0,-1.167515293E-1
2.012334604E1,1.905592680E0,4.628751278E0,-9.770018458E-1
2.014001198E1,3.177107811E0,5.582234859E0,-7.432697415E-1
2.015667792E1,3.629376650E0,4.130743980E0,6.612611562E-2
2.017334386E1,3.809963703E0,1.588859320E0,8.411607742E-1
2.019000980E1,4.043924809E0,-4.534143806E-1,1.161483049E0
2.020667573E1,4.054615021E0,-1.075351119E0,9.517273307E-1
2.022334167E1,3.452989578E0,-5.645917654E-1,4.831940532E-1
2.024000761E1,2.183307171E0,4.379136860E-1,-1.473711245E-2
2.025667354E1,7.513636947E-1,1.156825185E0,-3.308596313E-1
2.027333948E1,-2.462548614E-1,1.097494960E0,-4.811323583E-1
2.029000542E1,-6.113992929E-1,2.086103261E-1,-6.160571575E-1
2.030667136E1,-5.942950845E-1,-8.518509269E-1,-6.989820004E-1
2.032333730E1,-7.331140637E-1,-1.412777543E0,-7.363211513E-1
2.034000323E1,-1.256396174E0,-1.462181211E0,-7.368556261E-1
2.035666917E1,-2.139859438E0,-1.139339209E0,-7.402154207E-1
2.037333511E1,-2.834183455E0,-7.402917743E-1,-8.564324379E-1
2.039000104E1,-3.221013546E0,-6.772199869E-1,-1.091920853E0
2.040666698E1,-4.518872261E0,-5.335903764E-1,-9.381355643E-1
2.042333292E1,-6.947135925E0,-1.263802886E0,7.028762698E-1
2.043999886E1,-7.318007469E0,-1.123762131E0,1.899178624E0
2.045666480E1,-4.805214882E0,1.317406297E0,8.119919896E-1
2.047333073E1,-1.585041404E0,3.566075802E0,-9.087377191E-1
2.048999667E1,2.467130125E-1,3.516061306E0,-1.165453672E0
2.050666261E1,7.033344507E-1,1.727449179E0,-6.097957492E-1
2.052332855E1,2.711476088E-1,-3.717112243E-1,-1.805869043E-1
2.053999448E1,-4.292088747E-1,-1.562973857E0,-1.673769504E-1
2.055666042E1,-1.105359793E0,-1.746920586E0,-4.159225523E-1
2.057332636E1,-1.682550669E0,-1.370322466E0,-7.292198539E-1
2.058999230E1,-2.136881351E0,-8.197041750E-1,-1.032743216E0
2.060665823E1,-2.368857145E0,-3.411679864E-1,-1.270598769E0
2.062332417E1,-2.251494884E0,-2.000582218E-1,-1.329470873E0
2.063999011E1,-1.819460750E0,-2.990946770E-1,-1.252501845E0
2.065665605E1,-1.167057157E0,-4.386008978E-1,-1.185535789E0
2.067332198E1,-4.208858311E-1,-4.749473631E-1,-1.199967504E0
2.068998792E1,1.323285848E-1,-1.855501831E-1,-1.281594276E0
2.070665386E1,3.701077104E-1,1.187368408E-1,-1.437670231E0
2.072331980E1,4.767036140E-1,1.748600453E-1,-1.510210395E0
2.073998573E1,4.854847789E-1,2.004400045E-1,-1.345964193E0
2.075665167E1,4.618137777E-1,3.117701113E-1,-1.096731305E0
2.077331761E1,4.438696206E-1,5.593230724E-1,-9.503529072E-1
2.078998355E1,3.988946974E-1,1.063668251E0,-9.888373613E-1
2.080664948E1,-7.806851864E-1,2.488510460E-1,-1.082147002E0
2.082331542E1,-3.082423687E0,-1.988593936E0,-1.400712967E0
2.083998136E1,-5.037954330E0,-1.756770730E0,-1.913533926E0
2.085664730E1,-5.391110897E0,2.365344763E0,-3.358229160E0
2.087331323E1,-3.843713999E0,6.244794369E0,-4.242914200E0
2.088997917E1,-1.917657256E0,6.742343426E0,-3.309665442E0
2.090664511E1,-4.492146969E-1,3.993604898E0,-1.875431180E0
2.092331105E1,3.882045746E-1,6.419425011E-1,-9.538653493E-1
2.093997698E1,4.043924809E-1,-1.107726932E0,-4.177551568E-1
2.095664292E1,-1.033125073E-1,-8.400917649E-1,-1.386663020E-1
2.097330886E1,-8.484911919E-1,2.744309902E-1,-6.910407543E-2
2.098997480E1,-1.398880363E0,1.174998403E0,-1.372154951E-1
2.100664073E1,-1.561752200E0,1.253189087E0,-2.541961074E-1
2.102330667E1,-1.512042999E0,9.692896605E-1,-4.821250141E-1
2.103997261E1,-1.304883480E0,2.296088040E-1,-4.392117858E-1
2.105663855E1,-1.134070516E0,-4.629591405E-1,-5.035816431E-1
2.107330448E1,-9.121738076E-1,-5.958985686E-1,-7.492256761E-1
2.108997042E1,-7.002801299E-1,-3.141372204E-1,-9.463059306E-1
2.110663636E1,-5.687150955E-1,8.796452731E-2,-1.115897179E0
2.112330230E1,-4.197404683E-1,3.177260458E-1,-1.235168576E0
2.113996823E1,-1.434005052E-1,1.973856837E-1,-1.360243201E0
2.115663417E1,1.996764243E-1,-2.070067972E-1,-1.413846493E0
2.117330011E1,4.262309074E-1,-5.764272809E-1,-1.410104990E0
2.118996605E1,4.839576185E-1,-7.551816106E-1,-1.473787665E0
2.120663198E1,5.317577720E-1,-7.786235213E-1,-1.588401198E0
2.122329792E1,5.476402640E-1,-8.445969224E-1,-1.649564028E0
2.123996386E1,4.591412544E-1,-1.018158913E0,-1.647044182E0
2.125662980E1,3.421606421E-1,-1.122387648E0,-1.710268617E0
2.127329573E1,7.559451740E-3,-5.843685269E-1,-1.872987747E0
2.128996167E1,-7.528908253E-1,2.049451321E-1,-1.890779257E0
2.130662761E1,-1.424612999E0,1.992182732E-1,-1.797240496E0
2.132329355E1,-1.571220517E0,-2.906952798E-1,-1.715995550E0
2.133995948E1,-1.171256900E0,-2.503018379E-1,-1.749974847E0
2.135662542E1,-6.290380359E-1,1.168278903E-1,-1.585117698E0
2.137329136E1,-1.333212405E-1,2.709185183E-1,-1.283274174E0
2.138995730E1,7.315105945E-2,-1.300378442E-1,-1.067638874E0
2.140662323E1,-1.382081583E-2,-9.991456866E-1,-1.059392214E0
2.142328917E1,-2.723693252E-1,-1.597105980E0,-1.128419995E0
2.143995511E1,-7.828232050E-1,-1.284419537E0,-9.538653493E-1
2.145662105E1,-1.378034592E0,-3.199404106E-2,-1.163391948E0
2.147328698E1,-1.635514140E0,-1.770744324E-1,-1.566562772E0
2.148995292E1,-1.322903991E0,-6.070469022E-1,-1.958203435E0
2.150661886E1,-8.238275051E-1,-4.848739207E-1,-2.497215271E0
2.152328480E1,-4.001927972E-1,-4.508182108E-1,-2.924896955E0
2.153995073E1,1.527161989E-2,-1.185077652E-1,-3.211468935E0
2.155661667E1,5.368737578E-1,2.187659442E-1,-3.325624228E0
2.157328261E1,1.049618363E0,4.665479809E-2,-3.218875647E0
2.158994855E1,1.430645347E0,-3.194059134E-1,-2.936808825E0
2.160661448E1,1.749211311E0,-2.802342176E-1,-2.655963659E0
2.162328042E1,2.030056477E0,1.857792437E-1,-2.499658585E0
2.163994636E1,2.158643484E0,6.443096399E-1,-2.296469688E0
2.165661230E1,1.840382814E0,4.292088747E-1,-1.855501771E0
2.167327823E1,9.709695578E-1,-2.076940238E-1,-1.491044521E0
2.168994417E1,4.169152305E-2,-3.158934414E-1,-1.589164734E0
2.170661011E1,-5.710822344E-1,-5.207622424E-2,-1.772805929E0
2.172327605E1,-7.386118770E-1,2.653443813E-1,-1.675143957E0
2.173994198E1,-4.585303664E-1,8.027526736E-1,-1.204319954E0
2.175660792E1,-3.543015569E-2,1.313206553E0,-7.812960744E-1
2.177327386E1,3.514763117E-1,1.301371098E0,-3.876700699E-1
2.178993980E1,6.578249931E-1,1.027321815E0,-1.014035568E-1
2.180660573E1,7.927497625E-1,7.970257998E-1,-2.235001475E-1
2.182327167E1,7.721330523E-1,8.216131330E-1,-3.591121435E-1
2.183993761E1,6.932551861E-1,1.103603601E0,-2.474765927E-1
2.185660355E1,6.460658908E-1,1.406210780E0,-3.283398226E-2
2.187326948E1,5.803215504E-1,1.462257624E0,5.413788930E-2
2.188993542E1,4.713585377E-1,1.141706228E0,-5.245801434E-2
2.190660136E1,3.174969554E-1,6.526326537E-1,-1.359937787E-1
2.192326730E1,1.314122826E-1,3.594175577E-1,-5.551233515E-2
2.193993323E1,-8.880446851E-2,1.413388401E-1,9.552398324E-2
2.195659917E1,-3.176496923E-1,-9.773836285E-2,1.944077164E-1
2.197326511E1,-4.654026031E-1,-2.064722925E-1,2.083048970E-1
2.198993105E1,-5.241983533E-1,-1.233946830E-1,-5.337430909E-2
2.200659698E1,-6.969203353E-1,-1.007926911E-1,-3.227656782E-1
2.202326292E1,-9.589049816E-1,-1.174387559E-1,-2.498437017E-1
2.203992886E1,-1.024572968E0,-1.008690447E-1,-4.024071619E-2
2.205659480E1,-7.691551447E-1,4.810560029E-3,1.152243689E-1
2.207326073E1,-3.822486401E-1,1.855501831E-1,1.690568328E-1
2.208992667E1,-1.469893306E-1,3.527744114E-1,2.383136153E-1
2.210659261E1,-8.720094711E-2,5.080104470E-1,3.400989771E-1
2.212325855E1,-7.528908551E-2,6.640864015E-1,3.578140438E-1
2.213992448E1,-6.925679743E-2,6.958513260E-1,3.437641561E-1
2.215659042E1,-2.168569900E-2,5.973494053E-1,3.815613985E-1
2.217325636E1,6.360629201E-2,5.314523578E-1,4.486801922E-1
2.218992230E1,1.020907760E-1,5.147299170E-1,4.844157696E-1
2.220658823E1,7.589995116E-2,4.704422355E-1,5.191587210E-1
2.222325417E1,4.153880477E-2,4.403571486E-1,5.191587210E-1
2.223992011E1,2.680169232E-2,4.866301417E-1,4.796051979E-1
2.225658605E1,3.436114267E-2,6.048324704E-1,4.607447684E-1
2.227325198E1,1.076649204E-1,7.194460034E-1,5.518399477E-1
2.228991792E1,2.025780380E-1,6.588176489E-1,6.942478418E-1
2.230658386E1,2.566395700E-1,5.557342172E-1,7.254782915E-1
2.232324980E1,1.737146676E-1,5.743656158E-1,6.380482912E-1
2.233991573E1,-2.451094985E-2,7.077631950E-1,4.909062088E-1
2.235658167E1,-6.063596606E-1,8.353576064E-1,3.965275884E-1
2.237324761E1,-1.017089844E0,5.941423774E-1,3.480401933E-1
2.238991355E1,-6.399571896E-1,5.387063622E-1,3.326158822E-1
2.240657948E1,-2.767217457E-1,6.652317643E-1,5.847502947E-1
2.242324542E1,1.870773360E-2,6.672170758E-1,8.614720702E-1
2.243991136E1,1.126281917E-1,3.260490894E-1,9.763910174E-1
