"Time (s)","Linear Acceleration x (m/s^2)","Linear Acceleration y (m/s^2)","Linear Acceleration z (m/s^2)"
3.533604500E-2,0.000000000E0,0.000000000E0,0.000000000E0
5.200198200E-2,2.958643436E-2,1.000380516E-2,-6.651306152E-2
6.866792000E-2,-1.095169783E-1,1.494710445E-1,-1.367139816E-1
8.533385700E-2,-1.885420084E-1,2.377657890E-1,-1.682186127E-2
1.019997950E-1,-2.256081104E-1,3.550918102E-1,-1.025581360E-2
1.186657320E-1,-2.464505434E-1,4.542043209E-1,-1.964092255E-2
1.353316700E-1,-8.037161827E-2,3.645458221E-1,-8.082008362E-2
1.519976070E-1,-1.312030554E-1,4.046027660E-1,2.423343658E-1
1.686635450E-1,6.225943565E-3,3.948574066E-1,3.113451004E-1
1.853294820E-1,-1.568298340E-1,4.848895073E-1,5.368738174E-1
2.019954200E-1,-6.012322903E-1,4.655828476E-1,7.916936874E-1
2.186613570E-1,-4.705200195E-1,2.250988483E-1,7.663784027E-1
2.353272950E-1,-3.794085979E-1,2.075130939E-1,7.164182663E-1
2.519932320E-1,-6.811695099E-1,7.391712666E-1,1.705455780E-1
2.686591700E-1,-3.522986174E-1,-3.031902313E-1,-2.252054214E-1
2.853251070E-1,-5.611521006E-1,-6.942062378E-1,-5.065164566E-1
3.019910450E-1,-8.414925337E-1,-3.144629002E-1,-7.423639297E-1
3.186569820E-1,-8.971610069E-1,-5.162739754E-2,-6.119470596E-1
3.353229200E-1,-6.967507601E-1,-4.354119301E-2,-8.459043503E-1
3.519888570E-1,4.783509374E-1,-3.085613251E-2,-1.728475571E0
3.686547950E-1,7.979235053E-1,-3.136584759E-1,-3.006455421E0
3.853207320E-1,1.127177238E0,-1.533562183E0,-2.025035381E0
4.019866700E-1,6.634269953E-1,-1.346286058E0,-1.267689705E0
4.186526070E-1,1.388050318E-1,-1.007825136E-1,-1.103744507E0
4.353185450E-1,2.273327857E-1,-4.065325260E-1,-1.202382088E0
4.519844820E-1,-1.359915361E-2,-1.484689116E0,-7.233743668E-1
4.686504200E-1,4.673183262E-1,-2.379765987E0,4.288673401E-3
4.853163570E-1,8.864742517E-1,-7.099595070E-1,2.223463058E-1
5.019822950E-1,6.703146696E-1,-1.189278960E-1,-3.158283234E-1
5.186482320E-1,5.058627725E-1,-1.649752557E-1,9.307374954E-1
5.353141700E-1,2.664188743E-1,1.176649928E-1,1.602999687E0
5.519801070E-1,6.108337641E-2,1.298915744E-1,9.188556671E-1
5.686460450E-1,-2.381826937E-1,5.085417628E-1,2.229442596E-1
5.853119820E-1,1.282870770E0,-4.141507149E-1,-3.030776978E-3
6.019779200E-1,1.246023178E0,-3.452756107E-1,7.914695740E-1
6.186438570E-1,5.291088820E-1,7.644779086E-1,5.156784058E-1
6.353097950E-1,3.020256460E-1,1.159799695E0,7.461090088E-1
6.519757320E-1,5.582043529E-1,-7.132214308E-2,8.875026703E-1
6.686416700E-1,2.170105875E-1,-8.230811357E-2,8.948564529E-1
6.853076070E-1,-2.199814916E-1,2.294391990E-1,6.096382141E-1
7.019735450E-1,-4.666795433E-1,1.865287423E-1,6.468801498E-1
7.186394820E-1,-5.209758282E-1,-4.158353806E-2,1.410331726E-1
7.353054200E-1,-2.651941478E-1,-4.388308525E-2,-6.062707901E-1
7.519713570E-1,1.378470659E-1,-2.443122864E-1,-1.082409859E0
7.686372950E-1,-6.250276417E-2,-4.571948051E-1,-1.216067314E0
7.853032320E-1,-4.642332792E-1,-5.343421698E-1,-1.105176926E0
8.019691700E-1,-4.086848795E-1,-5.733736753E-1,-1.142189026E0
8.186351070E-1,-3.029675782E-1,-5.224757195E-1,-1.172063828E0
8.353010450E-1,-2.592332959E-1,-3.068282604E-1,-1.240383148E0
8.519669820E-1,-3.028383851E-1,-1.637222767E-1,-1.313420296E0
8.686329200E-1,-4.831178784E-1,-1.222441196E-1,-1.147268295E0
8.852988570E-1,-4.527784586E-1,-6.889247894E-2,-7.648572922E-1
9.019647950E-1,-5.337547064E-1,-6.527185440E-2,-7.979583740E-1
9.186307320E-1,-6.029747725E-1,-1.456861496E-1,-6.057796478E-1
9.352966700E-1,-5.737057328E-1,-2.039909363E-1,-7.451782227E-1
9.519626070E-1,-5.477440953E-1,-1.724727154E-1,-7.343902588E-1
9.686285450E-1,-4.347719848E-1,-1.870248318E-1,-4.763240814E-1
9.852944820E-1,-3.129879534E-1,-2.118580341E-1,-2.547988892E-1
1.001960420E0,-2.424187958E-1,-1.867306232E-1,-4.130744934E-2
1.018626357E0,-3.535519242E-1,-1.734194756E-1,2.424249649E-1
1.035292295E0,-4.967330098E-1,-1.686377525E-1,2.496843338E-1
1.051958232E0,-4.200699627E-1,-6.565237045E-2,1.171979904E-1
1.068624170E0,-3.319365084E-1,-9.810638428E-2,1.859426498E-1
1.085290107E0,-2.614275515E-1,-1.272742748E-1,2.095603943E-2
1.101956045E0,-2.458326221E-1,-1.389789581E-2,-3.134927750E-1
1.118621982E0,-1.996117830E-1,3.118348122E-2,-1.352977753E-1
1.135287920E0,-9.162527323E-2,-1.040244102E-2,1.731300354E-2
1.151953857E0,4.958349466E-2,1.496553421E-3,2.004432678E-1
1.168619795E0,-3.777378798E-2,3.353834152E-3,5.627174377E-1
1.185285732E0,-1.513475180E-2,-1.068725586E-1,9.873418808E-1
1.201951670E0,2.177467346E-1,-1.820700169E-1,9.209756851E-1
1.218617607E0,3.381050229E-1,-1.227600574E-1,5.928287506E-1
1.235283545E0,2.600609660E-1,-2.904057503E-2,3.231773376E-1
1.251949482E0,1.541504860E-1,9.911394119E-2,1.435089111E-1
1.268615420E0,1.689572334E-1,1.620478630E-1,8.673954010E-2
1.285281357E0,2.346959710E-1,1.447386742E-1,6.093406677E-2
1.301947295E0,2.643465996E-1,1.525523663E-1,5.382633209E-2
1.318613232E0,2.475911975E-1,1.588892937E-1,2.771186829E-2
1.335279170E0,1.781778336E-1,1.274495125E-1,5.169868469E-3
1.351945107E0,1.441057324E-1,1.530530453E-1,-1.009922028E-1
1.368611045E0,2.086370587E-1,1.643555164E-1,-2.402782440E-1
1.385276982E0,1.169357896E-1,1.294536591E-1,-2.122402191E-1
1.401942920E0,5.364179611E-3,7.735061646E-2,-2.690124512E-1
1.418608857E0,-4.690885544E-3,1.484506130E-1,-2.697181702E-1
1.435274795E0,1.177376509E-2,1.636438370E-1,-3.644199371E-1
1.451940732E0,-3.529524803E-2,2.256820202E-1,-2.320241928E-1
1.468606670E0,7.613599300E-2,1.281511784E-1,3.916072845E-2
1.485272607E0,5.711120367E-2,-1.412215233E-1,3.880348206E-1
1.501938545E0,-7.343253493E-2,-2.998154163E-1,4.918832779E-1
1.518604482E0,-8.685782552E-2,-1.718633175E-1,8.997440338E-2
1.535270420E0,5.072563887E-2,-1.031091213E-1,-1.858615875E-2
1.551936357E0,1.957740188E-1,-1.274895668E-1,-9.178638458E-2
1.568602295E0,3.176134527E-1,-2.379076481E-1,1.831531525E-2
1.585268232E0,3.939486146E-1,-4.180712700E-1,-1.186418533E-1
1.601934170E0,-1.588281989E-2,-7.872700691E-2,-2.772731781E-1
1.618600107E0,-3.928232193E-2,2.204465866E-2,-3.867053986E-2
1.635266045E0,1.973585188E-1,-1.602106094E-1,-3.663158417E-2
1.651931982E0,1.768437326E-1,-1.052458286E-1,-1.466264725E-1
1.668597920E0,8.812931180E-2,2.521944046E-2,-4.127130508E-1
1.685263857E0,1.054115891E-1,2.170348167E-2,-5.514335632E-1
1.701929795E0,4.629153013E-2,1.169562340E-2,-7.001266479E-1
1.718595732E0,-1.101443321E-1,2.328658104E-2,-6.831674576E-1
1.735261670E0,-1.568462253E-1,4.893302917E-2,-4.730300903E-1
1.751927607E0,-1.760706007E-1,-6.873607635E-4,-1.441631317E-1
1.768593545E0,-8.671560138E-2,-1.198856831E-1,6.523895264E-2
1.785259482E0,2.198053896E-2,-1.908614635E-1,1.762676239E-2
1.801925420E0,1.990485191E-2,-1.877033710E-1,-1.572704315E-1
1.818591357E0,6.905147433E-2,-2.181956768E-1,-1.604557037E-1
1.835257295E0,3.917324543E-2,-2.391757965E-1,-4.464435577E-2
1.851923232E0,-2.420513034E-1,-2.133493423E-1,1.044225693E-1
1.868589170E0,-3.340294957E-1,-1.606955528E-1,4.126358032E-1
1.885255107E0,-1.715978980E-1,-2.456882000E-1,5.174989700E-1
1.901921045E0,-2.670775950E-1,-2.291805744E-1,3.184175491E-1
1.918586982E0,-3.007257283E-1,-1.076004505E-1,2.615308762E-1
1.935252920E0,-1.213299781E-1,-3.910040855E-2,2.520971298E-1
1.951918857E0,9.587138891E-3,1.290774345E-2,1.595411301E-1
1.968584795E0,3.456160426E-3,7.692241669E-2,1.437549591E-1
1.985250732E0,1.009180620E-1,1.403932571E-1,2.473239899E-1
2.001916670E0,2.422550917E-1,9.682583809E-2,3.362207413E-1
2.018582607E0,2.024968266E-1,5.197644234E-2,1.757678986E-1
2.035248545E0,5.796553940E-2,1.938343048E-4,-5.251598358E-2
2.051914482E0,-8.096997440E-2,2.059531212E-2,-2.445201874E-1
2.068580420E0,-6.559819728E-2,3.282022476E-2,-3.507375717E-1
2.085246357E0,8.861223608E-2,9.498691559E-2,-4.899864197E-1
2.101912295E0,2.118378133E-1,2.360107899E-1,-5.451297760E-1
2.118578232E0,2.471077740E-1,2.884128094E-1,-3.554887772E-1
2.135244170E0,1.042672694E-1,2.658638954E-1,-5.420589447E-2
2.151910107E0,-3.188243508E-2,2.635984421E-1,5.018424988E-2
2.168576045E0,-1.200673729E-1,3.162279129E-1,-6.780624390E-3
2.185241982E0,-1.190378219E-1,3.712558746E-1,-9.452247620E-2
2.201907920E0,1.517683268E-5,3.674356937E-1,-5.690860748E-2
2.218573857E0,1.270138174E-1,3.099238873E-1,1.021232605E-1
2.235239795E0,4.910330474E-2,2.281053066E-1,2.043190002E-1
2.251905732E0,-4.670300335E-2,2.433438301E-1,2.660541534E-1
2.268571670E0,-1.380484849E-1,2.129671574E-1,2.562847137E-1
2.285237607E0,-2.409314513E-1,2.166156769E-1,2.319965363E-1
2.301903545E0,-1.482469738E-1,1.823561192E-1,2.878885269E-1
2.318569482E0,-4.064443707E-2,1.599378586E-1,3.004722595E-1
2.335235420E0,-4.284005240E-2,1.275851727E-1,1.666898727E-1
2.351901357E0,-3.127226233E-2,1.244158745E-1,1.238260269E-1
2.368567295E0,-7.208473235E-2,8.005905151E-2,1.581239700E-1
2.385233232E0,-7.848411798E-2,9.270048141E-2,1.159133911E-1
2.401899170E0,-2.704536542E-3,1.125280857E-1,5.943298340E-2
2.418565107E0,1.540213916E-2,9.999537468E-2,-3.185272217E-3
2.435231045E0,-1.193217933E-3,8.680796623E-2,-9.411334991E-2
2.451896982E0,-1.268659532E-2,5.578112602E-2,-1.562061310E-1
2.468562920E0,1.059187949E-2,5.470490456E-2,-1.577396393E-1
2.485228857E0,-1.110263541E-2,2.921819687E-2,-1.506862640E-1
2.501894795E0,2.969120443E-2,5.980110168E-2,-1.320714951E-1
2.518560732E0,2.439065650E-2,3.301954269E-2,-8.121490479E-2
2.535226670E0,8.546641469E-2,3.306341171E-2,-1.098737717E-1
2.551892607E0,6.003077328E-2,8.062839508E-3,-1.278285980E-1
2.568558545E0,-2.284122258E-2,4.367184639E-2,-1.234197617E-1
2.585224482E0,3.435778618E-2,2.848362923E-2,-9.997844696E-2
2.601890420E0,1.091641933E-2,9.727478027E-2,-1.860389709E-1
2.618556357E0,4.463210329E-2,6.098675728E-2,-2.116346359E-1
2.635222295E0,8.696541190E-2,1.620221138E-2,-1.444568634E-1
2.651888232E0,3.671339154E-2,-1.599884033E-2,-1.290712357E-1
2.668554170E0,-5.977628380E-2,-4.690408707E-2,-1.569356918E-1
2.685220107E0,-9.959841520E-2,-9.386825562E-2,-1.754274368E-1
2.701886045E0,-1.071322411E-1,-1.368508339E-1,-2.973022461E-1
2.718551982E0,-1.381680220E-1,-1.479403973E-1,-3.382234573E-1
2.735217920E0,-1.364315897E-1,-1.930236816E-1,-2.187299728E-1
2.751883857E0,-1.819012761E-1,-2.547948360E-1,-1.222743988E-1
2.768549795E0,-2.606362700E-1,-2.921869755E-1,-1.165065765E-1
2.785215732E0,-2.728089094E-1,-2.946333885E-1,-1.624574661E-1
2.801881670E0,-2.827375531E-1,-2.586662769E-1,-2.385158539E-1
2.818547607E0,-3.294672966E-1,-2.250955105E-1,-3.080139160E-1
2.835213545E0,-2.314126790E-1,-2.675225735E-1,-3.558435440E-1
2.851879482E0,-2.122450322E-1,-2.763237953E-1,-3.075885773E-1
2.868545420E0,-2.957855761E-1,-3.094706535E-1,-6.393527985E-2
2.885211357E0,-2.888681293E-1,-4.238131046E-1,1.632404327E-1
2.901877295E0,-3.186808527E-1,-4.301860332E-1,2.358150482E-1
2.918543232E0,-1.115339994E-1,-4.643034935E-1,2.769289017E-1
2.935209170E0,-1.311716139E-1,-2.814898491E-1,1.317729950E-1
2.951875107E0,-1.537776589E-1,-3.088374138E-1,2.323627472E-2
2.968541045E0,-1.864033341E-1,-3.054342270E-1,3.135137558E-1
2.985206982E0,-2.061644197E-1,-4.244830608E-1,5.655651093E-1
3.001872920E0,-2.362812757E-1,-4.051580429E-1,6.298446655E-1
3.018538857E0,-2.441760898E-2,-3.689839840E-1,3.107166290E-1
3.035204795E0,1.765480787E-1,-2.662665844E-1,-5.549430847E-2
3.051870732E0,2.608235478E-1,-1.073799133E-1,-3.088960648E-1
3.068536670E0,1.560935080E-1,-2.338018417E-1,-3.944931030E-1
3.085202607E0,2.886216640E-1,-2.522592545E-1,-3.574504852E-1
3.101868545E0,1.446370184E-1,-3.292984962E-1,-1.966876984E-1
3.118534482E0,-3.869816661E-3,-4.212145805E-1,1.294145584E-1
3.135200420E0,2.106706798E-2,-4.239861965E-1,2.629203796E-1
3.151866357E0,2.847933173E-1,-3.510029316E-1,1.146240234E-1
3.168532295E0,4.247495532E-1,-1.797816753E-1,-2.212839127E-1
3.185198232E0,2.896500230E-1,2.866029739E-3,-6.127643585E-1
3.201864170E0,2.007356882E-1,1.682076454E-1,-7.383460999E-1
3.218530107E0,1.908582002E-1,2.111060619E-1,-4.153003693E-1
3.235196045E0,1.631060243E-1,2.514641285E-1,-1.012334824E-1
3.251861982E0,4.771662503E-2,3.041892052E-1,1.119279861E-1
3.268527920E0,-1.703322120E-2,4.092059135E-1,-4.577159882E-2
3.285193857E0,5.435281992E-2,4.529178143E-1,-2.446193695E-1
3.301859795E0,8.041996509E-2,5.448932648E-1,-3.884649277E-1
3.318525732E0,4.488953948E-2,5.811734200E-1,-2.890825272E-1
3.335191670E0,-9.404291213E-2,5.438201427E-1,2.882957458E-3
3.351857607E0,-9.402668476E-2,5.074229240E-1,1.134843826E-1
3.368523545E0,9.013202786E-2,4.786882401E-1,8.333301544E-2
3.385189482E0,1.691026390E-1,6.197686195E-1,1.197309494E-1
3.401855420E0,2.746640742E-1,6.633539200E-1,4.389677048E-1
3.418521357E0,2.359998822E-1,6.167063713E-1,8.132886887E-1
3.435187295E0,1.709316969E-1,5.816245079E-1,7.884111404E-1
3.451853232E0,4.953366518E-2,6.256976128E-1,4.337091446E-1
3.468519170E0,2.746032178E-2,6.877741814E-1,4.097366333E-2
3.485185107E0,4.777604342E-2,8.605165482E-1,-1.432294846E-1
3.501851045E0,1.638596952E-1,8.081684113E-1,-3.745079041E-2
3.518516982E0,3.103078902E-1,5.263450146E-1,1.340932846E-1
3.535182920E0,3.979187012E-1,3.735470772E-1,3.368330002E-1
3.551848857E0,2.946017981E-1,2.710030079E-1,2.976188660E-1
3.568514795E0,1.668395698E-1,2.798204422E-1,4.067325592E-2
3.585180732E0,2.049209476E-1,2.550623417E-1,-6.896114349E-2
3.601846670E0,3.282083273E-1,2.296817303E-1,-5.384349823E-2
3.618512607E0,4.701974988E-1,1.945099831E-1,-2.942085266E-3
3.635178545E0,3.372589946E-1,-2.826690674E-2,4.294872284E-2
3.651844482E0,2.031522393E-1,-1.490218639E-1,1.546382904E-1
3.668510420E0,8.544307947E-2,-2.722837925E-1,3.185548782E-1
3.685176357E0,-9.531378746E-3,-2.738890648E-1,2.226476669E-1
3.701842295E0,-1.787294447E-1,-1.862413883E-1,7.374763489E-3
3.718508232E0,-2.200908661E-1,-1.369199753E-1,-6.335449219E-2
3.735174170E0,-3.158806562E-1,-1.443760395E-1,-1.099758148E-1
3.751840107E0,-4.457952082E-1,-1.099464893E-1,-2.752866745E-1
3.768506045E0,-4.408634901E-1,-3.512382507E-3,-2.935152054E-1
3.785171982E0,-3.750467896E-1,3.120064735E-2,-3.103036880E-1
3.801837920E0,-4.015730321E-1,7.959365845E-2,-3.659420013E-1
3.818503857E0,-4.449822307E-1,8.508825302E-2,-2.397861481E-1
3.835169795E0,-4.189319909E-1,1.143896580E-1,-8.250141144E-2
3.851835732E0,-3.348541558E-1,1.472883224E-1,-3.878498077E-2
3.868501670E0,-1.777654588E-1,2.068030834E-1,-7.089805603E-2
3.885167607E0,-1.460768282E-1,1.989023685E-1,-4.783153534E-2
3.901833545E0,-2.363687158E-1,1.386196613E-1,-5.800819397E-2
3.918499482E0,-3.981569409E-1,1.169109344E-1,3.021240234E-2
3.935165420E0,-3.136888444E-1,1.518685818E-1,-1.561164856E-3
3.951831357E0,-1.805731654E-1,1.532199383E-1,-9.623241425E-2
3.968497295E0,-1.096254587E-1,1.918342113E-1,-2.096347809E-1
3.985163232E0,-1.233230829E-1,2.643594742E-1,-2.432680130E-1
4.001829170E0,-7.411760092E-2,3.074059486E-1,-1.899404526E-1
4.018495107E0,2.520382404E-3,2.978637218E-1,-1.293802261E-1
4.035161045E0,-2.792632580E-2,2.995676994E-1,-1.343374252E-1
4.051826982E0,-1.227409244E-1,3.130807877E-1,-1.808423996E-1
4.068492920E0,-1.619929671E-1,3.559525013E-1,-2.605075836E-1
4.085158857E0,-8.258974552E-2,3.537371159E-1,-3.318710327E-1
4.101824795E0,1.421815157E-2,4.207463264E-1,-4.110908508E-1
4.118490732E0,4.536706209E-2,3.953573704E-1,-4.399232864E-1
4.135156670E0,-9.131795168E-2,3.648388386E-1,-3.455648422E-1
4.151822607E0,-7.397091389E-2,3.039762974E-1,-1.165657043E-1
4.168488545E0,-3.595942259E-2,2.607448101E-1,6.435680389E-2
4.185154482E0,-4.377025366E-2,1.973857880E-1,2.077217102E-1
4.201820420E0,9.979724884E-3,1.029984951E-1,3.488254547E-1
4.218486357E0,6.279474497E-2,5.440282822E-2,5.643157959E-1
4.235152295E0,1.766858101E-1,-1.016640663E-2,6.531715393E-1
4.251818232E0,1.924800277E-1,-2.769207954E-2,4.496784210E-1
4.268484170E0,9.040164948E-2,-6.439685822E-4,1.411333084E-1
4.285150107E0,8.375138044E-2,-1.741433144E-2,-6.140136719E-2
4.301816045E0,-1.210546494E-2,3.119754791E-2,-1.138601303E-1
4.318481982E0,2.749860287E-3,1.008820534E-2,-8.284568787E-3
4.335147920E0,2.062399387E-1,3.428697586E-2,1.560144424E-1
4.351813857E0,2.995522618E-1,-2.376747131E-2,1.418828964E-1
4.368479795E0,1.522889137E-1,-4.186177254E-2,5.948925018E-2
4.385145732E0,1.457585096E-1,-7.595109940E-2,8.997154236E-2
4.401811670E0,1.941924095E-1,1.433849335E-3,1.870603561E-1
4.418477607E0,2.827081680E-1,-6.334495544E-2,1.097793579E-1
4.435143545E0,2.252175808E-1,-1.247143745E-2,6.607341766E-2
4.451809482E0,1.911044121E-1,-6.854653358E-2,3.294897079E-1
4.468475420E0,1.980495453E-2,-1.781764030E-1,4.935131073E-1
4.485141357E0,-2.572320700E-1,-1.046273708E-1,2.081241608E-1
4.501807295E0,-2.929345965E-1,5.070018768E-2,-1.177082062E-1
4.518473232E0,-3.557572961E-1,2.040591240E-1,-2.465095520E-1
4.535139170E0,-3.356935382E-1,2.357740402E-1,-1.912546158E-1
4.551805107E0,-8.741509914E-2,1.264507771E-1,2.962112427E-3
4.568471045E0,9.350407124E-2,1.293294430E-1,1.990880966E-1
4.585136982E0,2.366750240E-1,6.873416901E-2,9.777164459E-2
4.601802920E0,1.217457056E-1,7.617378235E-2,-3.485088348E-1
4.618468857E0,1.329722404E-1,1.067361832E-1,-7.087697983E-1
4.635134795E0,1.520401239E-1,1.235077381E-1,-8.850049973E-1
4.651800732E0,1.494098902E-1,1.879935265E-1,-8.831405640E-1
4.668466670E0,1.758223772E-1,9.850382805E-2,-7.426757812E-1
4.685132607E0,8.839535713E-2,8.664393425E-2,-7.731170654E-1
4.701798545E0,-3.722667694E-3,1.466529369E-1,-9.488296509E-1
4.718464482E0,-7.008183002E-2,2.352437973E-1,-1.251899242E0
4.735130420E0,-1.732827425E-1,3.135540485E-1,-1.335749149E0
4.751796357E0,-1.692194939E-1,3.284676075E-1,-1.260705471E0
4.768462295E0,-2.500457764E-1,3.577265739E-1,-1.173721313E0
4.785128232E0,-2.083244324E-1,3.624138832E-1,-1.078702927E0
4.801794170E0,-3.938305378E-2,3.495883942E-1,-1.020975113E0
4.818460107E0,8.556771278E-2,3.797643185E-1,-1.128729343E0
4.835126045E0,1.542214155E-1,3.967335224E-1,-1.259478092E0
4.851791982E0,1.805222034E-1,3.470642567E-1,-1.359115601E0
4.868457920E0,2.440062761E-1,2.458992004E-1,-1.503921509E0
4.885123857E0,3.100063801E-1,2.056581974E-1,-1.665645599E0
4.901789795E0,3.501601219E-1,2.284309864E-1,-1.948970318E0
4.918455732E0,3.037037849E-1,2.458794117E-1,-2.341341019E0
4.935121670E0,1.816381216E-1,3.726067543E-1,-2.723567963E0
4.951787607E0,3.840708733E-2,4.768259525E-1,-3.009403706E0
4.968453545E0,-6.511843204E-2,6.797654629E-1,-3.159191608E0
4.985119482E0,-1.600093842E-1,9.689671993E-1,-3.244672775E0
5.001785420E0,-2.449265718E-1,1.283045292E0,-2.996787071E0
5.018451357E0,-4.741680622E-2,1.483617783E0,-2.396881580E0
5.035117295E0,1.231956482E-1,1.634278774E0,-1.722228527E0
5.051783232E0,2.281606197E-1,1.886948109E0,-1.130010128E0
5.068449170E0,3.792867661E-1,2.354154348E0,-6.007318497E-1
5.085115107E0,5.596523285E-1,2.855799913E0,-5.910587311E-2
5.101781045E0,6.298761368E-1,3.378505230E0,3.961162567E-1
5.118446982E0,5.764336586E-1,3.969059229E0,1.808977127E-1
5.135112920E0,2.433903217E-1,4.600832939E0,-3.703002930E-1
5.151778857E0,-3.070027828E-1,5.177008629E0,-7.437667847E-1
5.168444795E0,-1.419563770E0,5.690959930E0,-8.759841919E-1
5.185110732E0,-2.539493084E0,6.355636597E0,-6.764125824E-2
5.201776670E0,-3.181938887E0,6.794100285E0,1.360512733E0
5.218442607E0,-3.678583622E0,6.984495163E0,2.777144432E0
5.235108545E0,-3.943423748E0,7.176360607E0,3.236894608E0
5.251774482E0,-4.511807919E0,8.780541420E0,3.106612206E0
5.268440420E0,-4.550535202E0,1.104151058E1,3.550635338E0
5.285106357E0,-3.259187460E0,1.228789616E1,4.757592201E0
5.301772295E0,-1.704210758E0,1.288092422E1,6.613010406E0
5.318438232E0,-3.135504723E-1,1.255277348E1,8.822867393E0
5.335104170E0,-5.793747902E-1,1.191282654E1,1.119799232E1
5.351770107E0,-2.569310665E0,1.104513931E1,1.640337944E1
5.368436045E0,-2.154963970E0,7.961584091E0,2.342261696E1
5.385101982E0,-2.720274925E-1,2.277810574E0,2.367502213E1
5.401767920E0,1.320831060E0,-2.556263685E0,1.695457840E1
5.418433857E0,1.540574312E0,-4.898480415E0,8.521537781E0
5.435099795E0,1.599037409E0,-5.642384052E0,1.049162865E0
5.451765732E0,1.234851837E0,-5.693898678E0,-4.784544945E0
5.468431670E0,-5.498988628E-1,-5.896400928E0,-8.067540169E0
5.485097607E0,-1.507709146E0,-6.664533138E0,-8.457834244E0
5.501763545E0,-1.306029201E0,-8.256286621E0,-7.505325317E0
5.518429482E0,-1.200289845E0,-9.768694878E0,-5.897506714E0
5.535095420E0,-2.079193592E-1,-1.090880203E1,-5.616445541E0
5.551761357E0,5.616819859E-1,-1.112891769E1,-6.607923508E0
5.568427295E0,1.639630079E0,-1.047911453E1,-8.159905434E0
5.585093232E0,2.530112505E0,-9.432165146E0,-9.845582962E0
5.601759170E0,3.155958414E0,-7.930639267E0,-1.019595146E1
5.618425107E0,4.111326694E0,-7.022324562E0,-9.142930031E0
5.635091045E0,5.454685688E0,-5.904171467E0,-5.865621567E0
5.651756982E0,7.185362816E0,-4.601250648E0,-6.889462471E-1
5.668422920E0,8.067701340E0,-3.657947540E0,4.564622879E0
5.685088857E0,8.126996994E0,-2.496020794E0,8.030086517E0
5.701754795E0,7.240464211E0,2.801127434E-1,8.392215729E0
5.718420732E0,4.755030632E0,5.454205990E0,8.872926712E0
5.735086670E0,4.194207191E0,7.432302475E0,1.442097759E1
5.751752607E0,4.417697430E0,7.621279240E0,1.852853012E1
5.768418545E0,3.455748081E0,7.073357582E0,1.539202976E1
5.785084482E0,1.642862320E0,7.737502098E0,7.580467224E0
5.801750420E0,-3.636159897E-1,7.641235352E0,1.560497284E0
5.818416357E0,-1.264266491E0,6.500888824E0,-1.737186909E0
5.835082295E0,-2.163002491E0,4.457505226E0,-3.500412464E0
5.851748232E0,-3.015079021E0,2.417016745E0,-5.604151726E0
5.868414170E0,-4.567739964E0,1.502061367E0,-7.037590981E0
5.885080107E0,-6.452758312E0,1.326843023E0,-7.235867500E0
5.901746045E0,-8.170792580E0,1.413028955E0,-6.626848698E0
5.918411982E0,-9.512550354E0,1.700996637E0,-6.793377399E0
5.935077920E0,-1.109521484E1,2.582298279E0,-7.670042515E0
5.951743857E0,-1.161544609E1,3.533626795E0,-8.146826744E0
5.968409795E0,-1.064845562E1,4.447484016E0,-7.433798790E0
5.985075732E0,-8.660429955E0,5.491738319E0,-4.654466629E0
6.001741670E0,-5.830198765E0,6.333258629E0,3.969674110E-1
6.018407607E0,-3.070432901E0,6.284024239E0,5.331821442E0
6.035073545E0,-3.076481581E0,5.171900749E0,1.093377972E1
6.051739482E0,-2.995518923E0,4.430280685E0,1.265363503E1
6.068405420E0,-1.861518025E0,4.509219646E0,1.261201000E1
6.085071357E0,2.260897160E-1,3.782842159E0,1.376016235E1
6.101737295E0,2.631099939E0,1.169652939E0,1.509338188E1
6.118403232E0,3.685708284E0,-2.075040817E0,1.454087067E1
6.135069170E0,3.168734789E0,-4.931656361E0,1.009481144E1
6.151735107E0,1.165158749E0,-6.835963726E0,4.965193272E0
6.168401045E0,-4.116573334E-1,-7.852259636E0,1.178461552E0
6.185066982E0,-8.064799309E-1,-8.284193993E0,-1.340699196E0
6.201732920E0,-4.591538906E-1,-9.070693016E0,-3.414469481E0
6.218398857E0,-8.666539192E-2,-9.951935768E0,-4.910643578E0
6.235064795E0,2.362036705E-2,-1.040708351E1,-5.333467484E0
6.251730732E0,4.954409599E-1,-1.004062080E1,-5.726934910E0
6.268396670E0,1.623769522E0,-9.574690819E0,-7.522973537E0
6.285062607E0,2.190096855E0,-8.852474213E0,-9.737132072E0
6.301728545E0,1.788312197E0,-7.884507656E0,-1.065623093E1
6.318394482E0,1.570234060E0,-7.416580200E0,-9.490009308E0
6.335060420E0,2.938156366E0,-7.274082184E0,-6.977506161E0
6.351726357E0,4.531241417E0,-6.421722412E0,-3.147618294E0
6.368392295E0,6.401870728E0,-5.035282135E0,1.309961319E0
6.385058232E0,8.281476974E0,-4.026683331E0,4.564900398E0
6.401724170E0,9.223420143E0,-3.117647171E0,6.140841007E0
6.418390107E0,8.933492661E0,-8.575868607E-1,6.051508904E0
6.435056045E0,7.758896828E0,2.266894341E0,5.565292358E0
6.451721982E0,5.090712547E0,6.381885529E0,8.670309067E0
6.468387920E0,4.524115562E0,6.362689018E0,1.474155426E1
6.485053857E0,3.766016245E0,5.924731255E0,1.722475815E1
6.501719795E0,2.538533449E0,5.731107712E0,1.370380688E1
6.518385732E0,1.050633430E0,7.284374237E0,7.051178932E0
6.535051670E0,-7.276294231E-1,7.648569107E0,5.227355957E-1
6.551717607E0,-1.968707561E0,6.256065369E0,-4.395116806E0
6.568383545E0,-2.666433334E0,3.879379272E0,-6.493169785E0
6.585049482E0,-3.683107853E0,1.492758751E0,-6.565549374E0
6.601715420E0,-5.400703907E0,-5.581045151E-2,-5.204854965E0
6.618381357E0,-7.419451714E0,-7.070143223E-1,-3.490879536E0
6.635047295E0,-8.608709335E0,-5.597522259E-1,-3.598485470E0
6.651713232E0,-9.395704269E0,-6.903314590E-2,-5.615314484E0
6.668379170E0,-9.409811020E0,5.154781342E-1,-7.501441956E0
6.685045107E0,-9.008071899E0,1.227242947E0,-7.320767403E0
6.701711045E0,-7.843021393E0,1.952802658E0,-4.845722198E0
6.718376982E0,-6.335105896E0,2.792776108E0,-2.250704765E-1
6.735042920E0,-4.844665527E0,2.913990498E0,4.965037346E0
6.751708857E0,-4.178233624E0,2.748689175E0,8.904072762E0
6.768374795E0,-4.132559776E0,3.178505421E0,9.431390762E0
6.785040732E0,-4.070446014E0,3.924144268E0,7.664991379E0
6.801706670E0,-2.222057581E0,3.938060760E0,7.163989067E0
6.818372607E0,1.187998056E0,1.836334705E0,8.973118782E0
6.835038545E0,3.088102341E0,-1.210055828E0,9.951908112E0
6.851704482E0,3.597095251E0,-4.494226456E0,7.889650822E0
6.868370420E0,2.772854328E0,-6.127111912E0,4.372658730E0
6.885036357E0,2.316732407E0,-6.407016277E0,9.640698433E-1
6.901702295E0,2.738215446E0,-6.431219101E0,-1.921928406E0
6.918368232E0,2.665641308E0,-6.600195408E0,-4.028532982E0
6.935034170E0,2.739784479E0,-7.408621311E0,-4.982827187E0
6.951700107E0,2.706587553E0,-8.158789635E0,-4.340382576E0
6.968366045E0,2.524355173E0,-8.281681061E0,-3.594695568E0
6.985031982E0,2.468642712E0,-8.036914825E0,-4.093483925E0
7.001697920E0,2.832931995E0,-7.680139542E0,-5.305758476E0
7.018363857E0,3.031153679E0,-7.431619167E0,-7.023836613E0
7.035029795E0,2.777474642E0,-7.261417389E0,-7.441885948E0
7.051695732E0,2.958203316E0,-7.156804562E0,-5.837536335E0
7.068361670E0,3.720388651E0,-6.870665073E0,-3.040522575E0
7.085027607E0,4.980005264E0,-6.304505348E0,9.201145172E-1
7.101693545E0,5.587472916E0,-5.145585537E0,4.868371010E0
7.118359482E0,6.548300266E0,-3.852520943E0,6.544580936E0
7.135025420E0,7.222647190E0,-1.323120117E0,3.868636131E0
7.151691357E0,3.600682020E0,2.698505402E0,1.834897518E0
7.168357295E0,9.793889523E-1,5.522928238E0,1.050684452E1
7.185023232E0,1.298418045E0,3.443301678E0,2.158346939E1
7.201689170E0,1.677375078E0,2.040998936E0,2.145911217E1
7.218355107E0,2.345725775E0,3.318815231E0,1.253658295E1
7.235021045E0,2.343582392E0,6.321671963E0,3.115941048E0
7.251686982E0,2.221420765E0,6.705609322E0,-2.413912773E0
7.268352920E0,5.949470997E-1,5.768959045E0,-4.269502640E0
7.285018857E0,-1.094217777E0,3.179846287E0,-4.603398323E0
7.301684795E0,-2.800458908E0,1.143447399E0,-5.001133919E0
7.318350732E0,-4.100945473E0,-5.610990524E-1,-5.197586060E0
7.335016670E0,-5.073015213E0,-1.415781260E0,-5.415164948E0
7.351682607E0,-5.970331192E0,-1.481416225E0,-5.820075989E0
7.368348545E0,-7.051020622E0,-8.560783863E-1,-6.985996246E0
7.385014482E0,-7.877460480E0,-6.779050827E-2,-8.713644028E0
7.401680420E0,-8.863064766E0,7.549371719E-1,-8.759778023E0
7.418346357E0,-9.358171463E0,9.918856621E-1,-7.137132645E0
7.435012295E0,-9.143803596E0,8.728814125E-1,-4.720552444E0
7.451678232E0,-8.622838020E0,1.005533695E0,-1.757110596E0
7.468344170E0,-7.083448410E0,1.880156994E0,1.079623222E0
7.485010107E0,-5.346217155E0,3.537015915E0,3.842473030E0
7.501676045E0,-6.455937862E0,6.209998131E0,5.834399700E0
7.518341982E0,-6.868549347E0,8.092212677E0,8.739543915E0
7.535007920E0,-2.313451052E0,6.990067005E0,1.554977798E1
7.551673857E0,3.972594261E0,2.864440918E0,2.124537277E1
7.568339795E0,7.048729897E0,-3.803801537E-1,1.910594559E1
7.585005732E0,6.808210373E0,-2.148390770E0,1.227701664E1
7.601671670E0,4.358424187E0,-2.452258587E0,7.181058884E0
7.618337607E0,2.324350834E0,-3.072415113E0,3.665788174E0
7.635003545E0,1.544888139E0,-3.979652405E0,7.901763916E-1
7.651669482E0,2.050319433E0,-5.251789570E0,-2.184893131E0
7.668335420E0,2.787157536E0,-6.583427429E0,-5.185729027E0
7.685001357E0,2.969172478E0,-7.867922783E0,-7.231577396E0
7.701667295E0,2.773483515E0,-8.987437248E0,-7.479488850E0
7.718333232E0,2.238366842E0,-9.341878891E0,-7.256036758E0
7.734999170E0,1.806632042E0,-8.932110786E0,-8.005433083E0
7.751665107E0,1.649656057E0,-8.480138779E0,-9.335959435E0
7.768331045E0,1.613481998E0,-7.956392288E0,-9.939500809E0
7.784996982E0,1.563758373E0,-7.272793770E0,-9.114639282E0
7.801662920E0,2.160525799E0,-6.762596130E0,-7.148356438E0
7.818328857E0,2.931480646E0,-5.998928070E0,-4.727492332E0
7.834994795E0,3.783215761E0,-4.649087906E0,-1.039771557E0
7.851660732E0,5.020952225E0,-2.914750099E0,2.637836933E0
7.868326670E0,5.602790833E0,-1.615045309E0,3.555981636E0
7.884992607E0,2.646653891E0,1.397063255E0,7.932106972E0
7.901658545E0,1.967401266E0,1.131971359E0,1.938059044E1
7.918324482E0,3.098023176E0,-1.306552887E-1,2.749002457E1
7.934990420E0,5.441946507E0,6.673345566E-1,2.269028473E1
7.951656357E0,6.479136467E0,4.332319736E0,1.055169106E1
7.968322295E0,5.850364685E0,6.888824940E0,9.319448471E-1
7.984988232E0,3.694864750E0,6.731310844E0,-3.336479187E0
8.001654170E0,4.923007488E-1,4.908059120E0,-4.376054764E0
8.018320107E0,-2.117110014E0,3.019522190E0,-5.352678299E0
8.034986045E0,-3.321652889E0,1.654232979E0,-6.123228073E0
8.051651982E0,-3.413632393E0,7.655191422E-1,-5.170009613E0
8.068317920E0,-3.603648901E0,3.345677853E-1,-3.830794334E0
8.084983857E0,-4.320677757E0,4.167244434E-1,-4.151644230E0
8.101649795E0,-5.572765827E0,1.079984188E0,-6.504050255E0
8.118315732E0,-6.672257423E0,1.685547352E0,-8.763772964E0
8.134981670E0,-7.576917648E0,2.275273800E0,-9.511091232E0
8.151647607E0,-7.982558250E0,2.496478081E0,-8.426527977E0
8.168313545E0,-7.868781090E0,2.527837276E0,-5.513194084E0
8.184979482E0,-7.465133667E0,2.503857613E0,-2.275541782E0
8.201645420E0,-6.107948303E0,3.044545174E0,6.391739845E-1
8.218311357E0,-4.441003799E0,4.232075691E0,4.155767918E0
8.234977295E0,-5.143870354E0,6.237954140E0,7.842511654E0
8.251643232E0,-6.248947620E0,8.211711884E0,1.170774746E1
8.268309170E0,-2.924886465E0,8.076073647E0,1.876545715E1
8.284975107E0,1.971017361E0,4.690194607E0,2.613182831E1
8.301641045E0,5.449801445E0,5.413532257E-2,2.623091698E1
8.318306982E0,6.941758156E0,-2.223857880E0,1.854836082E1
8.334972920E0,5.844996452E0,-3.049288273E0,1.081118870E1
8.351638857E0,3.039989710E0,-4.795326233E0,6.030809879E0
8.368304795E0,6.250340939E-1,-6.832253456E0,2.764263630E0
8.384970732E0,-8.793854713E-2,-8.439826012E0,-6.718940735E-1
8.401636670E0,7.952635288E-1,-9.350180626E0,-4.382319450E0
8.418302607E0,1.988134384E0,-9.832867622E0,-7.745240211E0
8.434968545E0,2.344263077E0,-1.041625881E1,-9.379548073E0
8.451634482E0,2.555316210E0,-1.090903664E1,-9.493940353E0
8.468300420E0,2.807761431E0,-1.056063652E1,-9.866079330E0
8.484966357E0,2.603577852E0,-9.913707733E0,-1.114121342E1
8.501632295E0,2.276268959E0,-9.362726212E0,-1.240832329E1
8.518298232E0,2.042517900E0,-8.684702873E0,-1.226547241E1
8.534964170E0,2.111814976E0,-7.873123646E0,-1.060325527E1
8.551630107E0,2.309938192E0,-7.017000198E0,-7.782567024E0
8.568296045E0,3.153367758E0,-6.406881332E0,-4.441062927E0
8.584961982E0,4.641031265E0,-5.753543854E0,-4.374699593E-1
8.601627920E0,6.647715569E0,-5.025869846E0,3.507670403E0
8.618293857E0,7.826013565E0,-3.441728354E0,5.242028236E0
8.634959795E0,7.449722290E0,-9.459900856E-1,2.828472614E0
8.651625732E0,4.832309723E0,3.730293274E0,2.757622719E0
8.668291670E0,4.329638481E0,6.030525684E0,1.214767838E1
8.684957607E0,4.024422646E0,4.848324776E0,2.163452148E1
8.701623545E0,2.041706800E0,4.597778797E0,2.199242401E1
8.718289482E0,5.546877384E-1,6.506293774E0,1.495174694E1
8.734955420E0,7.150108814E-1,7.064398289E0,9.218098640E0
8.751621357E0,7.220928669E-1,5.652276039E0,4.995191097E0
8.768287295E0,4.274535179E-2,3.903406143E0,7.975664139E-1
8.784953232E0,-1.106217623E0,2.114722729E0,-2.427014828E0
8.801619170E0,-2.229931116E0,6.560029984E-1,-3.158552647E0
8.818285107E0,-3.479561090E0,-4.792559147E-1,-3.039322376E0
8.834951045E0,-4.957232952E0,-1.017864466E0,-3.918551922E0
8.851616982E0,-6.515255451E0,-7.845394611E-1,-6.370158195E0
8.868282920E0,-8.167738914E0,-1.972217560E-1,-8.500442505E0
8.884948857E0,-9.161298752E0,2.659087181E-1,-9.218366623E0
8.901614795E0,-9.616891861E0,4.747037888E-1,-9.033878326E0
8.918280732E0,-1.017222977E1,6.248526573E-1,-8.172751427E0
8.934946670E0,-1.066831970E1,1.118517399E0,-6.061477661E0
8.951612607E0,-9.925388336E0,1.938420773E0,-3.036803484E0
8.968278545E0,-8.031242371E0,3.378057480E0,7.843484879E-1
8.984944482E0,-7.306901932E0,6.106378078E0,4.511975765E0
9.001610420E0,-7.245274544E0,9.939743042E0,8.440308571E0
9.018276357E0,-1.788094997E0,1.146829796E1,1.711825180E1
9.034942295E0,6.573758602E0,7.847983837E0,2.700735092E1
9.051608232E0,1.075003624E1,3.154181480E0,2.857751846E1
9.068274170E0,1.064274216E1,-8.400850296E-1,2.161951828E1
9.084940107E0,7.020693302E0,-1.933884621E0,1.461521912E1
9.101606045E0,3.587068558E0,-3.206312895E0,8.898281097E0
9.118271982E0,8.831815720E-1,-4.231194496E0,4.492815018E0
9.134937920E0,-7.615137100E-2,-5.295639992E0,1.602201462E0
9.151603857E0,3.477721214E-1,-6.129507065E0,-9.822764397E-1
9.168269795E0,1.003735542E0,-6.852871895E0,-3.909964085E0
9.184935732E0,9.897561073E-1,-7.722455025E0,-6.273214340E0
9.201601670E0,3.050312996E-1,-8.645857811E0,-7.232229710E0
9.218267607E0,-9.524030685E-1,-9.051167488E0,-7.550454617E0
9.234933545E0,-2.321810722E0,-9.174840927E0,-7.552116394E0
9.251599482E0,-3.310951948E0,-9.094484329E0,-6.996533871E0
9.268265420E0,-3.626914978E0,-8.512658119E0,-5.657293797E0
9.284931357E0,-2.968238831E0,-7.441127300E0,-3.895577669E0
9.301597295E0,-2.313090801E0,-5.689874649E0,-2.104635477E0
9.318263232E0,-1.065695047E0,-3.498862743E0,1.465658426E0
9.334929170E0,-5.052845478E-1,-1.616817474E0,6.005340576E0
9.351595107E0,-6.379196644E-1,-2.146973610E-1,7.559073925E0
9.368261045E0,-4.156088829E-1,1.810678005E0,4.062510490E0
9.384926982E0,1.773935795E0,3.535747528E0,2.535412312E0
9.401592920E0,2.358339787E0,2.010915279E0,6.629271030E0
9.418258857E0,1.775630951E0,-1.783709049E0,1.093337154E1
9.434924795E0,-3.737053871E-1,-4.580039024E0,1.135510254E1
9.451590732E0,-2.496173859E0,-5.917332172E0,7.016465187E0
9.468256670E0,-2.211880922E0,-6.136007786E0,7.539172173E-1
9.484922607E0,-3.079023361E-1,-6.257436752E0,-3.922533512E0
9.501588545E0,6.883463860E-1,-6.868648052E0,-5.549180984E0
9.518254482E0,-1.008706093E-1,-7.407186031E0,-6.105823994E0
9.534920420E0,-1.336030245E0,-7.572825909E0,-7.023663521E0
9.551586357E0,-3.206830025E0,-6.678875923E0,-8.531439781E0
9.568252295E0,-5.121613979E0,-5.486232281E0,-1.078537750E1
9.584918232E0,-6.710809708E0,-4.086740017E0,-1.304759121E1
9.601584170E0,-8.248113632E0,-2.941252232E0,-1.427988625E1
9.618250107E0,-9.274969101E0,-2.538107157E0,-1.357547379E1
9.634916045E0,-1.057977676E1,-2.513936758E0,-1.004144287E1
9.651581982E0,-1.145653248E1,-2.777433395E0,-3.275071859E0
9.668247920E0,-1.051656914E1,-2.811949968E0,4.784470081E0
9.684913857E0,-7.051877975E0,-3.037229776E0,8.399091721E0
9.701579795E0,-4.288506508E0,-2.124580860E0,4.629844666E0
9.718245732E0,-3.139435768E0,1.493619442E0,1.638369560E-1
9.734911670E0,-1.600490093E0,5.718256950E0,2.794014931E0
9.751577607E0,-1.192907810E0,7.609103203E0,9.456850052E0
9.768243545E0,-1.556412697E0,6.341278076E0,1.418207264E1
9.784909482E0,-1.503448486E-1,5.234687805E0,1.810907555E1
9.801575420E0,3.674039841E0,5.550035477E0,2.144036865E1
9.818241357E0,9.166663170E0,7.517541409E0,2.612899208E1
9.834907295E0,1.178816032E1,8.746338844E0,3.155376434E1
9.851573232E0,8.187449455E0,7.323364258E0,3.114225388E1
9.868239170E0,-2.749643326E-1,5.550992966E0,2.473762131E1
9.884905107E0,-6.946994305E0,5.733005524E0,1.807008362E1
9.901571045E0,-9.691679001E0,7.213829041E0,1.493987656E1
9.918236982E0,-1.007324696E1,8.797990799E0,1.582742500E1
9.934902920E0,-9.535622597E0,9.179623604E0,1.873525238E1
9.951568857E0,-7.636476994E0,8.951593399E0,2.148525620E1
9.968234795E0,-5.769767761E0,8.818904877E0,2.174975586E1
9.984900732E0,-4.691654205E0,8.292570114E0,2.053978539E1
1.000156667E1,-4.340555191E0,6.012608528E0,1.772364426E1
1.001823261E1,-3.068747282E0,3.557052374E0,1.518462181E1
1.003489854E1,-1.380782127E0,1.218417168E0,1.204827785E1
1.005156448E1,-3.809466362E-1,-8.506977558E-1,8.468191147E0
1.006823042E1,1.783370972E-1,-2.857005119E0,5.152429581E0
1.008489636E1,2.316403389E-1,-4.428805828E0,2.219648838E0
1.010156230E1,-3.252630234E-1,-5.455138683E0,-7.361683846E-1
1.011822823E1,-3.945775032E-1,-5.894152164E0,-3.539076090E0
1.013489417E1,2.860298157E-1,-6.448984146E0,-5.254993439E0
1.015156011E1,1.395925999E0,-7.495178223E0,-6.135875225E0
1.016822604E1,2.616262913E0,-8.187485695E0,-6.017789841E0
1.018489198E1,3.631311417E0,-8.401402473E0,-5.267313004E0
1.020155792E1,3.413482189E0,-8.571498871E0,-4.398736954E0
1.021822386E1,3.275552750E0,-8.477826118E0,-2.550580978E0
1.023488980E1,4.559593678E0,-7.624367237E0,-4.870524406E-1
1.025155573E1,6.621660709E0,-6.426829338E0,-1.100219250E0
1.026822167E1,6.354113579E0,-3.151969433E0,-2.782773018E0
1.028488761E1,6.466265202E0,5.303809643E-1,-1.793379307E0
1.030155354E1,5.994152546E0,3.615950823E0,2.448320389E0
1.031821948E1,4.858768463E0,5.335451126E0,7.168962479E0
1.033488542E1,2.744372845E0,6.059645653E0,7.061706543E0
1.035155136E1,-5.808520317E-1,6.470209122E0,2.403084278E0
1.036821730E1,-3.408233166E0,6.976526260E0,-2.730807781E0
1.038488323E1,-5.552155018E0,7.416477203E0,-5.874721527E0
1.040154917E1,-7.428131104E0,7.400578499E0,-6.812722683E0
1.041821511E1,-8.997572899E0,6.526214600E0,-7.200052738E0
1.043488105E1,-1.069195747E1,5.662817955E0,-7.891117573E0
1.045154698E1,-1.159980774E1,5.592957020E0,-7.224984646E0
1.046821292E1,-1.146920872E1,5.897648811E0,-5.528582573E0
1.048487886E1,-1.088997173E1,6.343742847E0,-4.209185600E0
1.050154480E1,-1.077772999E1,6.724769115E0,-4.821840286E0
1.051821073E1,-1.071232128E1,6.692862511E0,-5.653147697E0
1.053487667E1,-9.993347168E0,6.330753326E0,-3.356977940E0
1.055154261E1,-8.795209885E0,5.710893631E0,2.333327293E0
1.056820855E1,-7.068889618E0,4.450341702E0,8.439453125E0
1.058487448E1,-5.163960934E0,3.141979218E0,1.281769943E1
1.060154042E1,-4.193627834E0,2.555036068E0,1.383103371E1
1.061820636E1,-3.952909946E0,3.744967461E0,1.316410446E1
1.063487230E1,-3.804790974E-1,3.764558792E0,1.784101677E1
1.065153823E1,3.896308899E0,6.612329483E-1,2.310625839E1
1.066820417E1,5.031661510E0,-3.131329298E0,2.028020859E1
1.068487011E1,4.816447258E0,-5.407517433E0,1.279496002E1
1.070153605E1,3.013941765E0,-5.893183708E0,6.374395370E0
1.071820198E1,8.830657005E-1,-7.252664089E0,2.540756702E0
1.073486792E1,-1.138170719E0,-8.863408089E0,-5.352735519E-2
1.075153386E1,-1.757846832E0,-1.049842167E1,-2.549551487E0
1.076819980E1,-9.317507744E-1,-1.199898148E1,-4.431061745E0
1.078486573E1,4.572691917E-1,-1.316852570E1,-6.041226387E0
1.080153167E1,8.261656761E-1,-1.338980675E1,-8.092034340E0
1.081819761E1,7.791738510E-1,-1.308102131E1,-1.055496979E1
1.083486355E1,7.097358704E-1,-1.218904305E1,-1.190576935E1
1.085152948E1,-9.785175323E-3,-1.124306870E1,-1.193880558E1
1.086819542E1,-2.258250713E-1,-1.057997990E1,-1.041831875E1
1.088486136E1,4.589591026E-1,-1.024556160E1,-7.450242043E0
1.090152730E1,2.185617924E0,-9.347330093E0,-3.833692789E0
1.091819323E1,5.078523636E0,-8.060925484E0,-3.069686890E-1
1.093485917E1,7.511713028E0,-6.006021023E0,1.875447750E0
1.095152511E1,8.054377556E0,-3.562844753E0,2.527178288E0
1.096819105E1,7.366689682E0,-2.194066048E-1,2.684342384E0
1.098485698E1,6.597158432E0,3.975470543E0,6.827605724E0
1.100152292E1,7.031314850E0,6.371140957E0,1.381284618E1
1.101818886E1,6.870388508E0,7.379477501E0,1.772824669E1
1.103485480E1,6.285632610E0,7.857922554E0,1.701865578E1
1.105152073E1,5.429794312E0,7.474045753E0,1.321391487E1
1.106818667E1,3.976703644E0,5.812936306E0,7.904038906E0
1.108485261E1,1.941523075E0,3.586376429E0,2.524234295E0
1.110151855E1,-1.014571190E-1,1.561458111E0,-2.233219624E0
1.111818448E1,-2.206545830E0,2.468380928E-1,-5.460582733E0
1.113485042E1,-4.422624588E0,-1.147260666E-1,-6.175354481E0
1.115151636E1,-6.616495132E0,-4.847407341E-2,-6.129362583E0
1.116818230E1,-8.180469513E0,3.224134445E-1,-6.573989391E0
1.118484823E1,-9.360256195E0,9.712533951E-1,-8.378464699E0
1.120151417E1,-1.025659752E1,1.985864639E0,-9.370147705E0
1.121818011E1,-1.074300194E1,3.056745768E0,-8.361612320E0
1.123484605E1,-1.129277611E1,3.643396378E0,-5.727131367E0
1.125151198E1,-1.164815712E1,4.634189606E0,-2.787441730E0
1.126817792E1,-9.923017502E0,5.928770065E0,1.839065552E-1
1.128484386E1,-6.401093006E0,7.258253098E0,4.643872261E0
1.130150980E1,-3.193539619E0,8.375225067E0,9.527652740E0
1.131817573E1,-1.611577034E0,8.115643501E0,1.287379074E1
1.133484167E1,-6.941015720E-1,7.137686253E0,1.477357674E1
1.135150761E1,4.777280807E0,4.585530758E0,1.843572998E1
1.136817355E1,1.080544853E1,1.095648289E0,2.033210182E1
1.138483948E1,1.176214790E1,-1.773925781E0,1.647116280E1
1.140150542E1,8.277348518E0,-3.279081106E0,9.582914352E0
1.141817136E1,3.171959400E0,-3.881827116E0,5.035379410E0
1.143483730E1,-3.650932312E-1,-4.833519936E0,2.493140221E0
1.145150323E1,-1.845216036E0,-6.134459496E0,1.617436409E-1
1.146816917E1,-2.357436895E0,-7.462557316E0,-1.750680447E0
1.148483511E1,-2.185628176E0,-8.775401115E0,-3.815964222E0
1.150150105E1,-1.513527155E0,-9.865388870E0,-5.589517117E0
1.151816698E1,-1.214691162E0,-1.046325397E1,-7.257708549E0
1.153483292E1,-1.695895672E0,-1.027099800E1,-9.361210823E0
1.155149886E1,-2.708697557E0,-9.601232529E0,-1.108652687E1
1.156816480E1,-3.412734509E0,-9.281946182E0,-1.189777565E1
1.158483073E1,-3.726175785E0,-8.912516594E0,-1.073941803E1
1.160149667E1,-3.305304766E0,-8.828891754E0,-8.494138718E0
1.161816261E1,-2.204423428E0,-8.937529564E0,-6.031470776E0
1.163482855E1,-3.993659019E-1,-8.922169685E0,-4.183619976E0
1.165149448E1,2.295957565E0,-8.310580254E0,-1.789993048E0
1.166816042E1,5.528947353E0,-6.923756123E0,2.222299576E-1
1.168482636E1,7.240501404E0,-4.851531029E0,2.140345573E-1
1.170149230E1,6.432103157E0,-1.557946444E0,8.842191696E-1
1.171815823E1,1.013869667E1,1.923074245E0,1.086943626E1
1.173482417E1,1.788275528E1,4.213994503E0,2.335381699E1
1.175149011E1,2.111977768E1,2.661355734E0,2.296465302E1
1.176815605E1,1.381726551E1,7.464926720E0,1.255919170E1
1.178482198E1,8.509146690E0,9.064795494E0,4.390239239E0
1.180148792E1,5.458645821E0,8.362848282E0,3.635850430E0
1.181815386E1,1.079515457E0,6.071856499E0,1.481159687E0
1.183481980E1,-3.572724819E0,3.932966709E0,-1.974786520E0
1.185148573E1,-6.523247242E0,2.703808784E0,-3.564072609E0
1.186815167E1,-8.427870750E0,1.962177277E0,-4.690294266E0
1.188481761E1,-1.018361282E1,1.446253777E0,-6.101192951E0
1.190148355E1,-1.146377182E1,1.065933466E0,-6.596147537E0
1.191814948E1,-1.216469955E1,1.100678444E0,-6.013730526E0
1.193481542E1,-1.225261688E1,7.792901993E-1,-4.301105499E0
1.195148136E1,-1.222575760E1,7.907228470E-1,-2.692807674E0
1.196814730E1,-1.159664536E1,1.339365005E0,-2.451861382E0
1.198481323E1,-1.017180443E1,2.453805447E0,-1.819275856E0
1.200147917E1,-8.056862831E0,4.221343994E0,-2.615778446E-1
1.201814511E1,-5.143943787E0,6.454792500E0,3.531058311E0
1.203481105E1,-2.887937546E0,9.448984146E0,8.476371765E0
1.205147698E1,-9.647812843E-1,1.159623814E1,1.221996117E1
1.206814292E1,7.604377270E0,1.148490810E1,1.859311676E1
1.208480886E1,2.147630501E1,7.963875294E0,2.453530693E1
1.210147480E1,2.681982040E1,3.122704983E0,2.150224686E1
1.211814073E1,2.012252808E1,-4.874415398E-1,1.261858463E1
1.213480667E1,1.041348648E1,-2.974876881E0,8.593090057E0
1.215147261E1,3.376154900E0,-4.851083755E0,7.398506641E0
1.216813855E1,-9.245586395E-2,-6.520457268E0,5.590402603E0
1.218480448E1,-1.102602959E0,-8.179925919E0,1.805041075E0
1.220147042E1,-1.237925529E0,-1.006865883E1,-3.064246178E0
1.221813636E1,-1.908289433E0,-1.187605381E1,-6.970713615E0
1.223480230E1,-3.710465193E0,-1.345669937E1,-9.629930496E0
1.225146823E1,-6.293757439E0,-1.409717178E1,-1.068591022E1
1.226813417E1,-8.110474586E0,-1.394828033E1,-1.055427551E1
1.228480011E1,-8.479041100E0,-1.345432663E1,-9.984963417E0
1.230146605E1,-7.889768600E0,-1.297389793E1,-9.356443405E0
1.231813198E1,-7.306440830E0,-1.255386543E1,-8.418519974E0
1.233479792E1,-6.565724373E0,-1.212080860E1,-6.923081398E0
1.235146386E1,-4.688161850E0,-1.173291206E1,-5.408926010E0
1.236812980E1,-1.269364357E0,-1.128716087E1,-3.225069046E0
1.238479573E1,2.999600410E0,-1.023475170E1,2.347754240E-1
1.240146167E1,7.407517910E0,-8.700702667E0,3.787024021E0
1.241812761E1,9.789787292E0,-6.737452984E0,4.374797821E0
1.243479355E1,8.513146400E0,-3.098124743E0,3.021841288E0
1.245145948E1,1.114026546E1,3.277492523E0,1.001404381E1
1.246812542E1,2.126565742E1,6.393119812E0,2.330550385E1
1.248479136E1,2.447924042E1,6.452417374E0,2.599964905E1
1.250145730E1,1.574562740E1,6.145699978E0,1.642689705E1
1.251812323E1,6.525901794E0,5.657808304E0,7.406096935E0
1.253478917E1,1.121567726E0,4.998652935E0,2.263918877E0
1.255145511E1,-2.028594017E0,4.019681931E0,-1.221997976E0
1.256812105E1,-3.777433872E0,2.618760586E0,-3.363818645E0
1.258478698E1,-4.303448200E0,1.285698414E0,-4.676823616E0
1.260145292E1,-4.641816139E0,3.271818161E-1,-5.699563026E0
1.261811886E1,-5.443265915E0,-3.518691063E-1,-5.882345200E0
1.263478480E1,-6.775988579E0,-7.840347290E-1,-6.043069839E0
1.265145073E1,-8.267684937E0,-9.499742985E-1,-6.112325668E0
1.266811667E1,-9.779436111E0,-8.151035309E-1,-6.662428856E0
1.268478261E1,-1.072771263E1,-7.731833458E-1,-7.779436588E0
1.270144855E1,-1.070129108E1,-1.387210608E0,-8.378703117E0
1.271811448E1,-9.499957085E0,-1.927318335E0,-8.018617630E0
1.273478042E1,-6.317502975E0,-1.326134205E0,-5.650392532E0
1.275144636E1,-1.465060711E0,9.157409668E-1,-2.957505941E0
1.276811230E1,1.548651695E0,4.628374100E0,-9.404784441E-1
1.278477823E1,9.964305878E0,6.145630836E0,5.760937691E0
1.280144417E1,2.133532333E1,6.976163387E0,1.519660568E1
1.281811011E1,2.554030800E1,5.986646175E0,2.134310913E1
1.283477605E1,1.972298050E1,3.663098335E0,1.939605331E1
1.285144198E1,9.620247841E0,1.746706486E0,1.253687286E1
1.286810792E1,1.535124779E0,6.583881378E-2,6.913480759E0
1.288477386E1,-1.733703613E0,-1.850883961E0,4.585340023E0
1.290143980E1,-1.224965096E0,-4.730772972E0,3.220688820E0
1.291810573E1,9.863138199E-2,-6.831590652E0,1.448816299E0
1.293477167E1,1.026703835E0,-8.190531731E0,-7.505770326E-1
1.295143761E1,1.308465004E0,-9.052114487E0,-1.270893812E0
1.296810354E1,1.054949760E0,-9.902576447E0,-1.892335713E-1
1.298476948E1,1.565310478E0,-1.260428810E1,7.370942831E-2
1.300143542E1,5.674662590E-1,-1.346458149E1,-2.871768177E-1
1.301810136E1,1.150426865E-1,-1.356660080E1,3.399144113E-1
1.303476730E1,3.877649307E-1,-1.310309410E1,6.121060848E-1
1.305143323E1,1.371679783E0,-1.213377762E1,3.959826231E-1
1.306809917E1,2.826125145E0,-1.192787361E1,3.049472570E-1
1.308476511E1,3.919011831E0,-1.243800354E1,2.903478444E-1
1.310143104E1,4.456134796E0,-1.267693806E1,1.626056880E-1
1.311809698E1,3.361450195E0,-1.271790695E1,3.340817094E-1
1.313476292E1,1.287581205E0,-1.219561481E1,7.445720434E-1
1.315142886E1,1.312262177E0,-1.176683140E1,-1.256818771E0
1.316809480E1,2.609941006E0,-9.612629890E0,-6.154982567E0
1.318476073E1,6.243213654E0,-5.483444214E0,-1.162795258E1
1.320142667E1,1.078043270E1,-3.618281841E0,-1.087564850E1
1.321809261E1,1.228474426E1,-3.029152870E0,-8.053790331E-1
1.323475854E1,1.607192612E1,-6.230707169E-1,1.321796322E1
1.325142448E1,2.396159172E1,7.434616089E-1,1.964891624E1
1.326809042E1,2.705658913E1,2.504710197E0,1.541437149E1
1.328475636E1,2.526531219E1,3.326773643E0,6.118163586E0
1.330142230E1,2.287969971E1,2.095380783E0,2.384923935E0
1.331808823E1,1.975576401E1,3.466024399E-1,6.094179153E0
1.333475417E1,1.788858795E1,-7.895460129E-1,9.803970337E0
1.335142011E1,1.693179703E1,-1.080632687E0,1.050284767E1
1.336808604E1,1.618550491E1,-1.248174667E0,8.413518906E0
1.338475198E1,1.552725410E1,-1.494888783E0,6.528337002E0
1.340141792E1,1.414928436E1,-2.111913204E0,6.679759979E0
1.341808386E1,1.291690826E1,-2.950009346E0,9.688753128E0
1.343474980E1,1.130651665E1,-3.182009697E0,1.146256828E1
1.345141573E1,8.643384933E0,-2.616250277E0,9.798563004E0
1.346808167E1,5.541464806E0,-1.621586084E0,7.250339985E0
1.348474761E1,2.964700222E0,-7.447721958E-1,6.226995945E0
1.350141354E1,1.453796387E0,-2.459068298E-1,6.855444908E0
1.351807948E1,1.598491669E-1,-6.793653965E-1,6.006422520E0
1.353474542E1,-3.116622448E0,-9.362101555E-1,4.030702591E0
1.355141136E1,-7.178139210E0,-4.203178883E-1,2.365984917E0
1.356807730E1,-1.106899834E1,1.288217545E0,8.881344795E-1
1.358474323E1,-1.378963661E1,2.529893398E0,-1.731325626E0
1.360140917E1,-1.566101742E1,4.147512913E0,-5.063410759E0
1.361807511E1,-1.577033138E1,6.931838036E0,-7.265344620E0
1.363474104E1,-1.156797218E1,1.134307480E1,-6.487082958E0
1.365140698E1,-5.018873215E0,1.725897598E1,-2.582093239E0
1.366807292E1,9.039921761E-1,2.172585297E1,4.939066410E0
1.368473886E1,6.036784172E0,2.376823616E1,1.181587601E1
1.370140480E1,9.633104324E0,2.249651718E1,1.752597427E1
1.371807073E1,1.103018761E1,1.734200859E1,1.812075043E1
1.373473667E1,7.741777897E0,1.176041603E1,1.177495289E1
1.375140261E1,4.622589111E0,7.214551449E0,8.140316010E0
1.376806854E1,5.162441254E0,2.019844532E0,9.396385193E0
1.378473448E1,3.969731331E0,-4.363804817E0,8.550317764E0
1.380140042E1,4.386610985E-1,-9.569403648E0,4.390269279E0
1.381806636E1,-2.327338696E0,-1.254742336E1,1.366164684E-1
1.383473230E1,-2.930131197E0,-1.372117996E1,-2.743562937E0
1.385139823E1,-3.653941631E0,-1.432846832E1,-4.640673161E0
1.386806417E1,-5.190779686E0,-1.549030876E1,-6.507133007E0
1.388473011E1,-5.736075878E0,-1.641820145E1,-7.176229477E0
1.390139604E1,-5.309161663E0,-1.775535965E1,-5.709369659E0
1.391806198E1,-5.584232807E0,-1.818332672E1,-3.879900455E0
1.393472792E1,-5.358118057E0,-1.732564545E1,-4.027670860E0
1.395139386E1,-3.581472874E0,-1.642475700E1,-5.747131348E0
1.396805980E1,-1.395027399E0,-1.568732548E1,-8.013837814E0
1.398472573E1,3.746509552E-3,-1.474978828E1,-8.804479599E0
1.400139167E1,1.097106457E0,-1.406045914E1,-5.671887398E0
1.401805761E1,3.342888355E0,-1.266773033E1,1.778884888E0
1.403472354E1,7.757642269E0,-9.897041321E0,8.923978806E0
1.405138948E1,1.264282703E1,-6.310597897E0,1.035442543E1
1.406805542E1,1.487923622E1,-1.917565107E0,4.493614674E0
1.408472136E1,1.572205544E1,3.878472328E0,3.359847069E0
1.410138730E1,1.721090317E1,7.641834259E0,1.512175369E1
1.411805323E1,1.618281364E1,1.092989349E1,2.625679398E1
1.413471917E1,1.336720467E1,1.314882946E1,2.515448189E1
1.415138511E1,4.560475826E0,1.573186302E1,1.329585648E1
1.416805104E1,-8.362417221E-1,1.632427979E1,8.696830750E0
1.418471698E1,-3.290338039E0,1.441161633E1,8.559671402E0
1.420138292E1,-6.822006702E0,1.170947456E1,3.808567524E0
1.421804886E1,-1.007557011E1,9.699596405E0,-1.637060165E0
1.423471480E1,-1.159727669E1,7.887162209E0,-4.396596432E0
1.425138073E1,-1.326348686E1,6.173061371E0,-5.799982548E0
1.426804667E1,-1.450316429E1,5.437836647E0,-5.698431969E0
1.428471261E1,-1.541328621E1,5.458630085E0,-4.984693527E0
1.430137854E1,-1.656956863E1,5.731674194E0,-5.008069992E0
1.431804448E1,-1.684277725E1,6.337108612E0,-3.591088295E0
1.433471042E1,-1.487657356E1,7.187794209E0,-2.775382996E-1
1.435137636E1,-8.287645340E0,8.265366554E0,3.686032295E0
1.436804230E1,-1.889120579E0,9.010486603E0,7.959957123E0
1.438470823E1,5.891327858E-1,9.089508057E0,1.172511101E1
1.440137417E1,9.811172485E-1,9.151424408E0,1.512621117E1
1.441804011E1,2.289040089E0,9.273297310E0,1.965428162E1
1.443470604E1,7.193216324E0,6.912142754E0,2.519429779E1
1.445137198E1,1.347466564E1,1.832667828E0,2.502651787E1
1.446803792E1,1.603741264E1,-2.158174038E0,1.784839630E1
1.448470386E1,1.230139160E1,-4.443321705E0,8.391668320E0
1.450136980E1,5.281096458E0,-5.753504276E0,4.473502159E0
1.451803573E1,-7.368178368E-1,-7.669640541E0,4.172163010E0
1.453470167E1,-3.537937641E0,-1.004585648E1,2.953355312E0
1.455136761E1,-3.868811131E0,-1.224442291E1,5.822882652E-1
1.456803354E1,-2.974126101E0,-1.418766785E1,-2.681116104E0
1.458469948E1,-2.736721754E0,-1.543021774E1,-6.674306870E0
1.460136542E1,-4.087319374E0,-1.540202808E1,-9.700235367E0
1.461803136E1,-5.481097698E0,-1.496062469E1,-1.147396564E1
1.463469730E1,-6.298172474E0,-1.427905655E1,-1.182453442E1
1.465136323E1,-6.324424267E0,-1.381938553E1,-1.097737503E1
1.466802917E1,-5.602949619E0,-1.343883705E1,-9.310479164E0
1.468469511E1,-4.503468513E0,-1.272492981E1,-7.175002575E0
1.470136104E1,-2.617218494E0,-1.195912457E1,-5.150248528E0
1.471802698E1,6.091527939E-1,-1.090930843E1,-3.141809464E0
1.473469292E1,5.385367870E0,-9.003869057E0,-7.104642391E-1
1.475135886E1,9.861152649E0,-6.804552078E0,1.713280678E0
1.476802480E1,1.091582298E1,-4.265232563E0,1.530032396E0
1.478469073E1,9.647878647E0,-9.186291695E-1,9.080538750E-1
1.480135667E1,9.255119324E0,4.472505093E0,8.365829468E0
1.481802261E1,1.373065472E1,7.869156837E0,2.149586105E1
1.483468854E1,1.659718323E1,8.501716614E0,2.461829758E1
1.485135448E1,1.256539726E1,1.025543213E1,1.574754333E1
1.486802042E1,6.791654110E0,1.149110794E1,8.058427811E0
1.488468636E1,2.659812927E0,1.021948624E1,7.387946129E0
1.490135230E1,-1.553962708E0,7.012499332E0,5.786093235E0
1.491801823E1,-5.676089287E0,3.804029942E0,7.970027924E-1
1.493468417E1,-8.552771568E0,2.107861996E0,-3.885252476E0
1.495135011E1,-9.855900764E0,1.429284573E0,-6.761668205E0
1.496801604E1,-1.078563309E1,9.985537529E-1,-8.420766830E0
1.498468198E1,-1.234690666E1,1.031859875E0,-8.889185905E0
1.500134792E1,-1.318871117E1,1.071341991E0,-7.858316422E0
1.501801386E1,-1.308967876E1,1.364992142E0,-5.500104904E0
1.503467980E1,-1.269997597E1,2.064795017E0,-2.300724745E0
1.505134573E1,-1.055503750E1,3.082802773E0,-2.309210300E-1
1.506801167E1,-7.914470196E0,4.711264610E0,6.711874008E-1
1.508467761E1,-5.962778091E0,6.476251125E0,1.835265636E0
1.510134354E1,-3.570911646E0,8.494562149E0,5.219571114E0
1.511800948E1,-1.767161846E0,1.046774197E1,1.005108643E1
1.513467542E1,-7.914137840E-1,1.288054466E1,1.468426132E1
1.515134136E1,6.372698784E0,1.280940819E1,2.173758698E1
1.516800730E1,1.747531319E1,8.469161987E0,2.660310745E1
1.518467323E1,2.216792870E1,3.665116310E0,2.169351959E1
1.520133917E1,1.811484146E1,-5.011196136E-1,1.253809643E1
1.521800511E1,9.149982452E0,-3.567624092E0,8.539994240E0
1.523467104E1,1.399423122E0,-6.363738537E0,7.160751820E0
1.525133698E1,-2.268092632E0,-8.570731163E0,5.126665115E0
1.526800292E1,-3.056574345E0,-1.067484856E1,1.236902475E0
1.528466886E1,-2.510415554E0,-1.261872864E1,-3.412707329E0
1.530133480E1,-1.912638664E0,-1.449207878E1,-7.323356628E0
1.531800073E1,-2.951929092E0,-1.560268021E1,-1.013748169E1
1.533466667E1,-5.268971443E0,-1.556030464E1,-1.183171749E1
1.535133261E1,-7.161180496E0,-1.491054916E1,-1.153225708E1
1.536799854E1,-7.813421726E0,-1.441767693E1,-1.002970600E1
1.538466448E1,-7.446464539E0,-1.387292671E1,-7.706268311E0
1.540133042E1,-6.066923141E0,-1.328642845E1,-5.967477798E0
1.541799636E1,-3.767439604E0,-1.247929382E1,-5.057472229E0
1.543466230E1,6.516389847E-1,-1.143060303E1,-4.104725838E0
1.545132823E1,5.889649391E0,-9.657231331E0,-9.697849751E-1
1.546799417E1,1.097285843E1,-7.712182999E0,2.681716442E0
1.548466011E1,1.363405609E1,-5.901256561E0,2.608449936E0
1.550132604E1,1.069436073E1,-2.699885607E0,1.908238649E0
1.551799198E1,1.202131271E1,2.952249050E0,1.431059170E1
1.553465792E1,2.018805695E1,6.059239864E0,2.827864456E1
1.555132386E1,2.340421677E1,8.141395569E0,2.561011124E1
1.556798980E1,1.703603554E1,1.025296116E1,1.129947472E1
1.558465573E1,1.038193703E1,9.777522087E0,3.536857128E0
1.560132167E1,4.579911709E0,7.737706661E0,2.361042500E0
1.561798761E1,-3.615965843E-1,4.908470154E0,1.127006531E0
1.563465354E1,-3.720254421E0,2.618859291E0,-1.198447943E0
1.565131948E1,-5.323110580E0,1.188200474E0,-3.238311768E0
1.566798542E1,-6.147014618E0,3.626937866E-1,-4.981257439E0
1.568465136E1,-7.653641224E0,5.385589600E-2,-6.777089596E0
1.570131730E1,-9.944710732E0,4.806423187E-1,-7.609323978E0
1.571798323E1,-1.192796421E1,1.320375919E0,-6.908363819E0
1.573464917E1,-1.310568810E1,1.765552044E0,-5.626508236E0
1.575131511E1,-1.361358738E1,1.711421490E0,-4.101586342E0
1.576798104E1,-1.385250473E1,1.431747913E0,-2.515020847E0
1.578464698E1,-1.402663422E1,1.358290672E0,-1.854040623E0
1.580131292E1,-1.403950024E1,2.308735847E0,-1.145853758E0
1.581797886E1,-1.174332047E1,4.103477001E0,1.384372234E0
1.583464480E1,-6.532141209E0,7.455049038E0,6.990163326E0
1.585131073E1,-2.482940197E0,1.285126305E1,1.334725857E1
1.586797667E1,3.464865208E0,1.794063950E1,1.712754822E1
1.588464261E1,1.651130676E1,1.816573906E1,2.200308418E1
1.590130855E1,2.697950554E1,1.425868416E1,2.436238670E1
1.591797448E1,2.808137512E1,8.326539993E0,2.066053963E1
1.593464042E1,2.073400688E1,1.934882164E0,1.665937424E1
1.595130636E1,1.169803810E1,-2.495672226E0,1.379364109E1
1.596797230E1,6.148059845E0,-5.848731041E0,1.006554508E1
1.598463823E1,3.540937901E0,-8.069355011E0,7.284885883E0
1.600130417E1,3.405621052E0,-1.083699799E1,5.933473587E0
1.601797011E1,4.137752533E0,-1.393084526E1,4.319911003E0
1.603463605E1,4.592694759E0,-1.704883194E1,1.889919996E0
1.605130198E1,3.956549644E0,-1.932851982E1,-1.121818185E0
1.606796792E1,2.431858063E0,-1.982074738E1,-5.198305607E0
1.608463386E1,8.427104950E-1,-1.939652061E1,-9.882188797E0
1.610129980E1,-1.208807945E0,-1.817075348E1,-1.306497383E1
1.611796573E1,-2.418296814E0,-1.709413147E1,-1.369823647E1
1.613463167E1,-2.187969446E0,-1.664623260E1,-1.181949615E1
1.615129761E1,-1.129024267E0,-1.576370621E1,-7.763291359E0
1.616796355E1,1.482059002E0,-1.383784389E1,-4.098093510E0
1.618462948E1,4.815615177E0,-1.068932247E1,-9.479041100E-1
1.620129542E1,8.064204216E0,-7.190168858E0,7.979856730E-1
1.621796136E1,9.223943710E0,-3.252389431E0,-2.972434521E0
1.623462730E1,2.802551746E0,3.194311142E0,-1.279566574E1
1.625129323E1,2.141544342E0,1.163147736E1,-2.961087704E0
1.626795917E1,1.923410988E1,1.247307014E1,2.719275665E1
1.628462511E1,2.559974480E1,1.025952148E1,3.380208206E1
1.630129104E1,1.399083614E1,1.142415047E1,2.106951714E1
1.631795698E1,3.123660088E0,1.222785187E1,1.136135769E1
1.633462292E1,-2.627062798E-1,1.193917084E1,6.159687042E0
1.635128886E1,-7.463579178E-1,1.031908417E1,2.125448227E0
1.636795480E1,-1.518822670E0,7.000617981E0,8.048765659E-1
1.638462073E1,-3.951314926E0,3.896796703E0,3.897929192E-2
1.640128667E1,-7.246902943E0,1.990292072E0,-1.520699263E0
1.641795261E1,-1.040643024E1,1.282892704E0,-2.620209694E0
1.643461854E1,-1.251060677E1,1.227192879E0,-1.938263655E0
1.645128448E1,-1.444070148E1,1.327346802E0,-3.816408217E-1
1.646795042E1,-1.813160515E1,2.506487370E0,1.331985235E0
1.648461636E1,-2.215419197E1,4.459064484E0,4.155875683E0
1.650128230E1,-2.377636528E1,5.954692364E0,8.920431137E0
1.651794823E1,-1.989416695E1,6.409139156E0,1.475483036E1
1.653461417E1,-1.025699711E1,5.641698360E0,1.960476685E1
1.655128011E1,-1.932690144E0,4.958580017E0,1.958692360E1
1.656794604E1,6.033029556E-1,5.794013023E0,1.550070763E1
1.658461198E1,-1.976032257E-1,8.304885864E0,1.403943539E1
1.660127792E1,8.200535774E-1,8.895749092E0,1.361417007E1
1.661794386E1,5.869248390E0,1.810316086E0,1.946617126E1
1.663460980E1,1.076749992E1,-8.093173027E0,2.773315048E1
1.665127573E1,1.063520336E1,-1.765731812E1,2.290645218E1
1.666794167E1,6.457727432E0,-1.987061882E1,1.523753262E1
1.668460761E1,5.623642445E0,-2.035264015E1,8.654792786E0
1.670127354E1,3.975708961E0,-1.936476898E1,9.371222258E-1
1.671793948E1,5.962905884E-1,-1.671759033E1,-6.236216545E0
1.673460542E1,-1.863507271E0,-1.366151237E1,-1.073770905E1
1.675127136E1,-3.820315361E0,-1.061359310E1,-1.123788548E1
1.676793730E1,-5.339700699E0,-8.347936630E0,-8.118729591E0
1.678460323E1,-6.750441074E0,-6.316595078E0,-4.551687241E0
1.680126917E1,-7.226550579E0,-4.094800472E0,-1.585192919E0
1.681793511E1,-6.143178940E0,-1.710023642E0,6.648213863E-1
1.683460104E1,-4.564954281E0,5.504341125E-1,1.398237824E0
1.685126698E1,-3.778120518E0,2.595688581E0,2.116930038E-1
1.686793292E1,-4.325900078E0,5.156763077E0,-1.155689478E0
1.688459886E1,-5.464436531E0,8.199933052E0,4.963996112E-1
1.690126480E1,-5.829567909E0,9.948628426E0,6.248426437E0
1.691793073E1,-5.182862282E0,1.060900593E1,1.086805344E1
1.693459667E1,-2.724374294E0,1.155767822E1,1.212661362E1
1.695126261E1,5.821752548E-1,1.305759239E1,9.382212639E0
1.696792854E1,2.149225235E0,1.570272255E1,6.217752934E0
1.698459448E1,4.917410851E0,1.741781044E1,9.885066032E0
1.700126042E1,1.182955933E1,1.710615349E1,2.106930923E1
1.701792636E1,1.748361969E1,1.495226479E1,2.936549568E1
1.703459230E1,1.701595306E1,1.108010578E1,2.493616104E1
1.705125823E1,9.480478287E0,8.291003227E0,1.095975590E1
1.706792417E1,1.913744926E0,9.531691551E0,3.188388109E0
1.708459011E1,3.486396790E0,1.087045860E1,8.335046768E0
1.710125604E1,8.192678452E0,9.038714409E0,1.399280357E1
1.711792198E1,1.145514584E1,5.561118126E0,1.283345127E1
1.713458792E1,1.230190086E1,3.399876595E0,8.118766785E0
1.715125386E1,9.318797112E0,2.516027212E0,6.533213615E0
1.716791980E1,5.382563591E0,1.486228704E0,6.898865700E0
1.718458573E1,4.580513000E0,1.423189640E-1,7.581712723E0
1.720125167E1,4.811276436E0,-1.193466187E0,8.177239418E0
1.721791761E1,3.433764458E0,-2.753065109E0,5.782872200E0
1.723458354E1,3.991079330E-1,-3.952971935E0,3.102886677E0
1.725124948E1,-1.401227951E0,-4.913149357E0,2.051422358E0
1.726791542E1,-2.069144249E0,-6.043941021E0,1.216074705E0
1.728458136E1,-1.704143524E0,-6.673870087E0,4.615823030E-1
1.730124730E1,-1.480190277E0,-7.261146545E0,-8.377017379E-1
1.731791323E1,-2.787765980E0,-6.945321560E0,-2.213132381E0
1.733457917E1,-4.523068905E0,-6.394292831E0,-2.559739590E0
1.735124511E1,-5.598607540E0,-5.491744041E0,-8.607763052E-1
1.736791104E1,-5.999923706E0,-4.202958584E0,7.657018900E-1
1.738457698E1,-4.490970135E0,-3.052399158E0,1.300523400E0
1.740124292E1,-3.383887291E0,-8.171691895E-1,1.293886304E0
1.741790886E1,-2.054026127E0,1.576313019E0,2.457124710E0
1.743457480E1,-1.135407925E0,3.659163952E0,4.710007668E0
1.745124073E1,-7.177543640E-1,4.800725937E0,6.187453747E0
1.746790667E1,-5.436763763E-1,5.542635918E0,5.963180542E0
1.748457261E1,-1.531947136E0,6.341218472E0,5.472559452E0
1.750123854E1,-1.819843769E0,6.373851299E0,6.025884151E0
1.751790448E1,-2.253335476E0,5.603870869E0,5.973128319E0
1.753457042E1,-2.340502739E0,5.449649811E0,5.388850212E0
1.755123636E1,7.945976257E-1,6.465333939E0,6.612913132E0
1.756790230E1,5.300509453E0,7.352210999E0,7.572535038E0
1.758456823E1,8.203845978E0,8.171171188E0,7.659546852E0
1.760123417E1,8.763965607E0,8.712021828E0,8.644967079E0
1.761790011E1,8.867197037E0,8.469787598E0,9.280313492E0
1.763456604E1,7.739030838E0,8.851496696E0,6.954280853E0
1.765123198E1,5.809013367E0,1.022174358E1,3.114022732E0
1.766789792E1,4.918820381E0,1.201352882E1,-8.020045757E-1
1.768456386E1,4.398593903E0,1.371358490E1,-3.609087706E0
1.770122980E1,3.033068657E0,1.495337296E1,-3.417278528E0
1.771789573E1,1.788595200E0,1.563321304E1,4.001917839E-1
1.773456167E1,1.073807716E0,1.546285439E1,3.558731079E0
1.775122761E1,1.424428940E0,1.482913399E1,4.793993473E0
1.776789354E1,2.350393295E0,1.375273800E1,5.774412632E0
1.778455948E1,2.961236954E0,1.252893734E1,7.512989998E0
1.780122542E1,2.968283653E0,1.076623917E1,8.432169914E0
1.781789136E1,4.278189659E0,8.983557701E0,1.095041943E1
1.783455730E1,5.834095001E0,6.249104023E0,1.410111427E1
1.785122323E1,6.319216728E0,3.169340849E0,1.814112282E1
1.786788917E1,6.641208649E0,-3.506889343E-1,2.183332825E1
1.788455511E1,6.973344803E0,-3.679050446E0,2.370233154E1
1.790122104E1,8.607129097E0,-7.552060127E0,2.334328651E1
1.791788698E1,1.054444313E1,-1.048612213E1,2.116206932E1
1.793455292E1,9.106034279E0,-1.306260300E1,1.862771606E1
1.795121886E1,4.039679527E0,-1.612160492E1,1.553972054E1
1.796788480E1,-1.660552502E0,-1.762568665E1,1.130166912E1
1.798455073E1,-5.338962555E0,-1.767869377E1,7.242486000E0
1.800121667E1,-6.935407639E0,-1.735099983E1,3.077262640E0
1.801788261E1,-6.283440590E0,-1.729352760E1,-1.382409692E0
1.803454854E1,-6.157616138E0,-1.741836739E1,-4.567375183E0
1.805121448E1,-7.228814602E0,-1.776453400E1,-6.080196857E0
1.806788042E1,-8.256879807E0,-1.743065643E1,-6.453283310E0
1.808454636E1,-7.723064423E0,-1.626780510E1,-5.988162994E0
1.810121230E1,-5.404296398E0,-1.496606255E1,-7.354269981E0
1.811787823E1,-3.338682175E0,-1.339493561E1,-1.045959473E1
1.813454417E1,-2.126416683E0,-1.228018379E1,-1.198226357E1
1.815121011E1,-1.254324913E0,-1.193307495E1,-9.969852448E0
1.816787604E1,3.292012215E-1,-1.146623898E1,-5.132504463E0
1.818454198E1,4.557535172E0,-9.235370636E0,-8.347177505E-2
1.820120792E1,1.139009285E1,-6.054754257E0,2.239067554E0
1.821787386E1,1.633062363E1,-3.335085869E0,5.939550400E-1
1.823453980E1,1.854663849E1,1.478977203E-1,1.461088657E0
1.825120573E1,2.095995331E1,4.205813408E0,1.187024689E1
1.826787167E1,2.200239944E1,6.454118729E0,2.106279564E1
1.828453761E1,1.601534462E1,7.950677395E0,1.715613937E1
1.830120354E1,6.009455204E0,1.012153530E1,9.830080032E0
1.831786948E1,6.433525085E-1,1.101769733E1,8.681004524E0
1.833453542E1,-2.228367805E0,1.067321491E1,6.939050198E0
1.835120136E1,-4.607810974E0,9.129267693E0,1.376468658E0
1.836786730E1,-5.940361500E0,7.579762459E0,-5.111298561E0
1.838453323E1,-7.186740875E0,5.563120842E0,-8.607925415E0
1.840119917E1,-9.209913254E0,3.662235260E0,-8.879718781E0
1.841786511E1,-1.154575253E1,2.624761105E0,-8.005587578E0
1.843453104E1,-1.398342705E1,2.758584261E0,-7.161629200E0
1.845119698E1,-1.478666115E1,3.230115414E0,-6.482427597E0
1.846786292E1,-1.381960678E1,3.894618988E0,-5.223613262E0
1.848452886E1,-1.160282898E1,4.986195564E0,-2.729804754E0
1.850119480E1,-7.361511230E0,6.501937389E0,1.728630066E0
1.851786073E1,-1.986871243E0,8.164234161E0,6.938361645E0
1.853452667E1,9.941644669E-1,8.853021622E0,1.036249447E1
1.855119261E1,1.533833504E0,9.511114120E0,1.224082375E1
1.856785854E1,3.914765358E0,1.045027542E1,1.680461884E1
1.858452448E1,1.085535240E1,8.217689514E0,2.399757195E1
1.860119042E1,1.573904610E1,2.739400387E0,2.291243744E1
1.861785636E1,1.559070873E1,-1.089023590E0,1.538840866E1
1.863452230E1,1.190087891E1,-3.743963003E0,8.322889328E0
1.865118823E1,5.769390583E0,-5.556916237E0,5.544550419E0
1.866785417E1,5.944375992E-1,-7.671104908E0,4.058535576E0
1.868452011E1,-2.295047998E0,-9.302321434E0,1.971919537E0
1.870118604E1,-2.681041956E0,-1.093686390E1,1.597476006E-2
1.871785198E1,-1.803475618E0,-1.284647846E1,-2.531593084E0
1.873451792E1,-1.221016884E0,-1.458787823E1,-5.456594467E0
1.875118386E1,-2.016019344E0,-1.541147804E1,-8.672496796E0
1.876784980E1,-3.283264399E0,-1.516782761E1,-1.149347115E1
1.878451573E1,-4.117833614E0,-1.473051262E1,-1.294527340E1
1.880118167E1,-5.134935379E0,-1.401687241E1,-1.321603584E1
1.881784761E1,-5.863093853E0,-1.338756561E1,-1.229764080E1
1.883451354E1,-5.344449520E0,-1.304411983E1,-9.844963074E0
1.885117948E1,-3.300049305E0,-1.254203224E1,-6.844912529E0
1.886784542E1,8.800311089E-1,-1.119518280E1,-3.926274776E0
1.888451136E1,7.125970364E0,-8.355225563E0,7.344293594E-1
1.890117730E1,1.200387573E1,-5.578875542E0,3.476585150E0
1.891784323E1,1.288020325E1,-3.316997766E0,3.253868103E0
1.893450917E1,1.390581799E1,1.680790424E0,9.771867752E0
1.895117511E1,2.042125511E1,4.990696430E0,2.295191574E1
1.896784104E1,2.431505203E1,7.082427502E0,2.616647530E1
1.898450698E1,1.852823257E1,8.948837280E0,1.425919914E1
1.900117292E1,9.838993073E0,8.964448929E0,4.797255516E0
1.901783886E1,3.456768513E0,7.738911629E0,4.742554188E0
1.903450480E1,-1.230589867E0,5.841112137E0,4.809226513E0
1.905117073E1,-4.721888542E0,3.987139225E0,1.684993267E0
1.906783667E1,-6.842575073E0,2.251871586E0,-1.353961706E0
1.908450261E1,-7.725432396E0,8.853812218E-1,-3.696833134E0
1.910116854E1,-8.854970932E0,1.036458015E-1,-6.076944351E0
1.911783448E1,-1.130287361E1,3.502879143E-1,-7.828782558E0
1.913450042E1,-1.414281464E1,8.582377434E-1,-7.683811188E0
1.915116636E1,-1.607561493E1,1.336017132E0,-5.681050301E0
1.916783230E1,-1.623152924E1,1.376674652E0,-3.229351521E0
1.918449823E1,-1.481226921E1,7.585682869E-1,-1.722992659E0
1.920116417E1,-1.336819839E1,7.888255119E-1,-1.598994255E0
1.921783011E1,-1.161319351E1,2.031350613E0,-2.028824091E0
1.923449604E1,-8.542913437E0,4.990246296E0,-4.595804214E-2
1.925116198E1,-3.683889627E0,9.392391205E0,6.364237785E0
1.926782792E1,-7.350444794E-3,1.466948700E1,1.534428024E1
1.928449386E1,6.802798271E0,1.795955467E1,2.257373428E1
1.930115980E1,2.153712082E1,1.546924782E1,2.724335670E1
1.931782573E1,3.036086845E1,9.300522804E0,2.371087265E1
1.933449167E1,2.680408669E1,3.291711330E0,1.481710434E1
1.935115761E1,1.750144386E1,-2.109753132E0,9.377346039E0
1.936782354E1,7.331936836E0,-5.697863579E0,7.048433781E0
1.938448948E1,6.723499298E-1,-8.339087486E0,5.307572365E0
1.940115542E1,-1.797085762E0,-1.053461170E1,2.936107159E0
1.941782136E1,-2.122711658E0,-1.245023060E1,-6.905768514E-1
1.943448730E1,-2.634614944E0,-1.409748650E1,-3.821486235E0
1.945115323E1,-3.688824654E0,-1.564979172E1,-5.795519352E0
1.946781917E1,-5.249207020E0,-1.647864914E1,-7.329793453E0
1.948448511E1,-6.652566433E0,-1.662723923E1,-8.215033531E0
1.950115104E1,-7.049777508E0,-1.678548813E1,-8.456273079E0
1.951781698E1,-6.839595318E0,-1.666059113E1,-8.606927872E0
1.953448292E1,-6.324961185E0,-1.606329346E1,-8.207015991E0
1.955114886E1,-5.055309772E0,-1.534034920E1,-6.578798294E0
1.956781480E1,-2.502673626E0,-1.475244141E1,-4.582343578E0
1.958448073E1,1.817123413E0,-1.331991577E1,-1.639776111E0
1.960114667E1,6.549583912E0,-1.105049515E1,2.249320984E0
1.961781261E1,1.090475941E1,-8.670244217E0,4.047540188E0
1.963447854E1,1.109855652E1,-5.134853363E0,-4.590978026E-1
1.965114448E1,7.459784508E0,1.100490093E0,-5.193571448E-1
1.966781042E1,1.548806953E1,6.545809269E0,1.768327713E1
1.968447636E1,2.642815399E1,7.718208790E0,3.110639191E1
1.970114230E1,2.473952866E1,6.060163975E0,2.689118958E1
1.971780823E1,1.358656693E1,5.914846420E0,1.766144180E1
1.973447417E1,3.662484646E0,5.590356350E0,1.008930016E1
1.975114011E1,-1.982967377E0,4.928040028E0,4.366730690E0
1.976780604E1,-4.656653404E0,4.023886681E0,7.169079781E-1
1.978447198E1,-5.765657425E0,2.612788200E0,-1.074119329E0
1.980113792E1,-6.310863495E0,1.299473763E0,-1.756327391E0
1.981780386E1,-6.964041710E0,4.089436531E-1,-3.026821613E0
1.983446980E1,-7.642932892E0,-2.017369270E-1,-4.990688324E0
1.985113573E1,-8.333461761E0,-5.110554695E-1,-6.024980545E0
1.986780167E1,-9.291812897E0,-7.431945801E-1,-5.909760475E0
1.988446761E1,-9.916818619E0,-7.038297653E-1,-5.334477425E0
1.990113354E1,-1.046166039E1,-4.107785225E-1,-4.672617435E0
1.991779948E1,-1.104720879E1,-9.648656845E-2,-4.164928436E0
1.993446542E1,-1.142229843E1,7.991838455E-2,-3.959058285E0
1.995113136E1,-1.166271496E1,-1.096539497E-1,-4.223644257E0
1.996779730E1,-1.181754780E1,-2.092709541E-1,-3.650224209E0
1.998446323E1,-1.024541187E1,4.071812630E-1,-1.509292126E0
2.000112917E1,-6.883244038E0,2.041768551E0,8.839026690E-1
2.001779511E1,-1.417730808E0,4.618066311E0,3.717891693E0
2.003446104E1,5.273518562E-1,9.474144936E0,6.594618797E0
2.005112698E1,7.310513496E0,9.748446465E0,1.157166100E1
2.006779292E1,2.000565338E1,6.921628475E0,2.112769890E1
2.008445886E1,3.217696381E1,2.084868908E0,2.865420723E1
2.010112480E1,3.243767166E1,-3.810372829E0,2.814129448E1
2.011779073E1,2.131445312E1,-7.979239941E0,1.953199959E1
2.013445667E1,7.981206894E0,-8.152273178E0,8.396126747E0
2.015112261E1,-7.845497131E-2,-8.470140457E0,1.764907837E-1
2.016778854E1,-4.039763451E0,-8.214683533E0,-4.103388309E0
2.018445448E1,-4.551292419E0,-8.831815720E0,-6.113852501E0
2.020112042E1,-4.302117348E0,-9.654319763E0,-8.468617439E0
2.021778636E1,-4.936470032E0,-9.778601646E0,-1.147631454E1
2.023445230E1,-5.731513500E0,-9.968990326E0,-1.426577282E1
2.025111823E1,-6.774673939E0,-1.008055687E1,-1.449473286E1
2.026778417E1,-7.147440910E0,-1.027669525E1,-1.248700333E1
2.028445011E1,-6.696729660E0,-1.064949894E1,-9.480511665E0
2.030111604E1,-5.797356129E0,-1.122432327E1,-7.293401718E0
2.031778198E1,-4.478515625E0,-1.196338463E1,-6.734321117E0
2.033444792E1,-2.841545582E0,-1.216710281E1,-6.436016083E0
2.035111386E1,3.574323654E-2,-1.213536930E1,-5.027196884E0
2.036777980E1,4.095115662E0,-1.149159908E1,-1.777426958E0
2.038444573E1,9.072187424E0,-1.205863571E1,1.152267694E0
2.040111167E1,9.259894371E0,-8.916187286E0,2.650432110E0
2.041777761E1,1.229374313E1,-2.681958914E0,1.127520943E1
2.043444354E1,2.608911133E1,5.907630920E-2,2.778149033E1
2.045110948E1,3.216874695E1,-2.194238663E0,3.367150116E1
2.046777542E1,2.177519226E1,-1.101086140E-1,2.561282349E1
2.048444136E1,7.908899784E0,1.411393404E0,1.129347038E1
2.050110730E1,2.165131569E-1,1.561666965E0,-4.860210419E-2
2.051777323E1,-2.677640438E0,3.024612427E0,-6.422006607E0
2.053443917E1,-2.530362129E0,2.709239960E0,-8.426507950E0
2.055110511E1,-2.598174095E0,2.108173847E0,-8.535812378E0
2.056777104E1,-3.384643793E0,1.243149757E0,-8.371659279E0
2.058443698E1,-4.404531479E0,4.593920708E-1,-8.142675400E0
2.060110292E1,-5.589626789E0,-3.155920506E-1,-7.417086601E0
2.061776886E1,-6.935513973E0,-7.529678345E-1,-6.221722126E0
2.063443480E1,-7.664970398E0,-9.429912567E-1,-5.117123127E0
2.065110073E1,-7.779318810E0,-9.029085636E-1,-4.368289948E0
2.066776667E1,-7.583634853E0,-6.823241711E-1,-4.312945366E0
2.068443261E1,-7.395653248E0,-7.850904465E-1,-5.627997875E0
2.070109854E1,-7.122550488E0,-9.770796299E-1,-6.913879871E0
2.071776448E1,-6.831735134E0,-1.416365385E0,-7.182683945E0
2.073443042E1,-6.397168159E0,-1.483708620E0,-6.702626228E0
2.075109636E1,-4.708494186E0,-7.588124275E-1,-5.251740456E0
2.076776230E1,-1.365237236E0,1.154766083E-1,-2.726273775E0
2.078442823E1,1.815559864E0,2.449615002E0,-7.258453369E-1
2.080109417E1,7.474058628E0,3.641535282E0,1.697160721E0
2.081776011E1,1.809903145E1,2.187201977E0,8.405229568E0
2.083442604E1,2.743859482E1,-6.071190834E-1,1.542062759E1
2.085109198E1,2.997075081E1,-8.626096725E0,1.870239830E1
2.086775792E1,1.698552322E1,-7.887545586E0,1.836029816E1
2.088442386E1,3.987149954E0,-4.663692951E0,1.078353405E1
2.090108980E1,1.193897009E0,-3.817439079E0,5.402326584E0
2.091775573E1,2.702083111E0,-1.849001884E0,1.424261093E0
2.093442167E1,4.343276978E0,-9.185349941E-1,-1.452688694E0
2.095108761E1,5.972558498E0,-4.045009613E-1,-3.251106739E0
2.096775354E1,6.491938114E0,3.599357605E-2,-4.029306889E0
2.098441948E1,5.451679230E0,2.693462372E-1,-3.901379108E0
2.100108542E1,3.943392277E0,3.701801300E-1,-3.027946949E0
2.101775136E1,2.417775869E0,2.318780422E-1,-3.272862911E0
2.103441730E1,1.802475452E0,1.096475124E-1,-2.690558910E0
2.105108323E1,2.280482531E0,-4.307067394E-1,-3.079489231E0
2.106774917E1,2.633442640E0,-7.999453545E-1,-3.062057972E0
2.108441511E1,2.434772253E0,-1.587928295E0,-3.732414722E0
2.110108104E1,1.614662886E0,-2.124985695E0,-4.470746517E0
2.111774698E1,6.418271065E-1,-2.247595549E0,-5.024461269E0
2.113441292E1,1.821701527E-1,-2.768304586E0,-5.226767540E0
2.115107886E1,-1.878180504E-1,-3.051479340E0,-5.487043381E0
2.116774480E1,-9.893774986E-2,-3.275291443E0,-5.822021484E0
2.118441073E1,5.402109623E-1,-3.527632475E0,-5.726630211E0
2.120107667E1,7.670698166E-1,-3.808331013E0,-4.960881233E0
2.121774261E1,1.150265932E0,-3.870069981E0,-3.926716805E0
2.123440854E1,1.637624502E0,-3.592878819E0,-2.419932365E0
2.125107448E1,2.156497717E0,-3.195681810E0,-2.033414841E-1
2.126774042E1,1.687168598E0,-2.717469692E0,1.092790604E0
2.128440636E1,2.751966715E0,-2.516592979E0,3.111888885E0
2.130107230E1,4.092552185E0,-2.516918182E0,7.210487366E0
2.131773823E1,4.314997196E0,-2.169651508E0,1.086855984E1
2.133440417E1,3.853428841E0,-1.474981308E0,1.162499809E1
2.135107011E1,2.466302872E0,-6.905241013E-1,9.742309570E0
2.136773604E1,1.108650208E0,1.694064140E-1,6.357769012E0
2.138440198E1,2.122973204E-1,9.291229248E-1,3.234540939E0
2.140106792E1,1.729960442E-1,1.428104639E0,1.280694008E0
2.141773386E1,-1.912007332E-1,1.403207064E0,-1.246204376E-1
2.143439980E1,-4.020627737E-1,1.881284475E0,-1.772848129E0
2.145106573E1,2.294142485E0,-4.283666611E-3,-3.143615723E0
2.146773167E1,3.175077200E0,-5.607061386E-1,4.238395691E-1
2.148439761E1,1.950565577E0,-8.387351036E-1,-7.514848709E-1
2.150106354E1,8.517515659E-1,-1.685604692E0,-2.511046410E0
2.151772948E1,3.424382210E-1,-1.715970874E0,-2.643854141E0
2.153439542E1,-6.375545263E-1,-1.612908721E0,-2.752377987E0
2.155106136E1,-7.908784747E-1,-1.656770706E0,-2.990327358E0
2.156772730E1,-2.502670288E-1,-9.453547001E-1,-2.920064926E0
2.158439323E1,-3.601014614E-2,-1.164906025E-1,-3.117590904E0
2.160105917E1,3.399527073E-2,4.584505558E-1,-3.309267998E0
2.161772511E1,6.232329607E-1,6.292061806E-1,-2.869439125E0
2.163439104E1,8.306482434E-1,9.067573547E-1,-2.028050900E0
2.165105698E1,3.080960512E-1,7.409539223E-1,-1.186973095E0
2.166772292E1,2.450026274E-1,-6.489610672E-1,-2.184768200E0
2.168438886E1,4.458176196E-1,-1.274516344E0,-2.918278217E0
2.170105480E1,-3.901591301E-1,-1.491947174E-1,-1.507003307E0
2.171772073E1,-1.261612058E0,1.359640598E0,2.475013733E-1
2.173438667E1,-1.762745261E0,1.670372963E0,1.371953011E0
2.175105261E1,-8.784660101E-1,-9.012746811E-1,1.964868546E0
2.176771854E1,-1.590589046E0,-8.818569183E-1,2.468488693E0
2.178438448E1,-2.133370876E0,1.362819672E-1,2.383288383E0
2.180105042E1,-2.160638809E0,3.652334213E-2,1.902425766E0
2.181771636E1,-2.041482210E0,-1.579775810E-1,1.247333527E0
2.183438230E1,-1.954667926E0,-5.196208954E-1,7.928323746E-1
2.185104823E1,-2.174844265E0,-5.602831841E-1,7.247247696E-1
2.186771417E1,-2.482787609E0,-3.197407722E-1,4.348325729E-1
2.188438011E1,-2.413851261E0,-3.723497391E-1,2.475934029E-1
2.190104604E1,-2.331362724E0,-3.959536552E-1,2.469635010E-2
2.191771198E1,-2.996651649E0,-2.671895027E-1,-1.032729149E-1
2.193437792E1,-3.245380878E0,-4.518833160E-1,-2.204732895E-1
2.195104386E1,-3.041510582E0,-4.896850586E-1,-1.281785965E-1
2.196770980E1,-2.330204725E0,-3.342905045E-1,2.338557243E-1
2.198437573E1,-1.243361950E0,-4.805350304E-1,2.483844757E-1
2.200104167E1,-1.644464254E0,-4.638085365E-1,-5.092892647E-1
2.201770761E1,-2.250230312E0,-3.688735962E-1,-1.055864811E0
2.203437354E1,-2.227523088E0,-3.175740242E-1,-5.444512367E-1
2.205103948E1,-1.783355713E0,-3.974184990E-1,3.468990326E-1
2.206770542E1,-1.451058626E0,-4.194874763E-1,5.046367645E-1
2.208437136E1,-1.514907360E0,-3.117151260E-1,-1.136064529E-1
2.210103730E1,-1.398433447E0,-2.347664833E-1,-7.036824226E-1
2.211770323E1,-6.999588013E-1,-4.809708595E-1,-9.746437073E-1
2.213436917E1,-6.569614410E-1,-4.430384636E-1,-1.128657341E0
2.215103511E1,-9.735860825E-1,-4.130902290E-1,-9.830169678E-1
2.216770104E1,-1.023928881E0,-5.044407845E-1,-6.965079308E-1
2.218436698E1,-8.681993484E-1,-6.147565842E-1,-4.840512276E-1
2.220103292E1,-8.904359341E-1,-6.425185204E-1,-4.261307716E-1
2.221769886E1,-7.703597546E-1,-6.063394547E-1,-2.228636742E-1
2.223436480E1,-5.682277679E-1,-5.835185051E-1,-8.336067200E-3
2.225103073E1,-5.483436584E-1,-4.645509720E-1,1.687307358E-1
2.226769667E1,-7.921128273E-1,-3.922219276E-1,3.975143433E-1
2.228436261E1,-6.655423641E-1,-5.150742531E-1,2.440748215E-1
2.230102854E1,-5.186445713E-1,-4.449715614E-1,-2.200317383E-2
2.231769448E1,-4.844629765E-1,-6.556882858E-1,-3.526577950E-1
2.233436042E1,-4.793410301E-1,-7.933654785E-1,-2.229161263E-1
2.235102636E1,-9.937186241E-1,-6.886272430E-1,-1.208611012E0
2.236769230E1,-1.252036810E0,-6.123499870E-1,1.046318054E0
2.238435823E1,-1.225333691E0,-4.609761238E-1,2.785207748E0
2.240102417E1,-1.141221046E0,-5.798101425E-1,2.091753960E0
2.241769011E1,-7.712073326E-1,-6.168656349E-1,1.154895782E0
2.243435604E1,-7.306542397E-1,-8.685526848E-1,-2.442088127E-1
