"Time (s)","Acceleration x (m/s^2)","Acceleration y (m/s^2)","Acceleration z (m/s^2)"
8.511564000E-3,-2.965604544E0,5.767001629E0,6.018547058E0
2.517750200E-2,-2.057528257E0,5.322535038E0,7.210172653E0
4.184343900E-2,-1.231705427E0,4.822434902E0,9.085846901E0
5.850937700E-2,-1.224227905E0,4.888835907E0,9.712467194E0
7.517531400E-2,-1.928615093E0,5.171487808E0,9.247362137E0
9.184125200E-2,-2.544467688E0,5.462215900E0,9.205188751E0
1.085071890E-1,-2.305484533E0,5.465506077E0,8.799305916E0
1.251731270E-1,-1.591825247E0,5.041079044E0,8.128418922E0
1.418390640E-1,-9.984052777E-1,4.840381145E0,7.634001732E0
1.585050020E-1,-1.089930773E0,5.184947491E0,7.453941822E0
1.751709390E-1,-1.186241865E0,5.186442852E0,7.725227833E0
1.918368770E-1,-1.473380566E0,4.741377831E0,7.993523121E0
2.085028140E-1,-1.917548299E0,4.905884743E0,8.731410027E0
2.251687520E-1,-1.766202211E0,4.946562767E0,9.148657799E0
2.418346890E-1,-1.602293849E0,4.908277512E0,9.158827782E0
2.585006270E-1,-1.760519266E0,5.089533806E0,8.944071770E0
2.751665640E-1,-1.961815476E0,4.409373760E0,8.216953278E0
2.918325020E-1,-2.014457464E0,4.136591911E0,7.992027760E0
3.084984390E-1,-1.286740422E0,4.621138573E0,8.044071198E0
3.251643770E-1,-1.524527073E0,3.858426571E0,7.165606499E0
3.418303140E-1,-7.453642488E-1,3.294916868E0,8.509176254E0
3.584962520E-1,1.764706671E-1,2.382952213E0,1.150319576E1
3.751621890E-1,-8.673982322E-2,1.590030670E0,1.111077309E1
3.918281270E-1,-6.083751321E-1,1.955833435E0,1.080568790E1
4.084940640E-1,-1.122233868E0,2.726322412E0,1.124566841E1
4.251600020E-1,-3.182155132E0,3.110968590E0,1.037827015E1
4.418259390E-1,-2.744567633E0,1.273280740E0,9.573982239E0
4.584918770E-1,-1.754238129E0,-4.259224236E-1,9.993623734E0
4.751578140E-1,-2.505584478E0,8.087740541E-1,8.894122124E0
4.918237520E-1,-3.676572084E0,3.814458370E0,1.055294609E1
5.084896890E-1,-3.280858994E0,5.028516769E0,1.130070305E1
5.251556270E-1,-2.501995087E0,3.843471289E0,9.526425362E0
5.418215640E-1,-1.969592094E0,1.221835017E0,7.553243637E0
5.584875020E-1,-1.847259045E0,-8.452646136E-1,8.324629784E0
5.751534390E-1,-1.728515267E0,-2.183450609E-1,1.174995518E1
5.918193770E-1,-2.015354872E0,1.987239242E0,1.161296654E1
6.084853140E-1,-1.713261008E0,1.346860051E0,8.427521706E0
6.251512520E-1,-1.646860242E0,9.777671695E-1,7.408178806E0
6.418171890E-1,-1.972284079E0,9.696913958E-1,9.986744881E0
6.584831270E-1,-2.298306227E0,-1.511366606E0,1.393968773E1
6.751490640E-1,-3.323929787E0,-7.627122104E-2,1.135723400E1
6.918150020E-1,-2.058724880E0,8.138588071E-1,5.206482887E0
7.084809390E-1,-5.934200287E-1,1.151844978E0,5.800501347E0
7.251468770E-1,-1.578066587E0,2.073380709E0,8.035397530E0
7.418128140E-1,-1.753041744E0,1.314556956E0,9.288339615E0
7.584787520E-1,-1.172782183E0,1.584646821E0,1.181246853E1
7.751446890E-1,-1.056730270E0,1.314556956E0,1.142094231E1
7.918106270E-1,-1.304387450E0,1.589133382E0,7.450352192E0
8.084765640E-1,-8.653044701E-1,2.682354212E0,6.714858532E0
8.251425020E-1,-2.799602449E-1,2.706581593E0,8.147860527E0
8.418084390E-1,5.165506005E-1,2.567199707E0,7.909176350E0
8.584743770E-1,8.422735929E-1,2.606980324E0,9.822835922E0
8.751403140E-1,2.575873613E0,2.564806700E0,1.053230762E1
8.918062520E-1,2.408675194E0,1.448255897E0,1.091127110E1
9.084721890E-1,1.205085278E0,-7.202396393E-1,1.154806137E1
9.251381270E-1,1.779661894E0,7.456633449E-1,1.370967770E1
9.418040640E-1,8.168498278E-1,1.799701691E0,1.239571857E1
9.584700020E-1,2.410768867E-1,2.180160522E0,8.249555588E0
9.751359390E-1,3.050848961E0,3.597010612E0,5.423332691E0
9.918018770E-1,1.732702732E0,1.989332914E0,5.210371494E0
1.008467814E0,8.063812256E-1,1.763211131E0,7.017550468E0
1.025133752E0,1.550848126E0,2.367997169E0,1.032981491E1
1.041799689E0,2.257628202E0,2.765803814E0,1.136231804E1
1.058465627E0,2.296511650E0,2.478066921E0,1.078056335E1
1.075131564E0,1.439880967E0,2.006680965E0,9.834799767E0
1.091797502E0,1.370489120E0,5.569294691E-1,9.534799576E0
1.108463439E0,2.252244234E0,-3.439682424E-1,1.042552853E1
1.125129377E0,2.373380899E0,9.122636318E-1,1.139880848E1
1.141795314E0,1.571785331E0,2.692224503E0,1.104407310E1
1.158461252E0,1.026221752E0,4.111168385E0,1.022572803E1
1.175127189E0,1.473679662E0,3.999603033E0,9.073583603E0
1.191793127E0,1.891526341E0,2.100000858E0,8.255537033E0
1.208459064E0,2.239981174E0,1.884347759E-2,8.213363647E0
1.225125002E0,2.830709219E0,-5.371887088E-1,9.074481010E0
1.241790939E0,3.303590775E0,1.321735382E0,1.042851925E1
1.258456877E0,3.553640842E0,2.346461773E0,1.008694363E1
1.275122814E0,3.492623806E0,2.139482498E0,9.409774780E0
1.291788752E0,2.970091105E0,2.126920223E0,8.947361946E0
1.308454689E0,2.824727058E0,2.489133835E0,9.017651558E0
1.325120627E0,2.668595552E0,2.510669231E0,8.789435387E0
1.341786564E0,2.040479422E0,2.530110836E0,8.455039024E0
1.358452502E0,1.847558141E0,2.458625317E0,8.649156570E0
1.375118439E0,2.791227579E0,2.038385868E0,9.683155060E0
1.391784377E0,2.991028309E0,2.298904419E0,9.881460190E0
1.408450314E0,2.935096025E0,2.505285263E0,9.271888733E0
1.425116252E0,2.959622622E0,2.439482689E0,8.865707397E0
1.441782189E0,2.801397085E0,2.629412889E0,9.461818695E0
1.458448127E0,2.883052111E0,2.333002090E0,9.877272606E0
1.475114064E0,3.104986429E0,2.245664120E0,9.636794090E0
1.491780002E0,2.984447956E0,2.256431818E0,9.289834976E0
1.508445939E0,2.849552631E0,1.969891191E0,9.332905769E0
1.525111877E0,2.506481647E0,1.759921074E0,9.267701149E0
1.541777814E0,2.037787676E0,1.680359721E0,8.896514893E0
1.558443752E0,1.818246126E0,1.976471543E0,8.613563538E0
1.575109689E0,2.001296997E0,2.345265388E0,8.792427063E0
1.591775627E0,2.450549603E0,2.217847586E0,9.097212791E0
1.608441564E0,2.260320187E0,2.258824587E0,9.323633194E0
1.625107502E0,2.249253273E0,2.055135489E0,9.049057007E0
1.641773439E0,2.102692842E0,1.232602715E0,9.088239670E0
1.658439377E0,2.162513494E0,8.859425783E-1,8.918349266E0
1.675105314E0,2.530110836E0,1.420738459E0,9.221639633E0
1.691771252E0,3.470191002E0,1.590329766E0,9.372985840E0
1.708437189E0,4.234099865E0,1.352243900E0,9.407083511E0
1.725103127E0,4.114757538E0,1.568196177E0,9.436993599E0
1.741769064E0,3.370888948E0,2.592025042E0,9.065507889E0
1.758435002E0,3.746263027E0,2.893520832E0,9.006883621E0
1.775100939E0,4.568197727E0,2.243570328E0,9.699007034E0
1.791766877E0,4.964807987E0,1.931606054E0,9.465108871E0
1.808432814E0,4.664807796E0,1.872682810E0,9.639784813E0
1.825098752E0,3.996612072E0,1.343868971E0,1.096929741E1
1.841764689E0,3.211168051E0,1.081256747E0,1.218395424E1
1.858430627E0,2.218744755E0,1.278365493E0,1.277886963E1
1.875096564E0,1.350748420E0,1.134796143E0,1.218096256E1
1.891762502E0,1.331605792E0,8.907282352E-1,1.167667580E1
1.908428439E0,2.128116608E0,9.314061999E-1,1.097557831E1
1.925094377E0,2.926721096E0,1.345364571E0,9.628718376E0
1.941760314E0,3.869792461E0,1.055832982E0,8.096115112E0
1.958426252E0,3.799204111E0,1.257129192E0,7.276872635E0
1.975092189E0,3.518944740E0,1.745265007E0,7.396513939E0
1.991758127E0,2.915953398E0,2.316551447E0,7.739883900E0
2.008424064E0,2.590529680E0,2.758326292E0,7.514958382E0
2.025090002E0,2.840579510E0,2.935694218E0,7.072286606E0
2.041755939E0,3.393321514E0,2.913560629E0,6.567998886E0
2.058421877E0,4.031308174E0,2.764009237E0,5.964409351E0
2.075087814E0,4.619942188E0,2.641377211E0,9.200403214E0
2.091753752E0,4.059722900E0,2.867797852E0,1.091336536E1
2.108419689E0,3.716352701E0,3.018844843E0,1.129741287E1
2.125085627E0,2.810070992E0,2.753540754E0,1.078744221E1
2.141751564E0,1.655833244E0,3.107379198E0,1.022124100E1
2.158417502E0,1.317847013E0,3.692125320E0,9.294919968E0
2.175083439E0,2.171187401E0,3.995714664E0,8.825029373E0
2.191749377E0,3.186641455E0,4.346861362E0,7.788338661E0
2.208415314E0,3.266801119E0,4.730610371E0,7.488936901E0
2.225081252E0,3.404089212E0,4.644767761E0,6.496812344E0
2.241747189E0,3.719642878E0,4.743471622E0,6.697809696E0
2.258413127E0,3.771088600E0,4.488038063E0,7.713263988E0
2.275079064E0,3.410968781E0,4.451846600E0,8.068597794E0
2.291745002E0,3.118446112E0,4.286741734E0,8.376075745E0
2.308410939E0,3.075674295E0,4.183252335E0,8.680861473E0
2.325076877E0,3.098705292E0,4.038486481E0,8.729914665E0
2.341742814E0,2.990430117E0,3.976871252E0,8.467302322E0
2.358408752E0,2.644966364E0,4.021138668E0,8.252845764E0
2.375074689E0,2.467897415E0,3.961018801E0,8.521739006E0
2.391740627E0,2.487339020E0,3.932903051E0,9.100502968E0
2.408406564E0,2.663211584E0,3.895515203E0,9.379864693E0
2.425072502E0,2.557927370E0,3.961616993E0,9.344869614E0
2.441738439E0,2.040180445E0,4.074677944E0,9.308678627E0
2.458404377E0,1.528116345E0,4.151247978E0,9.101400375E0
2.475070314E0,1.437787294E0,4.027718544E0,8.968000412E0
2.491736252E0,1.572084427E0,3.942474365E0,8.667700768E0
2.508402189E0,1.774278045E0,3.949353695E0,8.498408318E0
2.525068127E0,1.797608018E0,3.954438448E0,8.535497665E0
2.541734064E0,1.678265929E0,3.985545158E0,8.574978828E0
2.558400002E0,1.672582984E0,3.896711588E0,8.670392990E0
2.575065939E0,1.758425593E0,4.025625229E0,8.810971260E0
2.591731877E0,1.908874273E0,4.109074593E0,8.658727646E0
2.608397814E0,1.912164450E0,4.120141506E0,8.546564102E0
2.625063752E0,1.882852316E0,4.117748737E0,8.583951950E0
2.641729689E0,1.811964989E0,3.994219303E0,8.793025017E0
2.658395627E0,1.763510346E0,3.876971006E0,9.048757553E0
2.675061564E0,1.717747569E0,3.829114437E0,9.286544800E0
2.691727502E0,1.638485312E0,3.817748547E0,9.475278854E0
2.708393439E0,1.551446438E0,3.962813377E0,9.394520760E0
2.725059377E0,1.441376567E0,4.117150307E0,8.969495773E0
2.741725314E0,1.418943882E0,4.240081787E0,8.505886078E0
2.758391252E0,1.519741535E0,4.209573269E0,8.253742218E0
2.775057189E0,1.540678620E0,4.163511276E0,8.308777809E0
2.791723127E0,1.599601984E0,4.143770695E0,8.544171333E0
2.808389064E0,1.680957913E0,4.178167343E0,8.701798439E0
2.825055002E0,1.640279889E0,4.245465755E0,8.578269005E0
2.841720939E0,1.571187139E0,4.234996796E0,8.443673134E0
2.858386877E0,1.679761529E0,4.110869408E0,8.600402832E0
2.875052814E0,1.865205288E0,3.945166349E0,8.794221878E0
2.891718752E0,1.836491346E0,3.914657831E0,8.968000412E0
2.908384689E0,1.536491275E0,3.982853174E0,9.125627518E0
2.925050627E0,1.300199986E0,4.061218262E0,9.288937569E0
2.941716564E0,1.275673628E0,4.005884171E0,9.395418167E0
2.958382502E0,1.493719578E0,3.947260141E0,9.353842735E0
2.975048439E0,1.704886079E0,3.905983925E0,9.177073479E0
2.991714377E0,1.731805444E0,4.037888050E0,8.968298912E0
3.008380314E0,1.716551185E0,4.166502476E0,8.732007980E0
3.025046252E0,1.637887120E0,4.334299088E0,8.678468704E0
3.041712189E0,1.658226132E0,4.255635262E0,8.781359673E0
3.058378127E0,1.716850281E0,4.125226021E0,8.939286232E0
3.075044064E0,1.807777524E0,4.010969162E0,9.142676353E0
3.091710002E0,1.824527264E0,3.922434568E0,9.318549156E0
3.108375939E0,1.764407635E0,3.855734587E0,9.494720459E0
3.125041877E0,1.611566067E0,3.831208229E0,9.564111710E0
3.141707814E0,1.507478237E0,3.731307745E0,9.591928482E0
3.158373752E0,1.394118309E0,3.658924818E0,9.502496719E0
3.175039689E0,1.364507079E0,3.614657640E0,9.316454887E0
3.191705627E0,1.414158225E0,3.597010612E0,9.078668594E0
3.208371564E0,1.386341572E0,3.620041609E0,8.819346428E0
3.225037502E0,1.235294700E0,3.726821184E0,8.529814720E0
3.241703439E0,1.146461129E0,3.877269983E0,8.214859009E0
3.258369377E0,1.182652593E0,3.967599154E0,8.121539116E0
3.275035314E0,1.214656591E0,3.947858334E0,8.150851250E0
3.291701252E0,1.251745343E0,3.902394533E0,8.432605743E0
3.308367189E0,1.303490162E0,3.852444410E0,8.833403587E0
3.325033127E0,1.233201027E0,3.829413652E0,9.190532684E0
3.341699064E0,1.175175071E0,3.803989887E0,9.386445045E0
3.358365002E0,1.138684511E0,3.872484446E0,9.554242134E0
3.375030939E0,1.103988528E0,3.906582117E0,9.571589470E0
3.391696877E0,1.240678549E0,3.940679789E0,9.405886650E0
3.408362814E0,1.450050473E0,4.035196304E0,9.244969368E0
3.425028752E0,1.672283888E0,4.066901207E0,9.084052086E0
3.441694689E0,1.801197290E0,4.028316975E0,8.968598366E0
3.458360627E0,1.766800404E0,3.958326817E0,8.922237396E0
3.475026564E0,1.627418518E0,3.924528122E0,9.017052650E0
3.491692502E0,1.440778375E0,3.909872293E0,9.032606125E0
3.508358439E0,1.336989641E0,3.929014683E0,9.027820587E0
3.525024377E0,1.341476202E0,3.861716747E0,8.952446938E0
3.541690314E0,1.328614831E0,3.755535126E0,9.017052650E0
3.558356252E0,1.362712502E0,3.599702597E0,9.255737305E0
3.575022189E0,1.368694544E0,3.502494097E0,9.532406807E0
3.591688127E0,1.265205026E0,3.492025614E0,9.533903122E0
3.608354064E0,1.065703392E0,3.553939819E0,9.340981483E0
3.625020002E0,9.810572863E-1,3.637090445E0,9.076574326E0
3.641685939E0,1.063908815E0,3.712165117E0,8.785846710E0
3.658351877E0,1.106979609E0,3.733102322E0,8.574680328E0
3.675017814E0,1.169791222E0,3.697808266E0,8.554341316E0
3.691683752E0,1.196411371E0,3.679862022E0,8.673683167E0
3.708349689E0,1.254138112E0,3.681058645E0,8.954839706E0
3.725015627E0,1.421336651E0,3.719044685E0,9.111868858E0
3.741681564E0,1.970788598E0,3.685245991E0,9.360423088E0
3.758347502E0,9.008977413E-1,3.876372576E0,8.805587769E0
3.775013439E0,1.024128079E0,3.947858334E0,8.883354187E0
3.791679377E0,1.014556766E0,3.976273060E0,9.098110199E0
3.808345314E0,1.588834286E0,3.804588079E0,9.347262383E0
3.825011252E0,1.732104540E0,3.881457329E0,9.460323334E0
3.841677189E0,1.698604941E0,3.847658873E0,9.212067604E0
3.858343127E0,1.521536112E0,3.977469444E0,9.189335823E0
3.875009064E0,1.453938842E0,4.013361931E0,9.294620514E0
3.891675002E0,1.608275890E0,3.898805380E0,9.201599121E0
3.908340939E0,1.587039590E0,3.952045679E0,9.159725189E0
3.925006877E0,1.637887120E0,3.998107433E0,8.787342072E0
3.941672814E0,1.480558991E0,4.060021877E0,8.695816994E0
3.958338752E0,1.396511078E0,4.116851330E0,8.862117767E0
3.975004689E0,1.474277854E0,4.034597874E0,9.017950058E0
3.991670627E0,1.576570988E0,3.919144392E0,9.176774025E0
4.008336564E0,1.749751568E0,3.881756544E0,9.273982048E0
4.025002502E0,1.831107497E0,3.838087559E0,9.143274307E0
4.041668439E0,1.555035591E0,3.950550079E0,9.009276390E0
4.058334377E0,1.256231904E0,4.100400925E0,8.847162247E0
4.075000314E0,1.250249863E0,4.165007114E0,8.756235123E0
4.091666252E0,1.641476393E0,4.070490360E0,8.777471542E0
4.108332189E0,2.599801779E0,4.112065792E0,8.827122688E0
4.124998127E0,2.545065880E0,3.651746511E0,8.671588898E0
4.141664064E0,1.691725612E0,3.918546200E0,8.309973717E0
4.158330002E0,1.702792406E0,4.291527271E0,9.092127800E0
4.174995939E0,1.895115495E0,4.136591911E0,9.293723106E0
4.191661877E0,2.041975021E0,3.982254982E0,9.186644554E0
4.208327814E0,1.971386790E0,4.031906128E0,8.859724998E0
4.224993752E0,1.800299883E0,4.042674065E0,8.510671616E0
4.241659689E0,1.776072621E0,3.858426571E0,8.429615021E0
4.258325627E0,1.772782445E0,3.911965847E0,8.732605934E0
4.274991564E0,1.937289000E0,3.913760424E0,9.262018204E0
4.291657502E0,1.749452472E0,3.940081596E0,9.023334503E0
4.308323439E0,1.625923038E0,4.115355968E0,8.638688087E0
4.324989377E0,1.671984792E0,4.138685703E0,8.091927528E0
4.341655314E0,1.835294962E0,4.142574310E0,7.769495010E0
4.358321252E0,2.127219439E0,4.041477680E0,7.958827019E0
4.374987189E0,2.298605204E0,3.981357813E0,8.481658936E0
4.391653127E0,2.126920223E0,4.039981842E0,8.815457344E0
4.408319064E0,1.943869352E0,4.082753658E0,8.976374626E0
4.424985002E0,2.101795673E0,4.082155228E0,8.919844627E0
4.441650939E0,2.464607239E0,3.880859137E0,8.837890625E0
4.458316877E0,2.566003084E0,3.812663794E0,8.982057571E0
4.474982814E0,2.337488651E0,4.004687786E0,9.119645119E0
4.491648752E0,1.985743642E0,4.188037872E0,8.689834595E0
4.508314689E0,1.866700768E0,4.366302967E0,8.003393173E0
4.524980627E0,2.060220242E0,4.393521309E0,7.810472012E0
4.541646564E0,2.268096685E0,4.263411522E0,8.433204651E0
4.558312502E0,2.536391973E0,4.093222141E0,9.040383339E0
4.574978439E0,2.478066921E0,4.032504559E0,9.387641907E0
4.591644377E0,2.196910381E0,4.109972000E0,9.288937569E0
4.608310314E0,2.055733681E0,4.130311012E0,8.869595528E0
4.624976252E0,1.858325839E0,4.170390606E0,8.620741844E0
4.641642189E0,1.673181176E0,4.235595226E0,8.329116821E0
4.658308127E0,1.866102576E0,4.243969917E0,7.876873016E0
4.674974064E0,2.053340912E0,4.340879440E0,7.540382385E0
4.691640002E0,2.201695919E0,4.376472473E0,7.065407276E0
4.708305939E0,2.341975212E0,4.342973232E0,6.722635269E0
4.724971877E0,2.667997360E0,4.160520554E0,7.295117855E0
4.741637814E0,2.766402006E0,3.801896095E0,8.429615021E0
4.758303752E0,2.435594320E0,3.680460215E0,9.590133667E0
4.774969689E0,2.097907305E0,3.855136395E0,9.934102058E0
4.791635627E0,1.679462433E0,4.083052635E0,8.888139725E0
4.808301564E0,1.011864901E0,4.214059830E0,7.509275436E0
4.824967502E0,6.858428121E-1,4.255934238E0,6.632306099E0
4.841633439E0,5.371887088E-1,4.200301170E0,6.409175396E0
4.858299377E0,5.024927258E-1,4.139583111E0,6.478866577E0
4.874965314E0,-7.537391037E-2,4.163810730E0,5.959922791E0
4.891631252E0,-6.586244106E-1,3.827020645E0,5.675775528E0
4.908297189E0,-1.174875975E0,3.085245609E0,5.144568920E0
4.924963127E0,-1.302293777E0,2.415255308E0,4.031906128E0
4.941629064E0,-1.207179070E0,2.083849430E0,2.851347208E0
4.958295002E0,-1.760818362E0,1.707877159E0,1.401894927E0
4.974960939E0,-3.208775282E0,1.251147151E0,-7.899305820E-1
4.991626877E0,-4.219144344E0,9.999007583E-1,-1.551147223E0
5.008292814E0,-4.479363918E0,1.344766378E0,-7.716853023E-1
5.024958752E0,-2.196012974E0,1.429113269E0,-1.686939895E-1
5.041624689E0,1.336391449E0,1.920539260E0,7.752745152E-1
5.058290627E0,3.116053343E0,3.755834341E0,4.968098104E-1
5.074956564E0,8.330612183E0,7.589136124E0,3.252743244E0
5.091622502E0,1.804218102E1,5.858826160E0,1.598285866E1
5.108288439E0,2.418904495E1,-3.534198999E0,3.167528915E1
5.124954377E0,2.228136635E1,-5.144269466E0,3.718326569E1
5.141620314E0,1.678056526E1,-8.237890244E0,2.729522705E1
5.158286252E0,7.342675209E0,-7.816454411E0,1.134407330E1
5.174952189E0,6.449853420E0,-1.128245831E1,2.249253243E-1
5.191618127E0,1.623440361E1,-1.845584106E1,-5.271687508E0
5.208284064E0,2.846501732E1,-2.656481743E1,-7.769196033E0
5.224950002E0,2.966023254E1,-2.732154846E1,-1.189053345E1
5.241615939E0,2.485484695E1,-2.591157722E1,-1.864098549E1
5.258281877E0,2.407807732E1,-1.742543221E1,-1.610429382E1
5.274947814E0,4.622933197E1,-2.111516380E1,-1.494317770E0
5.291613752E0,7.165427399E1,-2.833819771E1,2.762812805E1
5.308279689E0,5.373501968E1,-1.315543938E1,5.893342590E1
5.324945627E0,1.727976799E1,6.740282059E0,5.695336533E1
5.341611564E0,-4.867898464E0,1.912433624E1,3.242214966E1
5.358277502E0,-1.474098396E1,3.045524788E1,1.333729458E1
5.374943439E0,-1.450110340E1,3.228246689E1,1.055832958E1
5.391609377E0,-1.063699436E1,2.429881477E1,1.624576950E1
5.408275314E0,-1.566880131E1,1.523360634E1,2.088006973E1
5.424941252E0,-2.248326111E1,1.001755238E1,2.185723877E1
5.441607189E0,-2.161167526E1,8.651249886E0,1.891855240E1
5.458273127E0,-1.376650715E1,1.023111153E1,1.465603828E1
5.474939064E0,-7.304090858E-1,1.425883007E1,1.699023628E1
5.491605002E0,1.483938885E1,1.761745644E1,3.125534821E1
5.508270939E0,2.930101013E1,1.462403488E1,5.394678497E1
5.524936877E0,3.831507111E1,9.815059662E0,7.094150543E1
5.541602814E0,4.605615234E1,4.211667061E0,6.609544373E1
5.558268752E0,5.626991653E1,-5.147260666E0,5.230590820E1
5.574934689E0,6.046782303E1,-1.128455162E1,3.831477356E1
5.591600627E0,5.533551788E1,-1.471077442E1,2.582752991E1
5.608266564E0,4.469673157E1,-2.040987968E1,2.448425865E1
5.624932502E0,3.270180893E1,-2.695395088E1,1.996451569E1
5.641598439E0,2.312603188E1,-3.209074402E1,7.772785187E0
5.658264377E0,1.667976761E1,-3.617349625E1,-3.257529020E0
5.674930314E0,7.366304398E0,-3.689373779E1,-1.671655846E1
5.691596252E0,-9.552147865E0,-3.538027573E1,-3.039064217E1
5.708262189E0,-1.779542160E1,-3.569552994E1,-3.727030563E1
5.724928127E0,-1.245284748E1,-4.021318054E1,-3.361167908E1
5.741594064E0,3.138186932E0,-4.552703857E1,-2.120519447E1
5.758260002E0,2.351426888E1,-4.959453964E1,-3.821337700E0
5.774925939E0,3.073251724E1,-4.481846619E1,9.214161873E0
5.791591877E0,3.776143265E1,-3.959732819E1,2.230589294E1
5.808257814E0,4.830570602E1,-2.543959236E1,2.931985474E1
5.824923752E0,6.438577271E1,-1.548993778E1,2.399073982E1
5.841589689E0,7.500990295E1,-5.280361176E0,2.132393837E1
5.858255627E0,6.558786774E1,6.066702843E0,1.722592926E1
5.874921564E0,4.770660400E1,1.268435287E1,1.433570004E1
5.891587502E0,2.812673378E1,1.651017761E1,1.113081264E1
5.908253439E0,7.461120129E0,2.448904419E1,1.204846001E1
5.924919377E0,-2.451745987E0,2.786591530E1,2.010240173E1
5.941585314E0,-3.841377735E0,2.384567451E1,2.918017387E1
5.958251252E0,-4.869394302E0,2.332433701E1,2.952713203E1
5.974917189E0,-6.435197353E0,2.097368813E1,2.634407997E1
5.991583127E0,-9.517452240E0,1.917847443E1,2.082892227E1
6.008249064E0,-1.110419273E1,1.770838356E1,1.315274811E1
6.024915002E0,-1.086311531E1,1.975903130E1,1.332742405E1
6.041580939E0,-6.782754898E0,2.170200348E1,2.380080795E1
6.058246877E0,4.118945122E0,2.301686096E1,4.273431778E1
6.074912814E0,2.318286133E1,1.984218216E1,5.576413345E1
6.091578752E0,4.091606903E1,1.304866028E1,5.496852112E1
6.108244689E0,5.225595474E1,6.745666027E0,4.698785782E1
6.124910627E0,5.780401611E1,1.804487348E0,3.974448395E1
6.141576564E0,5.559543991E1,-7.520641804E0,3.593899918E1
6.158242502E0,4.844957352E1,-1.634597015E1,2.913201714E1
6.174908439E0,3.799981689E1,-2.195564270E1,1.726930046E1
6.191574377E0,2.627050018E1,-2.335604286E1,8.745467186E0
6.208240314E0,1.543579960E1,-2.520479774E1,-7.402794957E-1
6.224906252E0,9.117850304E0,-2.863012314E1,-8.927620888E0
6.241572189E0,4.488337040E0,-3.367389297E1,-1.407069492E1
6.258238127E0,-6.282056808E0,-3.631616974E1,-1.462463284E1
6.274904064E0,-1.507209110E1,-3.591896057E1,-1.591107464E1
6.291570002E0,-1.346172142E1,-3.574906921E1,-1.597298813E1
6.308235939E0,1.902294010E-1,-3.947439575E1,-1.106321526E1
6.324901877E0,1.881835365E1,-4.207419586E1,-6.017948985E-1
6.341567814E0,2.775464821E1,-3.653182220E1,5.816951752E0
6.358233752E0,3.291387177E1,-2.731167793E1,9.390931129E0
6.374899689E0,4.483700943E1,-1.800150299E1,1.255424309E1
6.391565627E0,5.434459305E1,-9.000602722E0,1.146042442E1
6.408231564E0,5.345386505E1,5.605186820E-1,1.165005493E1
6.424897502E0,5.239414215E1,7.167101860E0,1.832513237E1
6.441563439E0,5.107120895E1,1.139521980E1,2.249283218E1
6.458229377E0,4.204428482E1,1.519262886E1,1.791805458E1
6.474895314E0,2.079332924E1,2.225953102E1,6.523731709E0
6.491561252E0,2.255534410E0,2.923490906E1,4.600500584E0
6.508227189E0,-2.594717026E0,2.879283524E1,1.459412479E1
6.524893127E0,-2.413759947E0,2.752493858E1,2.519881439E1
6.541559064E0,-5.319244862E0,2.748545647E1,2.808396149E1
6.558225002E0,-1.318385410E1,2.631327248E1,2.362014961E1
6.574890939E0,-1.749123383E1,2.554427910E1,2.016312027E1
6.591556877E0,-1.186122227E1,2.293789673E1,2.554906464E1
6.608222814E0,-2.784647346E-1,1.801915169E1,3.470789337E1
6.624888752E0,1.182562828E1,1.520309734E1,4.305555344E1
6.641554689E0,2.905305481E1,1.205982590E1,4.465186691E1
6.658220627E0,4.816691971E1,6.138188362E0,4.041686630E1
6.674886564E0,5.395545959E1,1.368993640E0,3.661108398E1
6.691552502E0,5.256582642E1,-4.793421745E0,3.316332626E1
6.708218439E0,5.438227844E1,-1.285514069E1,2.205374908E1
6.724884377E0,4.748257446E1,-1.630648804E1,5.598008633E0
6.741550314E0,3.090539742E1,-1.543490219E1,2.020140409E0
6.758216252E0,1.860359764E1,-1.788874245E1,5.511867046E0
6.774882189E0,1.188574791E1,-2.365095901E1,6.640082836E0
6.791548127E0,7.189235687E0,-2.908535767E1,4.671388149E0
6.808214064E0,4.071686745E0,-3.218346405E1,2.018345833E0
6.824880002E0,8.099704385E-1,-3.449463272E1,-8.227122307E0
6.841545939E0,-4.089334011E0,-3.271796036E1,-1.916680908E1
6.858211877E0,-7.472784996E0,-2.863101959E1,-2.373111725E1
6.874877814E0,-7.002595425E0,-2.607488823E1,-2.034886360E1
6.891543752E0,-1.289133191E0,-2.505943298E1,-1.289701462E1
6.908209689E0,9.634101868E0,-2.200469589E1,-1.175474167E0
6.924875627E0,2.332403946E1,-1.420110321E1,7.541578770E0
6.941541564E0,3.339931870E1,-2.226820469E0,5.302793980E0
6.958207502E0,4.067319870E1,1.152413273E1,-5.228317380E-1
6.974873439E0,5.674459076E1,1.422951794E1,2.018645048E0
6.991539377E0,6.146832275E1,1.409761333E1,9.858728409E0
7.008205314E0,4.224977112E1,1.559163189E1,1.467996693E1
7.024871252E0,1.212114239E1,1.949941063E1,1.260180092E1
7.041537189E0,-8.247461319E0,2.426142693E1,8.236095428E0
7.058203127E0,-1.191266727E1,2.633570480E1,2.826820850E0
7.074869064E0,-5.222634315E0,2.719233513E1,1.468594968E-1
7.091535002E0,-3.248256743E-1,2.765684319E1,-3.780659735E-1
7.108200939E0,-5.037190914E0,2.739333344E1,5.714957714E0
7.124866877E0,-1.172094250E1,2.483211517E1,1.681915092E1
7.141532814E0,-8.545068741E0,2.182044792E1,2.911437035E1
7.158198752E0,2.549851656E0,1.805624008E1,3.634817123E1
7.174864689E0,1.407009602E1,1.639053535E1,3.596472168E1
7.191530627E0,2.886551666E1,1.597089481E1,2.890021324E1
7.208196564E0,4.341926193E1,1.469462299E1,2.263819504E1
7.224862502E0,4.603671265E1,1.361665630E1,2.022294044E1
7.241528439E0,4.328885269E1,7.746763229E0,1.715324783E1
7.258194377E0,3.887529373E1,1.310070395E0,8.162815094E0
7.274860314E0,3.091257668E1,-5.490630627E0,-3.975076675E-1
7.291526252E0,2.035035896E1,-1.034656525E1,8.144569993E-1
7.308192189E0,1.163629627E1,-1.624846268E1,6.105885029E0
7.324858127E0,6.136991978E0,-2.333002090E1,7.464111328E0
7.341524064E0,3.197110176E0,-2.972573662E1,4.249952316E0
7.358190002E0,1.632503271E0,-3.229443359E1,-2.449054003E0
7.374855939E0,1.405783296E0,-3.462713623E1,-1.318325615E1
7.391521877E0,-1.225125194E0,-3.251038361E1,-2.119801521E1
7.408187814E0,-4.896911621E0,-2.875425148E1,-2.132692909E1
7.424853752E0,-2.308176517E0,-2.746182632E1,-1.293769264E1
7.441519689E0,9.081359863E0,-2.621516609E1,-1.816750646E0
7.458185627E0,2.491975212E1,-2.110439682E1,5.788238049E0
7.474851564E0,3.213082123E1,-9.632008553E0,3.762713671E0
7.491517502E0,4.148705673E1,1.363310695E0,2.893221617E0
7.508183439E0,6.154907990E1,8.531310081E0,8.314759254E0
7.524849377E0,7.389754486E1,1.234367466E1,9.929018021E0
7.541515314E0,5.616343689E1,1.902353859E1,8.526225090E0
7.558181252E0,2.303121758E1,2.793799973E1,8.198408127E0
7.574847189E0,2.477169752E0,3.199861908E1,1.161835003E1
7.591513127E0,-2.637189627E0,3.062424088E1,1.125673485E1
7.608179064E0,-3.879064560E0,2.891157913E1,9.471988678E0
7.624845002E0,-7.842775345E0,2.912603569E1,1.045155048E1
7.641510939E0,-1.159771252E1,2.596182632E1,1.290897942E1
7.658176877E0,-1.414576912E1,2.239711952E1,1.817737579E1
7.674842814E0,-9.179166794E0,1.753789520E1,2.523141670E1
7.691508752E0,2.231606245E0,1.434676647E1,2.976192856E1
7.708174689E0,1.486451340E1,1.562423420E1,2.695066071E1
7.724840627E0,3.284448242E1,1.656102371E1,1.834427643E1
7.741506564E0,4.495306015E1,1.670100403E1,1.218515015E1
7.758172502E0,4.084219360E1,1.695613861E1,9.609575272E0
7.774838439E0,3.909034729E1,1.112363434E1,1.109761238E1
7.791504377E0,3.704179001E1,1.689631939E0,9.402596474E0
7.808170314E0,2.427099800E1,-4.572384834E0,7.837989807E0
7.824836252E0,1.213579845E1,-8.003992081E0,6.498906136E0
7.841502189E0,6.474678993E0,-1.342642689E1,2.627319336E0
7.858168127E0,3.582055569E0,-1.950389671E1,-5.593222976E-1
7.874834064E0,1.121635586E-1,-2.436371994E1,-3.204886913E0
7.891500002E0,-1.106381416E0,-2.856820869E1,-3.898207188E0
7.908165939E0,-1.441974759E0,-3.081207848E1,-6.638288021E0
7.924831877E0,-1.398006678E0,-3.045046234E1,-1.203679562E1
7.941497814E0,2.346760750E0,-2.898426056E1,-1.499193096E1
7.958163752E0,6.901797771E0,-2.618286324E1,-1.403629780E1
7.974829689E0,1.558056545E1,-2.107598114E1,-8.869894028E0
7.991495627E0,3.060150909E1,-1.375005627E1,1.025922745E-1
8.008161564E0,4.054099655E1,6.044868231E-1,7.669594765E0
8.024827502E0,5.673262787E1,1.224526978E1,1.293529987E1
8.041493439E0,7.139943695E1,1.458754444E1,1.439193058E1
8.058159377E0,5.938447571E1,1.677697754E1,1.152921772E1
8.074825314E0,2.923999405E1,1.814148331E1,7.679764271E0
8.091491252E0,3.624228954E0,1.963251114E1,4.846064091E0
8.108157189E0,-8.783154488E0,1.988016891E1,3.132204771E0
8.124823127E0,-1.164736366E1,2.018076706E1,2.880659342E0
8.141489064E0,-1.033729267E1,2.157398796E1,4.790132046E0
8.158155002E0,-9.232706070E0,2.221855545E1,5.710770130E0
8.174820939E0,-1.168325520E1,2.170110703E1,7.258926392E0
8.191486877E0,-1.762822342E1,1.950180435E1,1.108235836E1
8.208152814E0,-1.929781532E1,1.722054672E1,2.040329933E1
8.224818752E0,-1.133480072E1,1.556890011E1,3.166930771E1
8.241484689E0,6.467201233E0,1.473769379E1,3.688446426E1
8.258150627E0,2.666382027E1,1.635374641E1,2.917718124E1
8.274816564E0,4.461986160E1,1.989661980E1,1.962264061E1
8.291482502E0,5.245515823E1,2.258256340E1,1.906421661E1
8.308148439E0,5.235346222E1,1.466620827E1,2.141337013E1
8.324814377E0,4.485316086E1,6.368198395E0,1.375214958E1
8.341480314E0,3.722364807E1,-2.678765059E0,4.226023674E0
8.358146252E0,2.358754921E1,-1.008634567E1,1.658226132E0
8.374812189E0,1.008963585E1,-1.571516228E1,4.959125042E0
8.391478127E0,7.459624410E-1,-2.095005989E1,6.785147667E0
8.408144064E0,-3.970290899E0,-2.670719147E1,2.398206472E0
8.424810002E0,-3.798007727E0,-3.078844833E1,-5.757131100E0
8.441475939E0,-1.033699393E0,-3.401098251E1,-1.323888969E1
8.458141877E0,-2.869891644E0,-3.435375595E1,-1.795663834E1
8.474807814E0,-8.044670105E0,-3.263241959E1,-2.019123650E1
8.491473752E0,-4.660919189E0,-3.252563858E1,-1.643091583E1
8.508139689E0,7.628916740E0,-3.569941711E1,-9.076574326E0
8.524805627E0,1.975963020E1,-3.672743607E1,-5.548357368E-1
8.541471564E0,3.018815041E1,-3.281068420E1,6.404090881E0
8.558137502E0,4.219533539E1,-2.373321152E1,6.310770512E0
8.574803439E0,5.861338806E1,-1.278993607E1,4.046861172E0
8.591469377E0,7.594430542E1,-3.777369738E0,1.266311646E1
8.608135314E0,7.581478882E1,4.842474937E0,2.284547424E1
8.624801252E0,5.159553909E1,1.599542141E1,2.453660202E1
8.641467189E0,1.868136406E1,2.785006332E1,1.810260010E1
8.658133127E0,3.695415497E0,3.675196075E1,1.221206951E1
8.674799064E0,4.628915310E0,4.093162537E1,9.301798820E0
8.691465002E0,3.851248026E0,4.180261230E1,1.050718307E1
8.708130939E0,-3.526422381E-1,4.101118469E1,1.821087646E1
8.724796877E0,-9.909276962E0,3.349682617E1,3.209014511E1
8.741462814E0,-1.150917816E1,2.779323387E1,4.661038971E1
8.758128752E0,5.533402413E-2,2.036680984E1,4.833950424E1
8.774794689E0,1.803141403E1,1.420768356E1,3.561746597E1
8.791460627E0,3.697628784E1,1.000110149E1,2.366292191E1
8.808126564E0,5.078586578E1,9.656535149E0,2.131885338E1
8.824792502E0,6.154100418E1,3.924528122E0,2.483331108E1
8.841458439E0,6.337570190E1,-5.414957523E0,2.516471672E1
8.858124377E0,6.039304733E1,-1.910938072E1,1.636301804E1
8.874790314E0,3.797768402E1,-2.380200577E1,8.067999840E0
8.891456252E0,2.060938072E1,-2.832174873E1,8.718847632E-1
8.908122189E0,1.242562866E1,-3.715036774E1,-2.574677229E0
8.924788127E0,6.270989895E0,-4.716881561E1,-3.634996653E0
8.941454064E0,-2.243869543E0,-5.464279556E1,-9.661619186E0
8.958120002E0,-1.191775227E1,-5.511119080E1,-2.370120811E1
8.974785939E0,-2.021366882E1,-5.207350540E1,-3.994458389E1
8.991451877E0,-1.207507992E1,-5.346134186E1,-4.095405579E1
9.008117814E0,1.006959629E1,-5.586193848E1,-2.218924332E1
9.024783752E0,4.221836472E1,-5.366443253E1,6.622735023E0
9.041449689E0,5.987171173E1,-4.418526459E1,2.356780815E1
9.058115627E0,5.260530853E1,-2.565255356E1,1.598794365E1
9.074781564E0,7.361608887E1,-2.036172485E1,2.086361885E1
9.091447502E0,7.839754486E1,-1.302084351E1,2.568246460E1
9.108113439E0,6.725207520E1,1.216152072E0,2.797897530E1
9.124779377E0,2.309492683E1,1.940280151E1,1.346381474E1
9.141445314E0,1.217976665E1,3.703162384E1,9.384650230E0
9.158111252E0,3.912923050E1,4.459144592E1,2.661506653E1
9.174777189E0,5.430451202E1,4.761597443E1,4.543940353E1
9.191443127E0,4.375096893E1,4.942404938E1,4.474637985E1
9.208109064E0,3.086950493E1,3.661915970E1,2.233999062E1
9.224775002E0,2.506780815E1,1.652961922E1,1.017517948E1
9.241440939E0,2.275634193E1,-5.982355595E0,2.114268112E1
9.258106877E0,1.398066425E1,-2.443969154E1,3.633471298E1
9.274772814E0,4.004687786E0,-3.062364388E1,3.006013298E1
9.291438752E0,5.139782906E0,-2.261127663E1,1.030439186E1
9.308104689E0,8.905488014E0,-3.340679550E1,1.196112275E0
9.324770627E0,3.900599957E0,-5.313143158E1,2.707987213E1
9.341436564E0,1.551446438E0,-5.670152283E1,4.154119492E1
9.358102502E0,1.757258987E1,-4.291677094E1,1.826082611E1
9.374768439E0,3.033082199E1,-2.278086853E1,-3.209523010E1
9.391434377E0,2.892713165E1,-1.017428207E1,-7.501110077E1
9.408100314E0,1.837089539E1,-1.909382820E1,-6.482665253E1
9.424766252E0,1.125912762E1,-2.202054787E1,-1.526680660E1
9.441432189E0,2.741068077E1,-4.255635262E0,1.781815338E1
9.458098127E0,4.233202362E1,1.193958664E1,1.698754501E1
9.474764064E0,4.630291367E1,2.287119675E1,1.945065737E0
9.491430002E0,5.392225647E1,2.483690071E1,1.459053516E1
9.508095939E0,4.282105637E1,2.332493591E1,3.588994598E1
9.524761877E0,2.499482727E1,2.102782631E1,4.536642075E1
9.541427814E0,5.859424591E0,1.827488327E1,4.185884476E1
9.558093752E0,-5.147260666E0,1.213729382E1,3.663531113E1
9.574759689E0,-9.363713264E0,5.116752148E0,2.691985321E1
9.591425627E0,-3.169891834E0,-3.561716557E0,1.953709793E1
9.608091564E0,3.459124327E0,-1.574746513E1,1.623051643E1
9.624757502E0,5.806782246E0,-2.570878601E1,1.296610737E1
9.641423439E0,3.986741543E0,-2.806242561E1,6.280261993E0
9.658089377E0,3.714258909E0,-2.992015266E1,-2.869891644E0
9.674755314E0,-8.994022012E-1,-2.720878601E1,-1.354128265E1
9.691421252E0,-6.331109524E0,-2.206481552E1,-9.439984322E0
9.708087189E0,-4.471587181E0,-1.673091507E1,6.104090691E0
9.724753127E0,1.524527073E0,-3.404687405E0,1.474128342E1
9.741419064E0,2.038894272E1,5.315655708E0,8.005785942E0
9.758085002E0,4.041477585E1,5.376074314E0,-8.767900467E0
9.774750939E0,4.211756516E1,5.967998981E0,-2.214497566E1
9.791416877E0,2.710290337E1,1.068514919E1,-2.630071068E1
9.808082814E0,1.602742577E1,8.579465866E0,-3.513979721E1
9.824748752E0,1.669801331E1,-1.076171994E0,-3.128824997E1
9.841414689E0,3.537548828E1,-2.206810570E1,1.364566898E1
9.858080627E0,3.444438171E1,-2.629442978E1,5.485246658E1
9.874746564E0,1.955803490E1,-2.086601257E1,5.335575867E1
9.891412502E0,8.217551231E0,-1.765005875E1,2.418575478E1
9.908078439E0,8.931210637E-1,-1.160399342E1,1.615454435E0
9.924744377E0,-3.626621723E0,-8.543273926E0,-6.346961975E0
9.941410314E0,1.465603858E-1,-1.166231823E1,2.009970903E0
9.958076252E0,1.266401410E0,-1.250189972E1,9.351749420E0
9.974742189E0,7.573283911E-1,-1.032443142E1,9.562915802E0
9.991408127E0,6.966105103E-1,-6.396014690E0,4.176073551E0
1.000807406E1,4.575973988E0,-4.846961498E0,-2.495414972E0
1.002474000E1,8.977272034E0,-3.263211966E0,-8.259724617E0
1.004140594E1,1.310070419E1,-3.024527788E0,-9.339186668E0
1.005807188E1,1.813819313E1,-4.140480518E0,-3.593122244E0
1.007473781E1,2.256371880E1,-4.491627216E0,4.723432064E0
1.009140375E1,2.316760826E1,-2.990729094E0,9.916155815E0
1.010806969E1,2.273660088E1,-1.698006749E0,1.076830006E1
1.012473563E1,2.175404739E1,-9.993025661E-1,6.357430458E0
1.014140156E1,2.131227303E1,-1.537986755E0,2.397608280E0
1.015806750E1,2.121985054E1,-2.010270119E0,2.749054193E0
1.017473344E1,1.980987930E1,-1.676471353E0,6.329913139E0
1.019139938E1,1.765514183E1,-1.416251898E0,1.058315563E1
1.020806531E1,1.436082458E1,-4.779663086E-1,1.414995670E1
1.022473125E1,9.072088242E0,1.414756417E0,1.465364552E1
1.024139719E1,5.771189213E0,5.024927616E0,1.213490105E1
1.025806313E1,5.814260006E0,9.294620514E0,1.050598717E1
1.027472906E1,6.002694607E0,1.142662525E1,1.241456223E1
1.029139500E1,3.800101519E0,1.252343559E1,1.587009716E1
1.030806094E1,-1.207777262E0,1.337677574E1,1.624636841E1
1.032472688E1,-4.025026798E0,1.413978767E1,1.443320751E1
1.034139281E1,-9.038887620E-1,1.511934853E1,1.549950886E1
1.035805875E1,9.524930000E0,1.465544033E1,2.265075874E1
1.037472469E1,2.311616135E1,1.209093285E1,3.650131226E1
1.039139063E1,3.552683640E1,9.374181747E0,4.715954208E1
1.040805656E1,4.577679062E1,5.586642742E0,4.525126648E1
1.042472250E1,4.623052979E1,3.522534132E0,3.936073685E1
1.044138844E1,4.573521423E1,-2.927020311E0,3.319742203E1
1.045805438E1,4.500779724E1,-1.255334568E1,2.704098892E1
1.047472031E1,3.432534027E1,-2.203640175E1,1.446790314E1
1.049138625E1,2.023879242E1,-2.908296394E1,9.002995491E-2
1.050805219E1,6.399903297E0,-3.217030334E1,-8.112565994E0
1.052471813E1,-5.847759247E0,-3.265156174E1,-1.435155201E1
1.054138406E1,-8.502595901E0,-3.383989716E1,-1.369442272E1
1.055805000E1,-6.331109524E0,-3.762564087E1,-1.169940758E1
1.057471594E1,-1.059930706E1,-3.852923203E1,-9.975976944E0
1.059138188E1,-1.551446342E1,-3.731337738E1,-7.389036179E0
1.060804781E1,-8.236095428E0,-4.052125549E1,-8.819046974E0
1.062471375E1,7.229614735E0,-4.554438782E1,-1.121037388E1
1.064137969E1,2.342094803E1,-4.472664261E1,-8.770293236E0
1.065804563E1,4.263262177E1,-3.690181351E1,-2.728116989E0
1.067471156E1,6.254598999E1,-2.781835747E1,-3.403790295E-1
1.069137750E1,7.418557739E1,-1.754507256E1,2.606382132E0
1.070804344E1,7.116523743E1,-6.713662148E0,1.289372444E1
1.072470938E1,6.535277557E1,3.802195072E0,2.095753670E1
1.074137531E1,5.884938049E1,1.189681530E1,1.473560047E1
1.075804125E1,4.579204559E1,1.784626961E1,1.471885085E0
1.077470719E1,2.736132812E1,2.109572220E1,-4.630411148E0
1.079137313E1,3.059522867E0,3.080818939E1,-2.561516523E0
1.080803906E1,-9.086145401E0,4.049583054E1,4.035495281E0
1.082470500E1,-4.353740692E0,3.762234879E1,1.036839962E1
1.084137094E1,1.120439172E0,3.505126190E1,1.430249882E1
1.085803688E1,8.165507019E-2,2.623460770E1,1.649970818E1
1.087470281E1,-4.078267097E0,2.139063835E1,1.832124519E1
1.089136875E1,-3.761816263E0,2.096890259E1,2.028036880E1
1.090803469E1,1.737787485E0,2.334048843E1,1.898794556E1
1.092470063E1,1.425793266E1,2.749742126E1,1.377488136E1
1.094136656E1,2.897289467E1,3.143540764E1,8.750851631E0
1.095803250E1,4.286233139E1,3.190500069E1,1.046231747E1
1.097469844E1,5.145884705E1,2.745704079E1,1.980150414E1
1.099136438E1,5.852574921E1,1.967139435E1,2.405444717E1
1.100803031E1,6.568238068E1,9.973882675E0,1.832244110E1
1.102469625E1,6.908198547E1,5.228317380E-1,8.626724243E0
1.104136219E1,6.456433868E1,-1.034925747E1,-2.921337366E0
1.105802813E1,4.513850403E1,-1.477089405E1,-9.110373497E0
1.107469406E1,2.659592438E1,-1.632144356E1,-1.089811039E1
1.109136000E1,1.259133148E1,-1.857608032E1,-1.218245864E0
1.110802594E1,3.413660526E0,-2.083729744E1,5.769992828E0
1.112469188E1,1.481755376E0,-2.649004173E1,4.730909348E0
1.114135781E1,2.788834810E0,-3.346123123E1,1.905284971E-1
1.115802375E1,-5.119443893E0,-3.635654831E1,-6.339484692E0
1.117468969E1,-1.839422607E1,-3.551845932E1,-8.770891190E0
1.119135563E1,-2.344308090E1,-3.769144440E1,-7.357929707E0
1.120802156E1,-1.195244789E1,-4.517021179E1,-3.628117323E0
1.122468750E1,1.304357529E1,-5.149085236E1,-9.284151793E-1
1.124135344E1,3.119014359E1,-4.883063126E1,-1.425823212E0
1.125801938E1,3.751527023E1,-3.934637833E1,6.744768620E-1
1.127468531E1,5.291876984E1,-2.875514793E1,4.784449100E0
1.129135125E1,7.594071198E1,-1.712004852E1,5.165206909E0
1.130801719E1,7.832635498E1,1.144068360E0,4.075874329E0
1.132468313E1,7.100730896E1,1.534218025E1,3.059821844E0
1.134134906E1,6.206832504E1,2.100120544E1,-8.207381964E-1
1.135801500E1,4.922843933E1,2.037668037E1,-3.113062143E0
1.137468094E1,2.295584297E1,2.212433815E1,-2.667997181E-1
1.139134688E1,8.584251404E-1,2.877159882E1,7.683951855E0
1.140801281E1,-2.126920223E0,3.039931679E1,1.800090599E1
1.142467875E1,1.099202871E0,2.775435066E1,2.410918427E1
1.144134469E1,2.128116608E0,2.700210571E1,2.475315285E1
1.145801063E1,-1.181755304E0,2.373022079E1,1.953201294E1
1.147467656E1,-6.690631390E0,2.293640137E1,1.367767334E1
1.149134250E1,-7.392924786E0,2.472055054E1,1.185194969E1
1.150800844E1,-1.857428551E0,2.603211594E1,1.504935932E1
1.152467438E1,9.491430283E0,2.511087990E1,2.456441879E1
1.154134031E1,2.617837715E1,2.241835594E1,3.438396454E1
1.155800625E1,4.185914230E1,1.956551170E1,3.651955795E1
1.157467219E1,5.662076569E1,1.423639774E1,3.357040405E1
1.159133813E1,6.333532333E1,1.041655540E1,2.954388237E1
1.160800406E1,6.469294739E1,-5.282155871E-1,2.394437790E1
1.162467000E1,5.690521240E1,-1.282223892E1,1.568943882E1
1.164133594E1,4.085026932E1,-2.213749695E1,2.250449657E0
1.165800188E1,1.808166313E1,-2.213450623E1,-5.412265778E0
1.167466781E1,3.037688255E0,-2.244048882E1,-6.553043842E0
1.169133375E1,-2.379961252E0,-2.862623405E1,-6.219843388E0
1.170799969E1,-7.235297680E0,-3.349502945E1,-5.319842815E0
1.172466563E1,-1.500628853E1,-3.596561813E1,-5.234299660E0
1.174133156E1,-1.994357872E1,-3.673610687E1,-5.820840359E0
1.175799750E1,-1.937528229E1,-3.652434540E1,-7.107879639E0
1.177466344E1,-6.248557091E0,-4.001756668E1,-6.349055767E0
1.179132938E1,1.872712708E1,-4.467070770E1,-2.557030201E0
1.180799531E1,3.016332436E1,-3.881786346E1,4.953143001E-1
1.182466125E1,3.704657745E1,-2.821317291E1,2.735295296E0
1.184132719E1,5.333751297E1,-1.927867317E1,4.776073933E0
1.185799313E1,6.605207825E1,-1.068156052E1,7.218547821E0
1.187465906E1,5.781209183E1,5.533402562E-1,5.370391369E0
1.189132500E1,5.117948532E1,9.409774780E0,4.889134884E0
1.190799094E1,5.947779465E1,1.088016415E1,1.024217796E1
1.192465688E1,5.268576813E1,1.248634720E1,1.129890823E1
1.194132281E1,2.484707069E1,1.544596958E1,9.946963310E0
1.195798875E1,-8.350951076E-1,2.443580437E1,8.970393181E0
1.197465469E1,-3.926023722E0,2.706372070E1,1.114606667E1
1.199132063E1,6.266204119E-1,2.642065048E1,1.292572880E1
1.200798656E1,1.893021822E0,2.709961319E1,1.274267769E1
1.202465250E1,2.611167729E-1,2.605783844E1,1.225514030E1
1.204131844E1,-7.109674454E0,2.346461678E1,1.706890106E1
1.205798438E1,-1.180708408E1,2.274946213E1,2.491556549E1
1.207465031E1,-3.286541939E0,2.107119560E1,3.172164917E1
1.209131625E1,1.252014542E1,1.668216133E1,3.110878754E1
1.210798219E1,2.491107750E1,1.321107292E1,2.416930389E1
1.212464813E1,3.250440216E1,1.107637596E1,1.530688667E1
1.214131406E1,3.800609970E1,8.525627136E0,8.494520187E0
1.215798000E1,3.973939896E1,5.058127880E0,7.176673412E0
1.217464594E1,4.265983963E1,2.885744095E0,1.210887909E1
1.219131188E1,4.652425003E1,-5.733502388E0,1.090558815E1
1.220797781E1,3.919981766E1,-1.337049484E1,1.026371384E1
1.222464375E1,2.350798607E1,-1.638245964E1,1.064417267E1
1.224130969E1,1.289492130E1,-2.248415756E1,7.176074982E0
1.225797563E1,4.865804672E0,-2.904288483E1,2.823530734E-1
1.227464156E1,-3.030210733E0,-3.421108246E1,-9.446564674E0
1.229130750E1,-8.858827591E0,-3.605355453E1,-1.857667923E1
1.230797344E1,-8.507980347E0,-3.679652786E1,-2.620529556E1
1.232463938E1,-7.137191772E0,-3.642354584E1,-2.790569496E1
1.234130531E1,-9.442676306E-1,-3.736302948E1,-2.023221207E1
1.235797125E1,7.051947594E0,-3.628865051E1,-1.088435173E1
1.237463719E1,1.535504246E1,-3.420121384E1,-6.541976929E0
1.239130313E1,2.353640175E1,-3.182364464E1,-4.567599297E0
1.240796906E1,3.182304573E1,-2.824816895E1,-1.942074656E0
1.242463500E1,5.137300491E1,-2.285325050E1,5.589035511E0
1.244130094E1,7.639714050E1,-1.678654861E1,2.300579262E1
1.245796688E1,7.783044434E1,-3.963112533E-1,3.474288559E1
1.247463281E1,5.785216904E1,1.434078407E1,2.907130051E1
1.249129875E1,2.733321381E1,2.617628288E1,1.644317818E1
1.250796469E1,1.392084408E1,3.103461075E1,1.185673523E1
1.252463063E1,9.576375008E0,3.380849075E1,1.425404453E1
1.254129656E1,3.980161428E0,3.442255020E1,1.684367752E1
1.255796250E1,3.924229145E-1,3.459004593E1,1.714427567E1
1.257462844E1,-2.384746790E0,3.262613678E1,2.001506424E1
1.259129438E1,-5.978766441E0,2.796820831E1,2.813600540E1
1.260796031E1,-1.949552298E0,2.253380966E1,3.710968781E1
1.262462625E1,8.275278091E0,1.636092567E1,3.810211182E1
1.264129219E1,1.920270157E1,1.171615696E1,2.956541824E1
1.265795813E1,3.191247749E1,7.045666218E0,1.956521416E1
1.267462406E1,4.481607437E1,-1.417448282E0,1.746042633E1
1.269129000E1,5.081368256E1,-6.276672840E0,1.387059498E1
1.270795594E1,5.357170868E1,-1.458903980E1,7.869395256E0
1.272462188E1,5.225924683E1,-2.455364990E1,2.017149448E0
1.274128781E1,2.920858765E1,-2.782015228E1,2.531307220E0
1.275795375E1,9.209674835E0,-3.331915665E1,-3.646063507E-1
1.277461969E1,-9.780662507E-2,-3.855196381E1,-7.867600918E0
1.279128563E1,-6.722934246E0,-4.186512375E1,-1.876152420E1
1.280795156E1,-1.157318592E1,-4.136771774E1,-3.082224846E1
1.282461750E1,-1.003549862E1,-3.867818451E1,-3.238685608E1
1.284128344E1,-1.774876237E0,-3.515893936E1,-2.248296165E1
1.285794938E1,3.986442566E0,-2.389771843E1,-1.081137085E1
1.287461531E1,2.109392738E1,-1.020867825E1,-3.154039383E0
1.289128125E1,3.849901962E1,5.442175865E0,-7.011269569E0
1.290794719E1,4.669862747E1,2.345983124E1,-9.651749611E0
1.292461313E1,5.643890762E1,2.814348221E1,1.689452362E1
1.294127906E1,5.039583588E1,2.835853767E1,6.040860367E1
1.295794500E1,3.387758255E1,2.163919258E1,5.179772949E1
1.297461094E1,1.279382420E1,1.659721565E1,-1.738684773E0
1.299127688E1,1.304088384E-1,1.892004776E1,-3.622045517E1
1.300794281E1,-5.556433201E0,1.945484543E1,-2.594627380E1
1.302460875E1,-8.923732758E0,1.216929817E1,6.977171898E0
1.304127469E1,-1.056072235E1,3.451646566E0,2.733889580E1
1.305794063E1,-5.748756409E0,-2.545365095E0,1.886232185E1
1.307460656E1,-6.523432732E-1,-6.081358910E0,-1.408774406E-1
1.309127250E1,-8.783752441E0,-8.518448472E-1,-3.152543783E0
1.310793844E1,-1.313061416E-1,-3.104089260E0,1.436022568E1
1.312460438E1,1.371147156E1,-1.176012516E1,2.273600197E1
1.314127031E1,1.892034721E1,-1.310638714E1,1.477388477E1
1.315793625E1,2.265524483E1,-1.084935665E1,4.505086899E0
1.317460219E1,2.485454750E1,-1.000259686E1,-1.585244946E-2
1.319126813E1,2.489432907E1,-1.314915848E1,-1.046949673E1
1.320793406E1,1.973779488E1,-1.456032562E1,-2.022024918E1
1.322460000E1,6.332904339E0,-1.066391277E1,-2.805973434E1
1.324126594E1,-2.500200510E0,-9.316754341E0,-1.822971916E1
1.325793188E1,-5.100301266E0,-8.420043945E0,-2.269891262E0
1.327459781E1,-2.326720953E0,-5.771488190E0,6.808178425E0
1.329126375E1,2.685345173E0,-2.987439156E0,2.583351135E0
1.330792969E1,5.125725269E0,7.698906660E-1,-9.956833839E0
1.332459563E1,-1.471286774E0,7.469494820E0,-1.321137238E1
1.334126156E1,-9.579665184E0,1.463569927E1,-1.037976551E1
1.335792750E1,2.012363911E0,1.562842178E1,-2.102094650E0
1.337459344E1,2.564687157E1,5.268995285E0,1.950898170E1
1.339125938E1,3.789064407E1,1.311266780E0,4.034179306E1
1.340792531E1,5.571119308E1,-1.473380566E0,4.953830719E1
1.342459125E1,6.433163452E1,-6.343372822E0,3.973371887E1
1.344125719E1,4.627330017E1,-4.472484589E0,3.144378281E1
1.345792313E1,1.925564194E1,-3.942773581E0,5.408676624E0
1.347458906E1,4.942375183E0,-8.307880402E0,-1.492014694E1
1.349125500E1,-1.195513964E0,-1.027986526E1,-2.893999290E1
1.350792094E1,-1.351944804E-1,-9.967003822E0,-3.087967491E1
1.352458688E1,2.696112871E0,-8.782556534E0,-2.311646080E1
1.354125281E1,1.465603828E0,-6.349055767E0,-1.294337559E1
1.355791875E1,-3.978067636E-1,-3.803989887E0,-8.196614265E0
1.357458469E1,-1.256231904E0,-1.710269928E0,-6.428318024E0
1.359125063E1,2.559422970E0,-2.794218540E0,5.706881881E-1
1.360791656E1,5.912365437E0,-3.031108141E0,6.262315750E0
1.362458250E1,1.370010567E1,-2.365604401E0,1.324965763E1
1.364124844E1,2.156202316E1,-9.469595551E-1,1.396780300E1
1.365791438E1,2.834806824E1,-7.600203156E-1,1.157498074E1
1.367458031E1,2.958964539E1,-6.096014977E0,1.302473164E1
1.369124625E1,2.480070877E1,-7.785646915E0,2.187279129E1
1.370791219E1,3.345794296E1,-1.036929703E1,2.815694237E1
1.372457813E1,4.426751709E1,-1.038634586E1,2.367578316E1
1.374124406E1,3.730679703E1,-8.405088425E0,1.994836426E1
1.375791000E1,2.134786606E1,-8.438588142E0,2.038744736E1
1.377457594E1,1.305374527E1,-8.155337334E0,2.241895294E1
1.379124188E1,1.350329685E1,-8.550153732E0,2.449323082E1
1.380790781E1,1.742064667E1,-9.050253868E0,2.356930351E1
1.382457375E1,2.375803757E1,-8.094619751E0,2.056541252E1
1.384123969E1,3.150838852E1,-5.029414177E0,1.684457397E1
1.385790563E1,3.828755569E1,-1.677966833E0,1.290987682E1
1.387457156E1,4.030470276E1,4.546363056E-1,1.273549938E1
1.389123750E1,3.975405502E1,-2.336890459E0,1.736261940E1
1.390790344E1,3.532493973E1,-7.136892796E0,1.810349846E1
1.392456938E1,2.884547615E1,-1.152712440E1,1.413141251E1
1.394123531E1,2.130449677E1,-1.535085487E1,1.002203846E1
1.395790125E1,1.482862091E1,-1.987269211E1,7.293024540E0
1.397456719E1,8.866005898E0,-2.510938263E1,4.133002758E0
1.399123313E1,1.364507079E0,-3.014687347E1,-1.384247899E0
1.400789906E1,-8.422736168E0,-3.377259827E1,-1.261226940E1
1.402456500E1,-1.761147308E1,-3.157209778E1,-2.239771652E1
1.404123094E1,-1.814118576E1,-3.047080231E1,-2.004527283E1
1.405789688E1,-1.747538185E1,-3.236920929E1,-1.660618973E1
1.407456281E1,-1.861137390E1,-3.555076599E1,-1.041506004E1
1.409122875E1,-1.328614807E1,-4.069892120E1,-3.512364626E0
1.410789469E1,3.713062525E0,-4.839364243E1,1.376471281E0
1.412456063E1,2.306531525E1,-5.234628677E1,3.275774240E0
1.414122656E1,3.507519150E1,-5.101677322E1,3.128316402E0
1.415789250E1,3.736571884E1,-4.694628143E1,1.547258973E0
1.417455844E1,4.395465469E1,-4.303491592E1,6.516254425E0
1.419122438E1,5.610361481E1,-3.900928879E1,1.526082420E1
1.420789031E1,6.606882477E1,-3.025694275E1,1.924696732E1
1.422455625E1,6.564350128E1,-1.790668869E1,1.856142426E1
1.424122219E1,6.487091827E1,-6.229115486E0,1.643869209E1
1.425788813E1,5.759524155E1,3.018844843E0,1.063220787E1
1.427455406E1,4.083142471E1,8.359924316E0,4.161417484E0
1.429122000E1,2.372812653E1,1.377697563E1,5.185246468E0
1.430788594E1,1.194497108E1,2.269412804E1,1.451546001E1
1.432455188E1,5.149952412E0,3.624976730E1,1.983620071E1
1.434121781E1,6.401997089E0,4.550580215E1,1.567986774E1
1.435788375E1,1.505593872E1,4.713053131E1,1.047846985E1
1.437454969E1,1.403599834E1,4.128426743E1,1.186301613E1
1.439121563E1,3.125325441E0,3.176053238E1,2.628844643E1
1.440788156E1,4.483551383E-1,2.567438889E1,4.247708893E1
1.442454750E1,1.133300591E1,1.904956055E1,4.605316162E1
1.444121344E1,2.456860542E1,1.469163227E1,3.635355759E1
1.445787938E1,3.730829239E1,1.426301765E1,3.121048355E1
1.447454531E1,5.616822052E1,1.077278709E1,4.662205505E1
1.449121125E1,7.536882782E1,1.958824396E0,5.803940964E1
1.450787719E1,7.839784241E1,-6.623631954E0,5.471697617E1
1.452454313E1,7.839843750E1,-1.914616966E1,4.277379990E1
1.454120906E1,7.839843750E1,-3.714049530E1,2.754647255E1
1.455787500E1,7.158278656E1,-4.237748718E1,1.611655807E1
1.457454094E1,4.887190628E1,-4.500899506E1,6.322734833E0
1.459120688E1,2.033360863E1,-4.225724792E1,7.113562584E0
1.460787281E1,1.054935694E0,-4.128845215E1,8.111370087E0
1.462453875E1,-2.432304144E0,-4.836462784E1,7.459923744E0
1.464120469E1,-4.915156841E0,-5.268995285E1,3.086143017E0
1.465787063E1,-9.217152596E0,-5.247071075E1,-8.267202377E-1
1.467453656E1,-9.354440689E0,-5.347629547E1,-1.685743570E0
1.469120250E1,-9.446564674E0,-5.425485992E1,-4.208376884E0
1.470786844E1,-2.784049034E0,-5.727310562E1,-8.797212601E0
1.472453438E1,1.483759403E1,-6.239524460E1,-1.176610756E1
1.474120031E1,4.679882431E1,-6.489813232E1,-1.199701428E0
1.475786625E1,7.554918671E1,-5.846084595E1,1.601037598E1
1.477453219E1,7.839843750E1,-4.130640030E1,2.645444870E1
1.479119813E1,7.839843750E1,-2.033540344E1,3.172404289E1
1.480786406E1,7.758876801E1,-2.380858421E0,3.283819962E1
1.482453000E1,6.955157471E1,8.720342636E0,2.153689957E1
1.484119594E1,5.538277817E1,1.776192284E1,4.317848682E0
1.485786188E1,3.705973816E1,2.518655205E1,-6.867401123E0
1.487452781E1,1.967887306E1,3.787868118E1,-1.026700401E1
1.489119375E1,1.218694496E1,4.970161819E1,-4.923830986E0
1.490785969E1,1.146730328E1,5.003541565E1,5.222335339E0
1.492452563E1,1.028794098E1,4.939713287E1,9.994820595E0
1.494119156E1,2.167598248E0,3.869732666E1,1.554706573E1
1.495785750E1,-4.087838173E0,3.016870880E1,3.089971542E1
1.497452344E1,-7.668996453E-1,2.465863609E1,4.255575180E1
1.499118938E1,6.686443806E0,2.255773735E1,3.960211182E1
1.500785531E1,1.816571045E1,2.426621246E1,2.849851799E1
1.502452125E1,3.929972076E1,2.646312332E1,2.315743828E1
1.504118719E1,6.053601837E1,2.317089844E1,2.468226433E1
1.505785313E1,7.239544678E1,2.000668907E1,2.431347084E1
1.507451906E1,7.832007599E1,1.183490086E1,2.244198418E1
1.509118500E1,7.839843750E1,-1.069292665E0,1.782802391E1
1.510785094E1,7.693074036E1,-1.440449333E1,8.688339233E0
1.512451688E1,5.845994568E1,-2.377867508E1,2.933600664E0
1.514118281E1,3.515744400E1,-3.098137093E1,2.403590441E0
1.515784875E1,1.319521999E1,-3.484727478E1,7.863413692E-1
1.517451469E1,2.315055877E-1,-3.748954773E1,-3.059821844E0
1.519118063E1,-1.385743380E0,-4.419005203E1,-3.010469913E0
1.520784656E1,-6.088238239E0,-5.316044235E1,-2.398505688E0
1.522451250E1,-1.953380775E1,-5.711877060E1,-4.302893162E0
1.524117844E1,-2.565345192E1,-5.861966705E1,-5.948856354E0
1.525784438E1,-1.514148235E1,-6.240332031E1,-8.986245155E0
1.527451031E1,1.103928757E1,-6.857022095E1,-5.655137062E0
1.529117625E1,4.462524414E1,-6.905566406E1,6.575177670E0
1.530784219E1,7.146404266E1,-5.604499054E1,1.739342690E1
1.532450813E1,7.838767242E1,-3.709174347E1,1.845105553E1
1.534117406E1,7.839843750E1,-1.910728645E1,1.321705532E1
1.535784000E1,7.839843750E1,-2.786142826E0,1.447717476E1
1.537450594E1,7.826145172E1,4.620241642E0,2.666441917E1
1.539117188E1,7.023592377E1,1.046351433E1,3.167229843E1
1.540783781E1,4.887938309E1,1.483819199E1,2.591367149E1
1.542450375E1,2.067189407E1,2.374397850E1,1.411765385E1
1.544116969E1,4.447360039E0,3.584298706E1,3.995415688E0
1.545783563E1,4.503890514E0,3.914567947E1,1.465603828E0
1.547450156E1,8.155038834E0,4.008576202E1,8.586644173E0
1.549116750E1,9.719047546E0,4.232903290E1,1.452563000E1
1.550783344E1,5.599204898E-1,3.666103363E1,2.129612160E1
1.552449938E1,-1.103539848E1,3.241347504E1,3.688506317E1
1.554116531E1,-8.933603287E0,3.059911728E1,4.962295532E1
1.555783125E1,1.082303619E1,2.694467926E1,5.305605698E1
1.557449719E1,3.718117523E1,1.897418594E1,5.005216599E1
1.559116313E1,5.238785934E1,1.269422340E1,3.898954773E1
1.560782906E1,6.730202484E1,5.612066269E0,2.674128914E1
1.562449500E1,7.762825012E1,-2.653341293E0,2.113011932E1
1.564116094E1,7.587461090E1,-9.372088432E0,2.058036804E1
1.565782688E1,7.311149597E1,-2.092014885E1,1.609352684E1
1.567449281E1,5.419324493E1,-2.828884697E1,9.256335258E0
1.569115875E1,2.764607430E1,-2.812015343E1,1.028853893E1
1.570782469E1,1.199372482E1,-2.995245743E1,1.201735306E1
1.572449063E1,7.481160164E0,-4.055415726E1,9.842875481E0
1.574115656E1,2.188834429E0,-5.201876831E1,1.561316729E0
1.575782250E1,-1.012104130E1,-5.757041550E1,-6.758228302E0
1.577448844E1,-2.321695900E1,-5.748846054E1,-1.150409317E1
1.579115438E1,-3.086561775E1,-5.505585861E1,-1.510708618E1
1.580782031E1,-2.181147575E1,-5.734937668E1,-9.344570160E0
1.582448625E1,4.259523392E0,-6.380910110E1,5.356931686E-1
1.584115219E1,2.756800842E1,-6.199384689E1,6.687041759E0
1.585781813E1,3.807010651E1,-5.466104126E1,5.267499924E0
1.587448406E1,5.431348419E1,-4.803980255E1,3.559323788E0
1.589115000E1,6.728497314E1,-4.213700867E1,3.823730469E0
1.590781594E1,7.757770538E1,-3.157808113E1,1.553211117E1
1.592448188E1,7.839843750E1,-1.701536179E1,2.767030144E1
1.594114781E1,7.839843750E1,2.160419703E0,2.791407013E1
1.595781375E1,6.474349976E1,1.502872086E1,1.559013653E1
1.597447969E1,2.698834801E1,2.579253387E1,7.468597889E0
1.599114563E1,1.015214825E1,3.412374496E1,1.076171970E1
1.600781156E1,8.033304214E0,4.025774384E1,1.349193001E1
1.602447750E1,7.809874058E0,4.207987976E1,1.212323570E1
1.604114344E1,3.705883980E0,4.593920517E1,1.057448101E1
1.605780938E1,-9.366703987E0,4.092504501E1,2.351875496E1
1.607447531E1,-1.646381569E1,3.577598953E1,4.754030228E1
1.609114125E1,9.571290761E-2,2.875395203E1,6.263362885E1
1.610780719E1,2.659741974E1,1.772513199E1,5.401079178E1
1.612447313E1,4.467220306E1,1.154417324E1,3.079652405E1
1.614113906E1,5.603990555E1,8.016255379E0,1.396331692E1
1.615780500E1,6.185835266E1,2.851048231E0,1.629302788E1
1.617447094E1,6.494599152E1,-1.991725802E0,2.593251419E1
1.619113688E1,7.429385376E1,-1.116790104E1,2.747558594E1
1.620780281E1,7.689813995E1,-2.647927475E1,1.813879204E1
1.622446875E1,5.459942627E1,-2.992374229E1,9.094520569E0
1.624113469E1,2.822035217E1,-3.244906616E1,1.195005512E1
1.625780063E1,1.401117325E1,-4.074647903E1,1.728515244E1
1.627446656E1,5.430809975E0,-5.369524002E1,1.508704567E1
1.629113250E1,-2.541775942E0,-6.296712875E1,5.016253471E0
1.630779844E1,-5.513362408E0,-6.592584991E1,-1.915843391E1
1.632446438E1,-1.408235931E1,-5.920291901E1,-4.267928314E1
1.634113031E1,-1.777239037E1,-5.501787186E1,-3.913431549E1
1.635779625E1,-1.054666519E1,-5.238008499E1,-1.860688782E1
1.637446219E1,1.578604889E1,-4.833830643E1,-5.090730190E-1
1.639112813E1,5.117888641E1,-4.123640823E1,1.100459099E1
1.640779406E1,5.979574203E1,-2.567349052E1,5.977869034E0
1.642446000E1,5.845306778E1,-1.621257019E1,-4.018446445E0
1.644112594E1,7.800242615E1,-2.412772751E1,1.120409298E1
1.645779188E1,7.839843750E1,-1.702583122E1,4.056522369E1
1.647445781E1,6.801807404E1,5.829813480E0,4.377908325E1
1.649112375E1,2.695604515E1,2.356511497E1,1.214357471E1
1.650778969E1,1.878096581E1,3.687070465E1,-8.058727264E0
1.652445563E1,4.463152695E1,4.017459488E1,5.220241547E0
1.654112156E1,7.557072449E1,3.237698364E1,3.914777374E1
1.655778750E1,6.565755463E1,2.780519676E1,5.803372574E1
1.657445344E1,2.939492798E1,2.159283066E1,6.009005737E1
1.659111938E1,5.915057659E0,9.311071396E0,5.680321503E1
1.660778531E1,-1.517647743E0,-5.402993679E0,5.311677551E1
1.662445125E1,-5.274379253E0,-1.578724575E1,4.330739975E1
1.664111719E1,7.843672752E0,-3.454727554E1,3.788705826E1
1.665778313E1,1.015244770E1,-4.348745728E1,2.104966164E1
1.667444906E1,-6.447460651E0,-3.378545761E1,5.063511848E0
1.669111500E1,-1.698664856E1,-3.930659866E1,1.592423439E0
1.670778094E1,-1.632234001E1,-3.122244644E1,1.622991753E1
1.672444688E1,5.129314423E0,-2.755813789E1,1.898076630E1
1.674111281E1,1.966391754E1,-2.088904190E1,3.698705673E0
1.675777875E1,2.887867737E1,-1.320479202E1,-8.443373680E0
1.677444469E1,3.187628555E1,-7.538887024E0,-5.886343479E0
1.679111063E1,2.502144814E1,-1.622632861E0,-1.391575909E1
1.680777656E1,2.044816589E1,4.545166492E0,-2.086690903E1
1.682444250E1,3.673102570E1,7.021439075E0,6.879664421E0
1.684110844E1,6.251817322E1,1.149422264E1,3.725774384E1
1.685777438E1,5.314100266E1,2.471247482E1,2.594417953E1
1.687444031E1,3.145006371E1,3.271885681E1,1.368096352E0
1.689110625E1,2.289392853E1,3.219303513E1,-2.439781904E0
1.690777219E1,1.771376610E1,2.447857475E1,2.072573280E1
1.692443813E1,4.919643402E0,2.216022873E1,3.477190018E1
1.694110406E1,-2.980260611E0,1.948086739E1,3.884119415E1
1.695777000E1,-4.820341110E0,1.353410435E1,3.813919830E1
1.697443594E1,-7.097710133E0,8.003692627E0,3.015405273E1
1.699110188E1,-6.423233509E0,4.058526516E0,1.798654938E1
1.700776781E1,-1.857428551E0,3.463610709E-1,7.102495670E0
1.702443375E1,4.462614059E0,-7.202396393E0,1.424028635E0
1.704109969E1,1.097707367E1,-1.627508163E1,-2.213360965E-1
1.705776563E1,1.473021603E1,-2.230080795E1,1.345962752E-2
1.707443156E1,1.879023743E1,-3.194956589E1,-1.130608693E-1
1.709109750E1,2.013111687E1,-3.282234955E1,-1.424925923E0
1.710776344E1,1.105334473E1,-2.855474854E1,-1.404886007E0
1.712442938E1,1.657328725E0,-2.010988045E1,-1.388435364E0
1.714109531E1,1.065284634E1,-1.135783195E1,1.725823283E0
1.715776125E1,3.722603989E1,-3.811467409E0,7.435397148E0
1.717442719E1,6.055366898E1,4.892425060E0,1.137906837E1
1.719109313E1,6.026353836E1,1.141944695E1,5.254937649E0
1.720775906E1,4.127708817E1,1.267418289E1,9.894321561E-1
1.722442500E1,2.785903549E1,8.179863930E0,1.182652593E0
1.724109094E1,1.992443657E1,1.536192179E0,3.422035456E0
1.725775688E1,1.382034492E1,-4.497609138E0,6.751648426E0
1.727442281E1,9.309276581E0,-8.230711937E0,8.812167168E0
1.729108875E1,6.739983082E0,-9.986744881E0,8.377870560E0
1.730775469E1,5.333601475E0,-1.214566898E1,7.606783390E0
1.732442063E1,1.838585138E0,-1.285663605E1,8.545068741E0
1.734108656E1,-1.264008522E0,-1.217827129E1,9.712766647E0
1.735775250E1,-3.058924675E0,-1.198834038E1,8.480163574E0
1.737441844E1,-2.725425005E0,-1.286830139E1,5.886941910E0
1.739108438E1,-1.789233088E0,-1.363220978E1,1.904985905E0
1.740775031E1,-6.939185858E-1,-1.514686680E1,-1.642074585E-1
1.742441625E1,-1.616650820E0,-1.593051624E1,2.106282234E0
1.744108219E1,-3.328117132E0,-1.507268906E1,5.947659969E0
1.745774813E1,-3.618546009E0,-1.291346550E1,6.928717136E0
1.747441406E1,-2.021636009E0,-1.155224895E1,3.608376503E0
1.749108000E1,1.727318883E0,-1.149930763E1,1.147956610E0
1.750774594E1,4.995914459E0,-1.145444202E1,2.996412039E0
1.752441188E1,4.473979950E0,-1.068126106E1,6.633203506E0
1.754107781E1,3.395116329E0,-7.717451096E0,9.753444672E0
1.755774375E1,9.281160355E0,-5.001298428E0,1.004656506E1
1.757440969E1,2.246381950E1,-1.942373753E0,4.977968216E0
1.759107563E1,3.507758331E1,4.525425732E-1,-6.231209278E0
1.760774156E1,3.472823334E1,4.266701698E0,-1.546002674E1
1.762440750E1,2.368026924E1,7.793124199E0,-1.627568054E1
1.764107344E1,1.545613861E1,7.988438606E0,-1.189681530E1
1.765773938E1,1.511037636E1,6.588936329E0,-6.925426960E0
1.767440531E1,2.194726753E1,4.333102703E0,-3.343969584E0
1.769107125E1,2.784049225E1,3.430709362E0,-4.884947300E0
1.770773719E1,2.545305252E1,4.961218834E0,-9.246764183E0
1.772440313E1,1.923021889E1,5.863611698E0,-1.138146114E1
1.774106906E1,1.534427452E1,5.195715427E0,-8.656634331E0
1.775773500E1,1.336032486E1,4.927420139E0,-3.278167009E0
1.777440094E1,1.208883953E1,5.970989704E0,1.681257010E0
1.779106688E1,1.197188950E1,7.586444378E0,5.243272781E0
1.780773281E1,1.085922718E1,8.503792763E0,7.145566463E0
1.782439875E1,1.039681435E1,9.149854660E0,1.118824005E1
1.784106469E1,1.187109184E1,1.108086300E1,1.700130463E1
1.785773063E1,1.688824272E1,1.448196125E1,2.136850357E1
1.787439656E1,2.790808868E1,1.331396389E1,2.014008904E1
1.789106250E1,3.445126343E1,8.807083130E0,1.684786415E1
1.790772844E1,3.229502869E1,6.142973900E0,1.816511345E1
1.792439438E1,3.230220795E1,4.999503613E0,2.487069893E1
1.794106031E1,3.942773438E1,1.316351533E0,3.133012390E1
1.795772625E1,4.496712112E1,-1.928615093E0,3.193640518E1
1.797439219E1,4.866881561E1,-4.281357765E0,2.621456909E1
1.799105813E1,5.197031403E1,-6.965806007E0,1.502124310E1
1.800772406E1,4.789264297E1,-1.063819027E1,2.531606436E0
1.802439000E1,3.691856003E1,-1.344616795E1,-7.470093250E0
1.804105594E1,2.512045097E1,-1.679013824E1,-1.342493153E1
1.805772188E1,1.216989613E1,-1.880130577E1,-1.549442387E1
1.807438781E1,2.598306179E0,-1.928794479E1,-1.355623722E1
1.809105375E1,-1.196411371E0,-2.040449524E1,-1.311924839E1
1.810771969E1,-2.892324448E0,-2.335305214E1,-1.415773296E1
1.812438563E1,-7.911269665E0,-2.509083939E1,-1.786870193E1
1.814105156E1,-1.363250923E1,-2.495743942E1,-2.134218407E1
1.815771750E1,-1.424118328E1,-2.415943336E1,-2.086750793E1
1.817438344E1,-1.026072216E1,-2.582573509E1,-1.738714600E1
1.819104938E1,-5.786443233E0,-2.949722290E1,-1.193270779E1
1.820771531E1,-3.882354796E-1,-3.373072433E1,-8.133802414E0
1.822438125E1,6.660122871E0,-3.659523010E1,-8.015656471E0
1.824104719E1,1.875015831E1,-3.755206299E1,-8.972486496E0
1.825771313E1,3.918037796E1,-3.812813187E1,-5.844768524E0
1.827437906E1,6.658926392E1,-3.300689316E1,-3.838984728E0
1.829104500E1,7.705965424E1,-2.167329025E1,-6.394818425E-1
1.830771094E1,6.429364777E1,-1.107308578E1,5.670391560E0
1.832437688E1,4.833770752E1,-3.019144058E0,8.643473625E0
1.834104281E1,4.596103668E1,5.273182988E-1,4.706083775E0
1.835770875E1,4.859015274E1,3.224926710E0,3.136093140E0
1.837437469E1,4.229732895E1,7.721638680E0,8.654241562E0
1.839104063E1,3.132533836E1,1.523839188E1,1.464945889E1
1.840770656E1,2.173610115E1,2.450728989E1,1.877229118E1
1.842437250E1,1.833769608E1,3.113451004E1,2.279881477E1
1.844103844E1,1.448943806E1,3.197349358E1,2.459432793E1
1.845770438E1,7.590033531E0,3.089193916E1,2.280001068E1
1.847437031E1,1.595713615E0,2.930430031E1,2.074906158E1
1.849103625E1,-5.312963486E0,2.427877426E1,1.771286964E1
1.850770219E1,-1.272503090E1,2.211835480E1,1.305075359E1
1.852436813E1,-1.416939831E1,2.223231316E1,1.419601822E1
1.854103406E1,-9.188439369E0,2.246202469E1,2.373171616E1
1.855770000E1,3.211168051E0,2.332673073E1,3.580410385E1
1.857436594E1,2.379931259E1,2.278116798E1,3.590221024E1
1.859103188E1,4.499374008E1,2.285863495E1,2.838007355E1
1.860769781E1,6.825885773E1,1.926521301E1,2.235434723E1
1.862436375E1,7.833473206E1,1.026640511E1,2.435833549E1
1.864102969E1,7.726544189E1,-3.256332397E0,2.367937279E1
1.865769563E1,6.196483612E1,-1.668365669E1,1.417747402E1
1.867436156E1,4.172335052E1,-2.366830635E1,1.470987678E0
1.869102750E1,1.786152458E1,-2.251077843E1,-5.712863922E0
1.870769344E1,3.121437073E0,-2.151775742E1,-5.810371399E0
1.872435938E1,-1.194616675E0,-2.741546631E1,-3.210868835E0
1.874102531E1,-5.308177948E0,-3.558187103E1,-1.740778536E-1
1.875769125E1,-1.450798321E1,-4.145565414E1,2.303091764E0
1.877435719E1,-2.630340195E1,-4.288297272E1,3.810569942E-1
1.879102313E1,-2.724437904E1,-4.610909271E1,-4.541577339E0
1.880768906E1,-1.323051453E1,-5.348706436E1,-7.197311401E0
1.882435500E1,1.215135193E1,-6.265964890E1,-6.832705021E0
1.884102094E1,3.295874023E1,-6.432026672E1,-1.821536183E0
1.885768688E1,4.104408646E1,-5.849853134E1,5.565406322E0
1.887435281E1,5.441458130E1,-4.802335358E1,9.605986595E0
1.889101875E1,7.623532867E1,-3.613491058E1,9.867103577E0
1.890768469E1,7.839813995E1,-1.744367790E1,8.001599312E0
1.892435063E1,7.839843750E1,-1.779362798E0,1.212532997E1
1.894101656E1,7.552406311E1,7.860721588E0,1.786900139E1
1.895768250E1,5.716213989E1,1.542353630E1,1.953889275E1
1.897434844E1,3.835066605E1,1.956222153E1,1.553091431E1
1.899101438E1,2.483450890E1,2.277189445E1,1.173649597E1
1.900768031E1,1.039651489E1,3.118565750E1,8.539385796E0
1.902434625E1,3.139383316E0,3.796960831E1,9.136395454E0
1.904101219E1,6.412465572E0,3.494837189E1,1.043061256E1
1.905767813E1,1.016859913E1,3.169742203E1,1.273071384E1
1.907434406E1,3.260818958E0,2.711905479E1,1.615992737E1
1.909101000E1,-7.134200573E0,2.299203491E1,2.023340988E1
1.910767594E1,-8.975178719E0,2.174687004E1,2.501127815E1
1.912434188E1,-2.743670225E0,2.035604095E1,2.697339249E1
1.914100781E1,6.421737671E0,2.111725807E1,2.653580475E1
1.915767375E1,2.430270386E1,2.206332016E1,2.513420868E1
1.917433969E1,4.491028976E1,2.180489540E1,2.451446724E1
1.919100563E1,6.159603882E1,1.874387741E1,2.322503662E1
1.920767156E1,7.225846100E1,1.137129116E1,2.213660049E1
1.922433750E1,7.134709167E1,6.141179085E0,2.329203415E1
1.924100344E1,6.568597412E1,-6.926623344E0,1.913689804E1
1.925766938E1,5.072425079E1,-1.815314865E1,8.080263138E0
1.927433531E1,2.766820908E1,-2.211267281E1,2.766701281E-1
1.929100125E1,8.178069115E0,-2.337937355E1,-1.835294962E0
1.930766719E1,7.776673418E-3,-2.845155907E1,-5.662016869E-1
1.932433313E1,-3.342474222E0,-3.620849228E1,2.471486807E0
1.934099906E1,-9.629615784E0,-4.299932098E1,1.958824396E0
1.935766500E1,-1.915604019E1,-4.676891327E1,6.281159073E-2
1.937433094E1,-2.400599289E1,-4.948297501E1,-3.927220106E0
1.939099688E1,-1.941745758E1,-5.237918854E1,-9.621240616E0
1.940766281E1,7.262216806E-1,-5.807201004E1,-1.047906780E1
1.942432875E1,2.450340080E1,-6.119793320E1,-4.858327389E0
1.944099469E1,3.539463425E1,-5.598098373E1,2.581556559E0
1.945766063E1,4.660112000E1,-4.777599335E1,7.503592491E0
1.947432656E1,6.825556183E1,-3.408635712E1,8.382356644E0
1.949099250E1,7.802605438E1,-1.670818329E1,6.109773636E0
1.950765844E1,7.721638489E1,-3.351447105E0,7.114161015E0
1.952432438E1,7.043453217E1,7.801199913E0,1.517528152E1
1.954099031E1,6.879335022E1,1.057537842E1,2.355195427E1
1.955765625E1,5.259244537E1,1.360080433E1,2.129462624E1
1.957432219E1,2.960998344E1,1.366481209E1,1.202303600E1
1.959098813E1,1.373659706E1,1.433988667E1,5.635396481E0
1.960765406E1,1.021555805E1,1.499791336E1,3.917948008E0
1.962432000E1,1.170748329E1,1.546451378E1,3.020340443E0
1.964098594E1,1.333998585E1,1.469761372E1,-6.167500615E-1
1.965765188E1,1.526860142E1,1.235952759E1,-6.655037999E-1
1.967431781E1,1.379073429E1,1.200060368E1,2.669492722E0
1.969098375E1,7.852944851E0,1.368784237E1,4.939085007E0
1.970764969E1,1.075274706E0,1.384008598E1,6.131010056E0
1.972431563E1,-4.230211258E0,1.311117268E1,1.074317551E1
1.974098156E1,-6.540780544E0,1.035733318E1,1.865295029E1
1.975764750E1,-6.485745907E0,5.403890610E0,2.679482841E1
1.977431344E1,-6.197709560E0,8.766704202E-1,2.946581650E1
1.979097938E1,-3.792922974E0,-7.725825906E-1,2.566332245E1
1.980764531E1,3.017349243E0,-5.874379873E-1,1.835205269E1
1.982431125E1,3.641577005E0,5.141876698E0,1.029033375E1
1.984097719E1,-3.055335522E0,1.955923080E1,1.865803480E0
1.985764313E1,1.192822075E1,2.411247444E1,3.474079370E0
1.987430906E1,3.762115479E1,1.943031883E1,1.134676456E1
1.989097500E1,4.973751068E1,5.148756027E0,1.820788574E1
1.990764094E1,4.194408798E1,8.967102766E-1,2.429791832E1
1.992430688E1,2.732962418E1,1.634896040E0,2.052682877E1
1.994097281E1,1.981526375E1,2.052742720E0,1.466202068E1
1.995763875E1,2.069253159E1,-1.350748420E0,9.571888924E0
1.997430469E1,2.112533379E1,-5.440680504E0,4.762614250E0
1.999097063E1,1.989332962E1,-8.717949867E0,2.275275230E0
2.000763656E1,1.866969872E1,-1.078445148E1,1.656730533E0
2.002430250E1,1.764856339E1,-1.244776249E1,-1.303490162E0
2.004096844E1,1.665823364E1,-1.440658665E1,-5.491528034E0
2.005763438E1,1.472124290E1,-1.568884087E1,-8.877969742E0
2.007430031E1,1.197278690E1,-1.464527130E1,-1.038574791E1
2.009096625E1,8.497511864E0,-1.306331635E1,-1.198235893E1
2.010763219E1,5.131408215E0,-1.108205891E1,-1.319671631E1
2.012429813E1,2.868695259E0,-9.261120796E0,-1.146042442E1
2.014096406E1,1.737488389E0,-7.931010723E0,-8.441878319E0
2.015763000E1,1.667199135E0,-6.072385788E0,-3.811467409E0
2.017429594E1,4.013660908E0,-2.450549603E0,2.062014818E0
2.019096188E1,6.285944939E0,5.910571098E0,4.904388905E0
2.020762781E1,4.758427143E0,1.944078636E1,1.322333574E0
2.022429375E1,1.219980621E1,2.129253197E1,-1.310668588E0
2.024095969E1,2.712204552E1,1.153460121E1,9.663713455E0
2.025762563E1,3.560011673E1,-5.622535229E0,2.954776955E1
2.027429156E1,2.463500595E1,-2.647658348E0,4.006751633E1
2.029095750E1,8.868100166E0,4.081856251E0,3.116890717E1
2.030762344E1,-1.118046403E0,9.220144272E0,2.215454674E1
2.032428938E1,-5.199902534E0,1.186301613E1,1.720828247E1
2.034095531E1,-4.749752998E0,1.186840057E1,1.358345604E1
2.035762125E1,-8.030911088E-1,1.147478104E1,9.253942490E0
2.037428719E1,2.645265341E0,1.081167030E1,4.592723846E0
2.039095313E1,1.763809443E0,1.199791145E1,3.764807224E0
2.040761906E1,-1.316052437E0,1.295025539E1,6.887440681E0
2.042428500E1,-5.306682587E0,1.296939754E1,1.051436138E1
2.044095094E1,-9.125627518E0,1.244327641E1,1.394746399E1
2.045761688E1,-1.129561806E1,1.032054329E1,1.838375664E1
2.047428281E1,-1.201196957E1,6.373881340E0,2.131765747E1
2.049094875E1,-1.071864891E1,2.754437923E0,2.062643051E1
2.050761469E1,-9.091529846E0,-9.436694384E-1,1.738206100E1
2.052428063E1,-7.431807995E0,-2.766701221E0,1.444277859E1
2.054094656E1,-5.524728298E0,-2.395813704E0,1.399262905E1
2.055761250E1,-6.230311871E0,1.940280080E0,1.795903206E1
2.057427844E1,-7.133303165E0,5.899803162E0,2.350260353E1
2.059094438E1,4.766203403E0,3.903591156E0,2.724318314E1
2.060761031E1,1.839362717E1,3.677170277E0,2.432693100E1
2.062427625E1,2.146900368E1,3.238685369E0,2.007966995E1
2.064094219E1,1.709342766E1,4.740779996E-1,1.360469246E1
2.065760813E1,1.044377327E1,-1.467996716E0,1.085264683E1
2.067427406E1,7.661818027E0,-1.644168258E0,1.099232769E1
2.069094000E1,8.081758499E0,-1.018744230E0,1.145264721E1
2.070760594E1,9.501898766E0,-2.118545294E0,1.099172974E1
2.072427188E1,1.069771194E1,-3.905385733E0,1.041356373E1
2.074093781E1,1.118494987E1,-4.851448059E0,1.112961674E1
2.075760375E1,1.044048309E1,-4.537988186E0,1.134736347E1
2.077426969E1,9.371489525E0,-3.945465326E0,9.119346619E0
2.079093563E1,9.079565048E0,-3.700201035E0,5.696712494E0
2.080760156E1,9.248857498E0,-2.970390320E0,2.379063845E0
2.082426750E1,8.887840271E0,-1.890928149E0,-6.397809386E-1
2.084093344E1,7.869694710E0,-1.123131156E0,-1.843669891E0
2.085759938E1,5.902794361E0,-1.217348501E-1,-6.900302172E-1
2.087426531E1,4.395017147E0,6.933203340E-1,3.236890793E0
2.089093125E1,3.462115288E0,2.302792788E0,6.523731709E0
2.090759719E1,3.241975546E0,4.299304008E0,7.520043373E0
2.092426313E1,-3.619144112E-2,9.514162064E0,5.710172176E0
2.094092906E1,-1.568495274E0,1.213639641E1,3.249752283E0
2.095759500E1,3.056831062E-1,1.087388325E1,3.720540047E0
2.097426094E1,1.348953724E0,1.053260708E1,8.441280365E0
2.099092688E1,2.850749016E0,9.695118904E0,1.379013634E1
2.100759281E1,4.463212490E0,8.321639061E0,1.844208145E1
2.102425875E1,5.059922695E0,6.710072994E0,1.838704681E1
2.104092469E1,3.565305710E0,6.727719784E0,1.470359612E1
2.105759063E1,1.156032443E0,7.169195652E0,1.088375378E1
2.107425656E1,-1.727617979E0,7.960322857E0,7.165307522E0
2.109092250E1,-3.658326626E0,8.346464157E0,2.042573214E0
2.110758844E1,-3.294916868E0,7.821538925E0,-1.342971772E-1
2.112425438E1,-1.464706540E0,7.266703129E0,2.714358091E0
2.114092031E1,3.672982752E-1,6.026323795E0,6.500401974E0
2.115758625E1,4.313062727E-1,5.169394016E0,9.237193108E0
2.117425219E1,-1.358824134E0,4.688735962E0,9.109176636E0
2.119091813E1,-2.724527597E0,4.160520554E0,8.194519997E0
2.120758406E1,-3.187838078E0,3.321537018E0,7.824829102E0
2.122425000E1,-3.151646614E0,3.327818155E0,8.139485359E0
2.124091594E1,-3.341576815E0,5.833701611E0,8.030911446E0
2.125758188E1,-3.742972851E0,8.825327873E0,6.700501442E0
2.127424781E1,-2.472084999E0,1.057268715E1,7.512565613E0
2.129091375E1,-2.554637194E0,1.150080299E1,8.795417786E0
2.130757969E1,-3.699902058E0,1.088943672E1,1.019282627E1
2.132424563E1,-3.455534935E0,8.841778755E0,1.384277821E1
2.134091156E1,-1.744965911E0,6.789933205E0,1.771974945E1
2.135757750E1,1.080658555E0,6.357131481E0,1.969322968E1
2.137424344E1,2.405385017E0,6.373282909E0,1.527787304E1
2.139090938E1,1.884347796E0,6.143272877E0,9.401400566E0
2.140757531E1,3.373879790E-1,5.774479389E0,5.871089458E0
2.142424125E1,-1.233799219E0,4.823332310E0,5.656333447E0
2.144090719E1,-2.019841433E0,3.627818346E0,7.433602810E0
2.145757313E1,-1.642373681E0,2.850450039E0,9.423533440E0
2.147423906E1,-5.470590591E-1,2.973082066E0,9.998409271E0
2.149090500E1,6.068796515E-1,3.343969584E0,8.585148811E0
2.150757094E1,9.098708034E-1,3.931407690E0,6.355037689E0
2.152423688E1,5.240281820E-1,4.403990269E0,4.927420139E0
2.154090281E1,9.840483218E-2,4.706981182E0,4.806582451E0
2.155756875E1,3.640081584E-1,4.543372154E0,5.996413708E0
2.157423469E1,8.826524615E-1,4.309772491E0,7.787441254E0
2.159090063E1,1.178764224E0,4.371088982E0,8.880363464E0
2.160756656E1,1.338784218E0,4.581956387E0,8.626125336E0
2.162423250E1,1.609472275E0,4.929513931E0,8.504690170E0
2.164089844E1,1.327418327E0,5.462814331E0,8.204091072E0
2.165756438E1,8.644071817E-1,5.599205017E0,7.702496052E0
2.167423031E1,3.263211846E-1,5.897111416E0,7.342974663E0
2.169089625E1,2.859423161E-1,5.987141132E0,7.312166691E0
2.170756219E1,3.260220885E-1,6.235695839E0,7.255337238E0
2.172422813E1,3.601198196E-1,6.723233223E0,6.911668301E0
2.174089406E1,2.033899277E-1,7.173383236E0,6.310471535E0
2.175756000E1,-1.316052489E-2,7.430013180E0,5.825027466E0
2.177422594E1,8.108677864E-1,6.878767014E0,6.691528320E0
2.179089188E1,1.472184181E0,6.478268147E0,7.387540817E0
2.180755781E1,1.389631748E0,5.989534378E0,7.897810459E0
2.182422375E1,8.539385796E-1,5.654539108E0,8.165507317E0
2.184088969E1,7.624131441E-1,5.605186939E0,8.483154297E0
2.185755563E1,8.515457511E-1,5.863911152E0,8.186444283E0
2.187422156E1,1.001994491E0,6.077769279E0,7.287042141E0
2.189088750E1,1.191625714E0,6.235097408E0,6.817151546E0
2.190755344E1,1.352542996E0,6.399005890E0,6.958328247E0
2.192421938E1,1.767996788E0,6.439085960E0,6.852446079E0
2.194088531E1,1.963011861E0,6.675376892E0,6.747460842E0
2.195755125E1,2.138585329E0,7.102795124E0,6.380162239E0
2.197421719E1,2.599502802E0,7.197012424E0,6.484250069E0
2.199088313E1,3.116053343E0,7.110571384E0,6.634998322E0
2.200754906E1,3.266801119E0,6.733702183E0,7.065407276E0
2.202421500E1,2.846561670E0,6.359225273E0,7.571189880E0
2.204088094E1,2.488834620E0,5.809175014E0,8.607581139E0
2.205754688E1,2.400898457E0,5.330610752E0,9.679864883E0
2.207421281E1,2.314756870E0,5.154737949E0,9.785149574E0
2.209087875E1,2.066800594E0,5.166702271E0,9.028120041E0
2.210754469E1,1.733600020E0,5.344070435E0,7.975576878E0
2.212421063E1,1.629213095E0,5.543870926E0,7.173981190E0
2.214087656E1,1.632204175E0,5.681458473E0,6.828218460E0
2.215754250E1,1.748854280E0,5.828018665E0,6.885047913E0
2.217420844E1,2.097009897E0,5.934200287E0,7.313064098E0
2.219087438E1,2.533401012E0,5.942873955E0,7.768897057E0
2.220754031E1,3.028715372E0,5.962316036E0,7.840980530E0
2.222420625E1,3.059821844E0,6.180361748E0,7.378268719E0
2.224087219E1,2.641975403E0,6.335297108E0,6.999305248E0
2.225753813E1,2.079063892E0,6.364908218E0,6.743871689E0
2.227420406E1,1.985743642E0,6.258427620E0,6.761219501E0
2.229087000E1,2.226521492E0,6.143572330E0,7.167999268E0
2.230753594E1,2.295315027E0,6.016752720E0,7.801199913E0
2.232420188E1,2.240878344E0,5.942574978E0,7.725826263E0
2.234086781E1,2.329711914E0,5.870491028E0,7.525427341E0
2.235753375E1,2.405385017E0,5.855835438E0,7.480262756E0
2.237419969E1,2.392523527E0,5.875277042E0,7.721339703E0
2.239086563E1,2.619542599E0,6.084948063E0,7.852047443E0
2.240753156E1,3.028715372E0,5.561518192E0,8.175078392E0
2.242419750E1,3.043969393E0,5.536393166E0,8.545368195E0
2.244086344E1,2.820539713E0,5.484648705E0,8.514859200E0
2.245752938E1,2.711367130E0,5.279164791E0,8.734700203E0
2.247419531E1,2.531905413E0,5.201996326E0,8.880064011E0
2.249086125E1,2.481955290E0,5.259125233E0,9.227621078E0
2.250752719E1,2.544766903E0,5.278267860E0,9.025427818E0
2.252419313E1,2.433799744E0,5.509773254E0,8.032705307E0
2.254085906E1,2.347358942E0,5.734100342E0,7.697411537E0
2.255752500E1,2.366501570E0,5.790929794E0,7.773981571E0
2.257419094E1,2.420041084E0,5.892923832E0,7.859525204E0
2.259085688E1,2.522035122E0,5.922534943E0,7.924729347E0
2.260752281E1,2.560021162E0,5.819942951E0,7.767700672E0
2.262418875E1,2.520838737E0,5.882754326E0,7.845168114E0
2.264085469E1,2.606681108E0,5.745167255E0,8.143074989E0
2.265752063E1,2.480758905E0,5.694020748E0,8.266304970E0
2.267418656E1,2.373081923E0,5.654838085E0,8.139485359E0
2.269085250E1,2.387737989E0,5.704489231E0,8.021339417E0
2.270751844E1,2.342573404E0,5.658427238E0,8.016853333E0
2.272418438E1,2.230409861E0,5.717051506E0,7.722835064E0
2.274085031E1,2.095813513E0,5.805286884E0,7.218846798E0
2.275751625E1,2.048555374E0,5.749653816E0,7.091429234E0
2.277418219E1,2.293520451E0,5.746363640E0,7.184150696E0
2.279084813E1,2.371885538E0,5.786144257E0,7.197311401E0
2.280751406E1,2.374876499E0,5.628218174E0,7.235895634E0
2.282418000E1,2.315055847E0,5.638985634E0,7.438687325E0
2.284084594E1,2.382952213E0,5.664409637E0,7.724330425E0
2.285751188E1,2.516651154E0,5.736792088E0,8.132307053E0
2.287417781E1,2.510968208E0,5.579164982E0,8.332705498E0
2.289084375E1,2.344367981E0,5.578567028E0,8.192725182E0
2.290750969E1,2.444866419E0,5.579164982E0,7.992027760E0
2.292417563E1,2.610868692E0,5.595615864E0,8.151748657E0
2.294084156E1,2.553740025E0,5.709274769E0,8.302795410E0
2.295750750E1,2.630609512E0,5.534299850E0,8.293224335E0
2.297417344E1,2.842673302E0,5.647659779E0,7.794021606E0
2.299083938E1,2.921038151E0,5.855237007E0,7.327720165E0
2.300750531E1,2.770589590E0,5.933900833E0,7.072286606E0
2.302417125E1,2.707777977E0,5.813661575E0,7.142874718E0
2.304083719E1,2.665006161E0,5.794518948E0,7.166802883E0
2.305750313E1,2.551945448E0,5.797809124E0,6.943373203E0
2.307416906E1,2.383251429E0,5.829813480E0,7.103094101E0
2.309083500E1,2.231905222E0,5.845665932E0,7.437191963E0
2.310750094E1,2.288734913E0,5.893821239E0,7.527221680E0
2.312416688E1,2.529213428E0,6.030511379E0,7.720143318E0
2.314083281E1,2.496611357E0,6.042475224E0,7.942376614E0
2.315749875E1,2.464009047E0,6.024828434E0,8.168199539E0
2.317416469E1,2.444866419E0,6.063711643E0,8.222636223E0
2.319083063E1,2.484647274E0,6.136991978E0,8.133204460E0
2.320749656E1,2.453540564E0,6.142674923E0,7.980661869E0
2.322416250E1,2.336591244E0,6.092126369E0,7.657630444E0
2.324082844E1,2.124826431E0,6.028417587E0,7.516753197E0
2.325749438E1,2.022234201E0,5.772385597E0,7.704589844E0
2.327416031E1,2.026122570E0,5.628816128E0,8.016553879E0
2.329082625E1,2.113759756E0,5.551946640E0,8.163114548E0
2.330749219E1,2.047059774E0,5.513063431E0,8.085646629E0
2.332415813E1,1.955235243E0,5.543870926E0,7.963912010E0
2.334082406E1,2.019542217E0,5.633302689E0,7.859525204E0
2.335749000E1,2.098206282E0,5.729613781E0,7.770093441E0
2.337415594E1,2.086541414E0,5.791528225E0,7.523931503E0
2.339082188E1,2.120639086E0,5.782854080E0,7.257132053E0
2.340748781E1,2.079662085E0,5.865107536E0,7.158727169E0
2.342415375E1,1.848754644E0,5.918945789E0,7.154240608E0
2.344081969E1,1.604088426E0,5.928217888E0,7.254739285E0
2.345748563E1,1.640578985E0,5.832505226E0,7.802097321E0
2.347415156E1,1.664507270E0,5.749952793E0,8.210671425E0
2.349081750E1,1.588834286E0,5.613262653E0,8.383553505E0
2.350748344E1,1.647458434E0,5.533103466E0,8.466404915E0
2.352414938E1,1.664208174E0,5.568696499E0,8.404191017E0
2.354081531E1,1.668395638E0,5.599802971E0,8.386544228E0
2.355748125E1,1.772782445E0,5.598906040E0,8.137690544E0
2.357414719E1,1.828116536E0,5.580361366E0,7.878966808E0
2.359081313E1,1.964208245E0,5.594718456E0,7.968697548E0
2.360747906E1,2.104786634E0,5.534598827E0,8.017151833E0
2.362414500E1,2.043171406E0,5.522036552E0,7.954938889E0
2.364081094E1,1.836790442E0,5.506483078E0,7.822137356E0
2.365747688E1,1.704287887E0,5.555835247E0,7.522137165E0
2.367414281E1,1.793420553E0,5.668596745E0,7.322037220E0
2.369080875E1,1.886740685E0,5.731109142E0,7.423133850E0
2.370747469E1,1.896012783E0,5.741578102E0,7.637590885E0
2.372414063E1,1.840379715E0,5.759224892E0,7.754240990E0
2.374080656E1,1.836790442E0,5.640780449E0,7.862515926E0
2.375747250E1,1.926820397E0,5.603093147E0,7.989335537E0
2.377413844E1,2.006680965E0,5.568098068E0,8.257929802E0
2.379080438E1,2.115853310E0,5.525326729E0,8.331808090E0
2.380747031E1,2.133201361E0,5.540281773E0,8.417053223E0
2.382413625E1,2.122433662E0,5.503192902E0,8.492725372E0
2.384080219E1,2.016252279E0,5.499304771E0,8.595617294E0
2.385746813E1,1.942971945E0,5.539384365E0,8.663214684E0
2.387413406E1,1.886740685E0,5.507380486E0,8.521739006E0
2.389080000E1,1.885843396E0,5.465805054E0,8.418548584E0
2.390746594E1,2.097608089E0,5.348257542E0,8.525327682E0
2.392413188E1,2.114058733E0,5.367101192E0,8.390133858E0
2.394079781E1,1.966302037E0,5.469693661E0,8.014161110E0
2.395746375E1,1.854138494E0,5.511867046E0,7.641479015E0
2.397412969E1,1.753041744E0,5.530710220E0,7.610970497E0
2.399079563E1,1.693221092E0,5.476572990E0,7.843074322E0
2.400746156E1,1.743171334E0,5.357230663E0,8.109575272E0
2.402412750E1,1.916949987E0,5.287539959E0,8.156234741E0
2.404079344E1,1.812862277E0,5.309972763E0,8.244769096E0
2.405745938E1,1.755434513E0,5.246562958E0,8.062616348E0
2.407412531E1,1.924128532E0,5.373681545E0,7.872984886E0
2.409079125E1,1.969891191E0,5.361418247E0,7.710571766E0
2.410745719E1,1.787737608E0,5.662315845E0,7.502396107E0
2.412412313E1,1.999801517E0,5.446961880E0,7.345367432E0
2.414078906E1,1.831107497E0,5.583352566E0,7.409375191E0
2.415745500E1,1.904088616E0,5.403890610E0,7.325925827E0
2.417412094E1,1.811366796E0,5.287539959E0,7.831409454E0
2.419078688E1,1.970190287E0,5.125725269E0,8.054839134E0
2.420745281E1,2.129612207E0,4.918148041E0,8.102097511E0
2.422411875E1,2.215155602E0,4.750051975E0,8.824729919E0
2.424078469E1,2.311765671E0,4.683651447E0,9.263813019E0
2.425745063E1,2.404188633E0,4.497609138E0,8.828618050E0
2.427411656E1,2.352443695E0,4.576273441E0,8.740681648E0
2.429078250E1,2.347658157E0,4.629812717E0,9.109774590E0
2.430744844E1,2.361716032E0,4.689932346E0,8.797511101E0
2.432411438E1,2.430509567E0,4.794618607E0,8.526524544E0
2.434078031E1,2.331506491E0,4.792524815E0,9.022735596E0
2.435744625E1,2.358724833E0,4.506283283E0,9.508777618E0
2.437411219E1,2.597707987E0,4.379762650E0,9.376275063E0
2.439077813E1,2.652743101E0,4.462913513E0,9.367601395E0
2.440744406E1,2.509173632E0,4.337888241E0,9.435796738E0
2.442411000E1,2.464607239E0,4.421338081E0,9.100502968E0
2.444077594E1,1.170987606E0,4.033401489E0,5.814558983E0
2.445744188E1,1.552343726E0,4.966901779E0,9.397212982E0
2.447410781E1,2.492722988E0,3.735794306E0,8.633603096E0
2.449077375E1,2.654836655E0,4.485345840E0,8.308777809E0
2.450743969E1,2.973082066E0,4.477270126E0,7.307979584E0
2.452410563E1,2.175075769E0,4.901697159E0,7.983652592E0
2.454077156E1,2.446063042E0,4.374079704E0,9.706186295E0
2.455743750E1,3.081357241E0,3.632005692E0,1.100309563E1
2.457410344E1,2.459522486E0,4.015156269E0,1.001426220E1
2.459076938E1,1.329213023E0,4.455136776E0,8.394320488E0
2.460743531E1,1.109671474E0,4.027718544E0,8.437690735E0
2.462410125E1,1.619342685E0,4.270889282E0,8.496912956E0
2.464076719E1,1.909173369E0,4.567300320E0,8.450851440E0
2.465743313E1,1.791925073E0,4.334598064E0,8.562715530E0
2.467409906E1,2.069492579E0,4.454239368E0,8.490332603E0
2.469076500E1,2.286940336E0,4.381557465E0,8.498109818E0
2.470743094E1,2.416750908E0,4.307679176E0,8.816953659E0
2.472409688E1,2.002792597E0,4.363611221E0,9.065507889E0
2.474076281E1,1.726122379E0,4.389334202E0,9.085547447E0
2.475742875E1,1.817947030E0,4.546362877E0,8.839685440E0
2.477409469E1,1.933101535E0,4.750949383E0,8.891130447E0
2.479076063E1,1.676471353E0,4.749454021E0,8.472087860E0
2.480742656E1,1.286441326E0,4.560420990E0,8.308178902E0
2.482409250E1,1.417747378E0,4.547858715E0,8.406883240E0
2.484075844E1,1.592423439E0,4.725525856E0,7.959126472E0
2.485742438E1,1.472782373E0,4.613661289E0,7.858029366E0
2.487409031E1,1.639382601E0,4.801198483E0,9.365806580E0
2.489075625E1,1.611266971E0,4.818845749E0,9.411869049E0
2.490742219E1,1.264008522E0,4.720739841E0,9.200701714E0
2.492408813E1,1.089930773E0,4.537689209E0,9.595816612E0
2.494075406E1,1.087238789E0,4.498506546E0,9.377771378E0
