"Time (s)","Gyroscope x (rad/s)","Gyroscope y (rad/s)","Gyroscope z (rad/s)"
2.517750200E-2,-1.289459229E0,-2.948949635E-1,2.804632783E-1
4.184343900E-2,-1.360319495E0,-9.537126124E-2,5.146535859E-2
5.850937700E-2,-1.041524410E0,-2.863428742E-2,-6.742420048E-2
7.517531400E-2,-5.994110703E-1,8.559742570E-2,2.611446939E-2
9.184125200E-2,-2.079994529E-1,2.611446939E-2,2.683987021E-1
1.085071890E-1,3.772090003E-2,-2.722166181E-1,4.896081090E-1
1.251731270E-1,1.356883347E-1,-4.918225110E-1,5.520690680E-1
1.418390640E-1,3.947713599E-2,-6.375137568E-1,5.050324798E-1
1.585050020E-1,-2.510654330E-1,-5.699368119E-1,3.618610203E-1
1.751709390E-1,-5.635227561E-1,-4.175260663E-1,1.287397593E-1
1.918368770E-1,-7.832050323E-1,-3.388772309E-1,-9.224057943E-2
2.085028140E-1,-9.335541129E-1,-5.051851869E-1,-1.556941569E-1
2.251687520E-1,-9.608139396E-1,-7.795398235E-1,-1.034652218E-1
2.418346890E-1,-8.831577301E-1,-7.870992422E-1,-7.788526267E-2
2.585006270E-1,-8.171843290E-1,-7.299070358E-1,-1.661552191E-1
2.751665640E-1,-7.987056971E-1,-5.345830321E-1,-2.955058515E-1
2.918325020E-1,-9.553925395E-1,-1.494327933E-1,-2.709185183E-1
3.084984390E-1,-1.309999466E0,1.954767257E-1,-1.184314117E-1
3.251643770E-1,-1.794262528E0,7.108175159E-1,-5.597048625E-2
3.418303140E-1,-2.341826439E0,1.229670763E0,-8.269581944E-2
3.584962520E-1,-2.493702650E0,7.929788232E-1,-3.158170879E-1
3.751621890E-1,-1.909105182E0,4.406625926E-1,-8.423825502E-1
3.918281270E-1,-1.168889761E0,7.146354318E-1,-1.388953805E0
4.084940640E-1,-4.036289155E-1,6.094139814E-1,-1.466380954E0
4.251600020E-1,4.647917449E-1,5.823832154E-1,-9.836450219E-1
4.418259390E-1,1.060003161E0,1.394527912E0,-4.859429300E-1
4.584918770E-1,8.266527653E-1,9.107993841E-1,-6.639336348E-1
4.751578140E-1,-1.537088454E-1,-8.284853399E-2,-1.138957381E0
4.918237520E-1,-1.079779863E0,-2.885572612E-1,-1.179121733E0
5.084896890E-1,-1.367344499E0,8.116865903E-2,-5.749764442E-1
5.251556270E-1,-1.674991250E0,5.629118681E-1,5.634464025E-1
5.418215640E-1,-2.243171930E0,1.037248373E0,1.341230035E0
5.584875020E-1,-2.606101751E0,1.130939722E0,1.523114920E0
5.751534390E-1,-2.376951218E0,4.993819594E-1,1.307708740E0
5.918193770E-1,-1.584659576E0,-3.371973634E-1,1.125518322E0
6.084853140E-1,-8.688787818E-1,-3.950004280E-1,1.029536247E0
6.251512520E-1,-3.725511432E-1,-1.498145908E-1,9.112575054E-1
6.418171890E-1,5.235874653E-1,-4.199695289E-1,9.536362886E-1
6.584831270E-1,1.703320026E0,-1.552818298E0,9.393573403E-1
6.751490640E-1,1.721569657E0,-3.994673967E0,3.251327872E-1
6.918150020E-1,1.228219986E0,-2.190561056E0,-3.476584256E-1
7.084809390E-1,6.478220820E-1,-8.644500375E-1,-5.309178233E-1
7.251468770E-1,-1.524107605E-1,-6.108647585E-1,-4.309650958E-1
7.418128140E-1,-3.000873327E-1,-5.489383340E-1,-3.288743198E-1
7.584787520E-1,2.051742077E-1,-1.294117093E0,-1.944840699E-1
7.751446890E-1,8.987348080E-1,-2.442313671E0,-5.398517475E-2
7.918106270E-1,8.258891702E-1,-2.547611475E0,-1.393535286E-1
8.084765640E-1,4.032471180E-1,-6.771436334E-1,2.197586000E-1
8.251425020E-1,-1.058323234E-1,-3.767508566E-1,7.479275465E-1
8.418084390E-1,-8.526145220E-1,4.505127668E-2,1.042135358E0
8.584743770E-1,-1.267697096E0,1.463784724E-1,1.277165532E0
8.751403140E-1,-1.229594469E0,1.922696829E-1,1.465693712E0
8.918062520E-1,-6.446914077E-1,3.351356983E-1,1.506927013E0
9.084721890E-1,2.806923687E-1,-5.444332212E-2,8.210022449E-1
9.251381270E-1,1.096502304E0,-9.897536635E-1,-4.615083337E-1
9.418040640E-1,1.816482782E0,-2.851440430E0,-1.020525932E0
9.584700020E-1,2.010890484E0,-3.445124626E0,-8.267291188E-1
9.751359390E-1,1.213253856E0,-2.566242933E0,-7.486147881E-1
9.918018770E-1,-4.375318810E-2,-1.360701323E0,-8.138245940E-1
1.008467814E0,-9.352339506E-1,-1.527161989E-2,-5.723803043E-1
1.025133752E0,-1.169424295E0,4.938841760E-1,-3.827067912E-1
1.041799689E0,-8.920152783E-1,1.431714296E-1,-3.022253513E-1
1.058465627E0,-4.907535017E-1,-3.573558927E-1,-3.191768527E-1
1.075131564E0,-2.562577724E-1,-5.329795480E-1,-2.257908881E-1
1.091797502E0,-2.968802750E-1,-1.208748668E-1,-2.443459118E-3
1.108463439E0,-2.969566286E-1,4.468475878E-1,1.139262840E-1
1.125129377E0,-1.598938555E-1,3.808741868E-1,-6.230820715E-2
1.141795314E0,3.573558852E-2,-2.994764447E-1,-1.866191924E-1
1.158461252E0,1.194240674E-1,-1.010064960E0,2.390008420E-2
1.175127189E0,-9.430225194E-2,-1.554879904E0,4.937314689E-1
1.191793127E0,-4.203513265E-1,-1.772195101E0,8.359684348E-1
1.208459064E0,-5.779544115E-1,-1.583132386E0,8.960622549E-1
1.225125002E0,-5.154171586E-1,-1.145829558E0,5.936841965E-1
1.241790939E0,-1.888335794E-1,-7.486911416E-1,1.856265366E-1
1.258456877E0,2.085339576E-1,-4.786889255E-1,6.414080039E-3
1.275122814E0,4.201986194E-1,-4.238637984E-1,-1.847865991E-2
1.291788752E0,5.031235218E-1,-4.040106833E-1,-2.603811212E-2
1.308454689E0,3.902662396E-1,-2.848156989E-1,-1.526398361E-1
1.325120627E0,2.832885459E-2,-2.942077518E-1,-3.476584256E-1
1.341786564E0,-2.907716334E-1,-3.549887836E-1,-3.067304790E-1
1.358452502E0,-3.742310405E-1,-2.364810258E-1,-1.118646115E-1
1.375118439E0,-2.580903769E-1,-1.986837685E-1,-5.818486959E-2
1.391784377E0,-4.375318810E-2,-2.881754637E-1,-1.206457913E-1
1.408450314E0,1.516471803E-1,-2.262490392E-1,-1.188895553E-1
1.425116252E0,2.328922004E-1,-1.522580534E-1,-1.222493127E-1
1.441782189E0,1.850156635E-1,-2.154061943E-1,-1.824194938E-1
1.458448127E0,7.780890167E-2,-4.228711426E-1,-2.672533393E-1
1.475114064E0,8.307760954E-2,-4.328740537E-1,-3.154352903E-1
1.491780002E0,1.737146676E-1,-1.674533039E-1,-3.316232264E-1
1.508445939E0,2.163988501E-1,1.926514804E-1,-3.516290486E-1
1.525111877E0,1.671478748E-1,4.639517963E-1,-3.488801420E-1
1.541777814E0,4.130972922E-2,7.388409376E-1,-3.084867001E-1
1.558443752E0,-9.514218569E-2,8.970549107E-1,-2.391535640E-1
1.575109689E0,-1.797469556E-1,7.766382098E-1,-2.185368687E-1
1.591775627E0,-1.927278340E-1,4.837285578E-1,-3.415497839E-1
1.608441564E0,-1.272889525E-1,6.459894776E-2,-6.136136651E-1
1.625107502E0,1.832594350E-2,-4.470766485E-1,-8.982002735E-1
1.641773439E0,6.238456443E-2,-7.548761368E-1,-1.036713839E0
1.658439377E0,-3.130682046E-3,-7.356339097E-1,-8.642209172E-1
1.675105314E0,-2.183841541E-2,-4.684569240E-1,-3.478874862E-1
1.691771252E0,2.333503515E-1,-2.066250145E-1,-5.192350596E-3
1.708437189E0,5.919279456E-1,8.697187155E-2,-4.375318810E-2
1.725103127E0,8.999565244E-1,2.438113987E-1,-2.462548614E-1
1.741769064E0,1.127350926E0,4.677697122E-1,-4.631882310E-1
1.758435002E0,1.242880702E0,8.195514679E-1,-4.858665764E-1
1.775100939E0,8.529962897E-1,7.334195375E-1,-3.935496211E-1
1.791766877E0,-6.734783947E-2,4.136318266E-1,-6.064360142E-1
1.808432814E0,-7.838922143E-1,6.719512343E-1,-8.589522243E-1
1.825098752E0,-9.608139396E-1,1.075961947E0,-8.697950840E-1
1.841764689E0,-9.183588624E-1,1.181107044E0,-8.143591285E-1
1.858430627E0,-7.832813859E-1,7.370846868E-1,-7.273108959E-1
1.875096564E0,-4.535670877E-1,4.825831577E-2,-5.212203860E-1
1.891762502E0,-5.627591908E-2,-6.907353401E-1,-2.867246568E-1
1.908428439E0,2.457203567E-1,-1.578398228E0,-1.595884264E-1
1.925094377E0,5.010618567E-1,-1.993633509E0,-5.986474827E-2
1.941760314E0,7.471640110E-1,-1.622609615E0,4.230238497E-2
1.958426252E0,1.002429128E0,-7.627410293E-1,2.153298259E-2
1.975092189E0,1.182099700E0,-1.778380126E-1,6.185005885E-3
1.991758127E0,1.159650445E0,-3.628536761E-1,-4.352411721E-3
2.008424064E0,9.906699657E-1,-8.965204358E-1,-1.155297980E-1
2.025090002E0,7.286089659E-1,-1.233412385E0,-1.782197952E-1
2.041755939E0,3.626246154E-1,-1.093524337E0,-1.379027218E-1
2.058421877E0,-1.040760875E-1,-1.272125840E-1,-6.246092543E-2
2.075087814E0,-7.834340632E-2,1.786321282E0,-6.062832847E-2
2.091753752E0,1.062904745E-1,1.893680811E0,2.008217946E-2
2.108419689E0,1.851683855E-1,1.370780587E0,-2.293797284E-1
2.125085627E0,2.458730787E-1,7.220421433E-1,-5.792525411E-1
2.141751564E0,5.426769853E-1,8.597921580E-2,-6.203331947E-1
2.158417502E0,9.750165343E-1,-4.603629708E-1,-4.071413875E-1
2.175083439E0,1.379943490E0,-7.428879142E-1,-2.396880686E-1
2.191749377E0,1.382539749E0,-9.471458197E-1,-2.040288299E-1
2.208415314E0,4.337903559E-1,-5.322159529E-1,8.788817376E-2
2.225081252E0,1.985310577E-3,-1.901316643E-1,2.611446977E-1
2.241747189E0,-1.452330947E-1,5.416843295E-1,2.792415619E-1
2.258413127E0,-4.070650041E-1,7.757982612E-1,2.509890795E-1
2.275079064E0,-5.378664136E-1,6.478984356E-1,1.698967665E-1
2.291745002E0,-4.689150751E-1,5.468003154E-1,7.925970852E-2
2.308410939E0,-3.051269650E-1,3.707949221E-1,5.971203372E-2
2.325076877E0,-1.898262352E-1,1.598938555E-1,9.697478265E-3
2.341742814E0,-1.513417512E-1,1.293506175E-1,-1.203403622E-1
2.358408752E0,-1.155297980E-1,3.299433291E-1,-1.801287532E-1
2.375074689E0,-1.175151095E-1,5.790998340E-1,-1.492037177E-1
2.391740627E0,-1.307250559E-1,7.115047574E-1,-9.750928730E-2
2.408406564E0,-7.589995116E-2,7.137191296E-1,-8.292489499E-2
2.425072502E0,1.641699113E-2,6.494256258E-1,-1.629481763E-1
2.441738439E0,7.475458086E-2,4.691441655E-1,-2.370918989E-1
2.458404377E0,1.276707351E-1,2.661843300E-1,-2.277761996E-1
2.475070314E0,1.524871141E-1,9.590577334E-2,-1.661552191E-1
2.491736252E0,1.476002038E-1,3.184132650E-2,-1.036179364E-1
2.508402189E0,1.141553521E-1,9.918916970E-2,-5.390881747E-2
2.525068127E0,8.735366166E-2,1.707367003E-1,-2.397644334E-2
2.541734064E0,8.651372790E-2,2.080758214E-1,-2.977965865E-3
2.558400002E0,1.182786897E-1,2.635881603E-1,2.703076601E-2
2.575065939E0,1.488219351E-1,2.364046723E-1,4.253146052E-2
2.591731877E0,1.268308014E-1,1.195004210E-1,1.748600416E-2
2.608397814E0,5.619955808E-2,7.895427197E-2,-2.145662531E-2
2.625063752E0,-4.344775900E-2,6.375901401E-2,-4.276053607E-2
2.641729689E0,-9.896009415E-2,1.073594838E-1,-4.833467677E-2
2.658395627E0,-1.010217592E-1,1.809686869E-1,-1.962403022E-2
2.675061564E0,-3.191768378E-2,2.974147797E-1,1.107192412E-2
2.691727502E0,7.582359016E-2,3.988946974E-1,3.520108387E-2
2.708393439E0,1.678351015E-1,3.717875779E-1,4.993819445E-2
2.725059377E0,1.871536970E-1,2.031888962E-1,5.398517475E-2
2.741725314E0,1.452330947E-1,3.428478539E-2,4.978547990E-2
2.758391252E0,8.483384550E-2,-7.712167688E-3,4.818195850E-2
2.775057189E0,2.863428742E-2,4.169152305E-2,5.322159454E-2
2.791723127E0,6.948587019E-3,9.582941234E-2,6.230820715E-2
2.808389064E0,8.552107029E-3,6.284271181E-2,4.489856213E-2
2.825055002E0,-1.634063199E-2,-2.764163166E-2,1.382081583E-2
2.841720939E0,-8.391755074E-2,-6.635518372E-2,-1.527161949E-4
2.858386877E0,-1.688277572E-1,-3.497200832E-2,2.977965865E-3
2.875052814E0,-2.044869810E-1,5.558869615E-2,-4.810560029E-3
2.891718752E0,-2.169333547E-1,1.919642538E-1,-3.466657549E-2
2.908384689E0,-2.176969349E-1,2.901607752E-1,-3.665188700E-2
2.925050627E0,-1.979201883E-1,2.857320011E-1,4.505127668E-3
2.941716564E0,-1.396589577E-1,2.094502598E-1,5.887209252E-2
2.958382502E0,-5.589412898E-2,1.340848207E-1,1.065959036E-1
2.975048439E0,3.405570984E-2,1.389717311E-1,1.204930767E-1
2.991714377E0,8.826996386E-2,1.610392332E-1,1.073594838E-1
3.008380314E0,8.872810751E-2,1.383608729E-1,8.353576064E-2
3.025046252E0,4.604393244E-2,5.650499091E-2,5.001455545E-2
3.041712189E0,-1.802051067E-2,-5.100720748E-2,2.855792828E-2
3.058378127E0,-5.833758786E-2,-6.498073786E-2,1.687514037E-2
3.075044064E0,-7.276926935E-2,4.428769462E-3,1.336266659E-2
3.091710002E0,-6.375901401E-2,8.483384550E-2,-9.468403645E-3
3.108375939E0,-4.016435891E-2,1.212566569E-1,-4.161516204E-2
3.125041877E0,-2.779434808E-2,9.888373315E-2,-6.818778068E-2
3.141707814E0,2.367100911E-3,7.338013500E-2,-7.047852129E-2
3.158373752E0,5.207622424E-2,4.459312931E-2,-6.101011857E-2
3.175039689E0,1.117118970E-1,2.038761228E-2,-4.421133921E-2
3.191705627E0,1.624136716E-1,-5.879573524E-3,-4.276053607E-2
3.208371564E0,1.970038861E-1,-7.635809743E-5,-5.482511222E-2
3.225037502E0,2.053269297E-1,1.672242396E-2,-5.757400393E-2
3.241703439E0,1.476002038E-1,4.352411721E-3,-5.108356848E-2
3.258369377E0,3.833176568E-2,-1.725693047E-2,-4.718930274E-2
3.275035314E0,-8.025235683E-2,-4.123337101E-3,-4.382954910E-2
3.291701252E0,-1.785252392E-1,6.406444311E-2,-3.474293277E-2
3.308367189E0,-2.247218788E-1,9.834922850E-2,-4.260781780E-2
3.325033127E0,-2.344957143E-1,6.834049523E-2,-4.886918142E-2
3.341699064E0,-2.011272311E-1,5.207622424E-2,-3.168861195E-2
3.358365002E0,-1.403461844E-1,5.810851231E-2,-1.832594397E-3
3.375030939E0,-7.765618712E-2,3.588830587E-3,3.466657549E-2
3.391696877E0,-2.176205814E-2,-1.710421406E-2,8.185587823E-2
3.408362814E0,-3.283398226E-3,1.603520010E-3,1.009454057E-1
3.425028752E0,-2.664897591E-2,-1.916588284E-2,8.765909821E-2
3.441694689E0,-5.971203372E-2,-1.534797717E-2,4.298960790E-2
3.458360627E0,-8.246674389E-2,3.046688065E-2,-2.825249685E-3
3.475026564E0,-7.284562290E-2,8.116865903E-2,-3.466657549E-2
3.491692502E0,-3.466657549E-2,1.072831303E-1,-3.359756246E-2
3.508358439E0,-1.542433538E-2,7.620538026E-2,-2.718348242E-2
3.525024377E0,-2.573267929E-2,1.786779426E-2,-3.321577236E-2
3.541690314E0,-5.703949928E-2,8.704823442E-3,-4.650207981E-2
3.558356252E0,-7.880155742E-2,1.962403022E-2,-5.978839099E-2
3.575022189E0,-4.306596518E-2,4.505127668E-2,-7.880155742E-2
3.591688127E0,4.024071619E-2,3.504836559E-2,-9.353867173E-2
3.608354064E0,1.189659163E-1,-2.313650399E-2,-9.330959618E-2
3.625020002E0,1.646280587E-1,-1.414151937E-1,-8.170316368E-2
3.641685939E0,1.505781710E-1,-2.876409590E-1,-8.292489499E-2
3.658351877E0,9.720385820E-2,-3.136027157E-1,-8.994983882E-2
3.675017814E0,1.687514037E-2,-2.091448307E-1,-8.559742570E-2
3.691683752E0,-6.414080411E-2,-6.841685623E-2,-8.307760954E-2
3.708349689E0,-1.102610901E-1,-1.023198478E-2,-8.475748450E-2
3.725015627E0,-1.090393662E-1,-7.231111825E-2,-1.061377525E-1
3.741681564E0,-8.292489499E-2,-1.922696829E-1,-1.922696829E-1
3.758347502E0,-2.214384824E-2,-2.120464295E-1,-2.238819450E-1
3.775013439E0,-6.452259421E-2,-1.252272818E-2,-8.185587823E-2
3.791679377E0,-1.023962051E-1,-5.115992390E-3,-1.794415340E-2
3.808345314E0,-1.127809063E-1,-5.513054505E-2,1.183550525E-2
3.825011252E0,-6.543888897E-2,-1.314122826E-1,-3.420842811E-2
3.841677189E0,-4.932733253E-2,-1.492800862E-1,-8.048143238E-2
3.858343127E0,-5.451968312E-2,-1.697440445E-1,-1.014799103E-1
3.875009064E0,-3.084867075E-2,-1.655443609E-1,-9.422589093E-2
3.891675002E0,2.916879393E-2,-1.666133702E-1,-9.689842910E-2
3.908340939E0,6.849320978E-2,-2.067777216E-1,-1.168278903E-1
3.925006877E0,6.421715766E-2,-2.118173689E-1,-1.406516135E-1
3.941672814E0,-1.137735695E-2,-2.200640440E-1,-1.637117565E-1
3.958338752E0,-7.567087561E-2,-2.543488145E-1,-1.482874304E-1
3.975004689E0,-1.285106838E-1,-2.970330119E-1,-1.222493127E-1
3.991670627E0,-1.448513120E-1,-2.549596727E-1,-9.216422588E-2
4.008336564E0,-1.043815166E-1,-1.920406222E-1,-6.803506613E-2
4.025002502E0,-4.489856213E-2,-1.950949430E-1,-9.078978002E-2
4.041668439E0,1.000291109E-2,-2.830594778E-1,-1.200349256E-1
4.058334377E0,4.642572254E-2,-4.321868420E-1,-9.865466505E-2
4.075000314E0,5.612320080E-2,-5.816196203E-1,-3.237583488E-2
4.091666252E0,7.887791097E-2,-6.214785576E-1,2.275471389E-2
4.108332189E0,1.088866442E-1,-5.209149122E-1,-9.162971750E-3
4.124998127E0,1.101083755E-1,-4.313468933E-1,-1.692095399E-1
4.141664064E0,3.459021822E-2,-1.695149764E-2,-1.521053314E-1
4.158330002E0,-2.863428742E-2,1.811214089E-1,-7.078395784E-2
4.174995939E0,-4.123337194E-2,-2.031125315E-2,-5.856665969E-2
4.191661877E0,1.519526169E-2,-1.702021956E-1,-7.994692773E-2
4.208327814E0,4.726566374E-2,-2.394589931E-1,-1.119409725E-1
4.224993752E0,3.863719851E-2,-2.762635946E-1,-1.196531355E-1
4.241659689E0,-1.114828233E-2,-2.061668551E-3,-7.154753804E-2
4.258325627E0,-2.160934173E-2,3.103193045E-1,9.697478265E-3
4.274991564E0,1.687514037E-2,3.272708058E-1,1.153007243E-2
4.291657502E0,8.185587823E-2,7.925970852E-2,-9.162971750E-3
4.308323439E0,9.460768104E-2,-1.928042024E-1,-1.351538301E-2
4.324989377E0,5.337430909E-2,-3.636172712E-1,8.704823442E-3
4.341655314E0,-6.337722391E-2,-3.005454838E-1,4.886918142E-2
4.358321252E0,-1.575267613E-1,-9.193515033E-2,8.330668509E-2
4.374987189E0,-1.851683855E-1,7.383827865E-2,7.429642975E-2
4.391653127E0,-1.973856837E-1,5.917752534E-2,5.207622424E-2
4.408319064E0,-1.688277572E-1,-3.848448023E-2,7.223475724E-2
4.424985002E0,-1.596647799E-1,-1.902080178E-1,1.021671370E-1
4.441650939E0,-1.526398361E-1,-1.809686869E-1,1.104901657E-1
4.458316877E0,-1.072831303E-1,-7.254019380E-3,8.491020650E-2
4.474982814E0,-1.527161920E-3,2.138026757E-3,4.780016840E-2
4.491648752E0,7.696896046E-2,-1.974620372E-1,2.496909723E-2
4.508314689E0,2.214384824E-2,-3.507890999E-1,4.505127668E-2
4.524980627E0,-1.465311944E-1,-3.206276596E-1,8.781181276E-2
4.541646564E0,-2.947422564E-1,-2.119700760E-1,1.148425788E-1
4.558312502E0,-3.288743198E-1,-1.406516135E-1,1.011744812E-1
4.574978439E0,-2.741255760E-1,-1.473711282E-1,5.390881747E-2
4.591644377E0,-2.050978541E-1,-2.690095901E-1,3.321577236E-2
4.608310314E0,-1.385135949E-1,-3.332267404E-1,5.658135191E-2
4.624976252E0,-5.169443041E-2,-3.032943606E-1,1.076649204E-1
4.641642189E0,5.474875495E-2,-3.202458620E-1,1.891390085E-1
4.658308127E0,1.130863428E-1,-4.600575268E-1,2.570213675E-1
4.674974064E0,7.475458086E-2,-6.853902936E-1,2.626718581E-1
4.691640002E0,-6.772962958E-2,-8.384119272E-1,2.574795187E-1
4.708305939E0,-3.110828996E-1,-6.655371785E-1,2.839757502E-1
4.724971877E0,-5.687914491E-1,-3.032943606E-1,3.213148713E-1
4.741637814E0,-6.953168511E-1,2.916879393E-2,3.096320927E-1
4.758303752E0,-5.826122761E-1,1.470656991E-1,3.104720116E-1
4.774969689E0,-3.096320927E-1,-1.822667718E-1,3.123046160E-1
4.791635627E0,-8.888082206E-2,-7.119628787E-1,3.016144931E-1
4.808301564E0,-4.276053607E-2,-8.982766867E-1,3.847684562E-1
4.824967502E0,-1.104138121E-1,-7.402917743E-1,5.755873322E-1
4.841633439E0,-1.938732117E-1,-5.091558099E-1,7.559451461E-1
4.858299377E0,-2.672533393E-1,-7.086031437E-1,8.284090161E-1
4.874965314E0,-3.315468729E-1,-1.084666729E0,8.977421522E-1
4.891631252E0,-3.292561173E-1,-1.256090760E0,1.068937063E0
4.908297189E0,-1.814268380E-1,-1.229594469E0,1.271591425E0
4.924963127E0,1.593593508E-1,-9.595922232E-1,1.469129801E0
4.941629064E0,4.947241247E-1,-9.705877900E-1,1.490662813E0
4.958295002E0,7.433460951E-1,-1.333975911E0,1.354058146E0
4.974960939E0,8.930842876E-1,-1.238681078E0,1.327180147E0
4.991626877E0,8.320741653E-1,-5.471821427E-1,1.523038626E0
5.008292814E0,9.038507938E-1,3.204749227E-1,1.841757298E0
5.024958752E0,1.187139392E0,9.111811519E-1,2.160934210E0
5.041624689E0,1.301600099E0,-4.062250629E-2,2.024482250E0
5.058290627E0,7.813724279E-1,-1.289153814E0,1.947131515E0
5.074956564E0,-1.208977699E0,-1.104061723E0,2.449414968E0
5.091622502E0,-3.624566078E0,7.487674952E-1,2.451094866E0
5.108288439E0,-4.108600140E0,2.076024055E0,1.675907493E0
5.124954377E0,-2.140317440E0,1.395138741E0,9.198859930E-1
5.141620314E0,9.812015295E-2,-6.573668718E-1,7.729730010E-1
5.158286252E0,1.060842991E0,-1.979278207E0,1.676442027E0
5.174952189E0,3.088684976E-1,-2.298455000E0,3.932212830E0
5.191618127E0,-9.457713962E-1,-2.916802883E0,5.739532948E0
5.208284064E0,-1.405676246E0,-2.345339060E0,5.731667995E0
5.224950002E0,-9.359211922E-1,-2.256000042E0,4.129522324E0
5.241615939E0,-2.198349714E0,-3.544924736E0,3.373577118E0
5.258281877E0,-6.250521183E0,-6.121399403E0,4.510931015E0
5.274947814E0,-1.133795547E1,-7.066178322E0,6.283049583E0
5.291613752E0,-1.368268394E1,-2.718195438E0,4.162508965E0
5.308279689E0,-1.041280079E1,2.051131248E0,-8.701768517E-1
5.324945627E0,-4.859887600E0,5.054906011E-2,-3.161454201E0
5.341611564E0,-1.304425359E0,-2.476903915E0,-2.459265232E0
5.358277502E0,-9.870811105E-1,-1.758908749E0,-1.777769208E0
5.374943439E0,-2.522107840E0,-4.794524908E-1,-1.767613649E0
5.391609377E0,-3.252625942E0,1.276707411E0,-2.698724270E0
5.408275314E0,-2.259359837E0,3.323868036E0,-3.979860306E0
5.424941252E0,-4.321868420E-1,3.934274673E0,-4.051407814E0
5.441607189E0,1.281670690E0,2.960021734E0,-3.153360367E0
5.458273127E0,1.912083149E0,2.417268276E0,-2.167959213E0
5.474939064E0,1.198134899E0,3.450698853E0,-1.685834050E0
5.491605002E0,-4.079049528E-1,5.506182194E0,-1.749593139E0
5.508270939E0,-5.386300087E-1,8.072348595E0,-2.034561396E0
5.524936877E0,2.531958103E0,8.975436211E0,-2.461708784E0
5.541602814E0,6.707600594E0,7.432926178E0,-2.774089575E0
5.558268752E0,8.711848259E0,6.151484489E0,-3.039433956E0
5.574934689E0,9.085315704E0,5.720825195E0,-3.601582289E0
5.591600627E0,7.908790112E0,6.003502846E0,-3.884183645E0
5.608266564E0,7.072134495E0,6.692634583E0,-3.611356258E0
5.624932502E0,7.518752575E0,4.554836750E0,-2.689026833E0
5.641598439E0,7.770811081E0,2.693073750E0,-1.345582366E0
5.658264377E0,7.320603371E0,1.696905971E0,-1.430187225E-1
5.674930314E0,6.949197769E0,1.373529434E0,2.772562504E-1
5.691596252E0,5.621559620E0,1.148043990E0,1.032208800E0
5.708262189E0,2.764468670E0,9.635628462E-1,3.358534575E0
5.724928127E0,-1.308319688E0,-7.617483735E-1,6.284500599E0
5.741594064E0,-4.776122570E0,-2.299982309E0,8.771789551E0
5.758260002E0,-6.522279739E0,-2.629238367E0,9.803616524E0
5.774925939E0,-6.694619656E0,-1.929034591E0,9.767498970E0
5.791591877E0,-6.090168953E0,-1.165377259E0,1.006521893E1
5.808257814E0,-4.825297356E0,-4.766577721E0,1.021877480E1
5.824923752E0,-4.270174026E0,-6.664916515E0,1.021442223E1
5.841589689E0,-4.547048569E0,-4.569192410E0,8.390151024E0
5.858255627E0,-5.083234787E0,-1.289917350E0,5.154247761E0
5.874921564E0,-6.221657753E0,-8.521563560E-2,2.520199060E0
5.891587502E0,-7.164833069E0,-1.991419196E-1,5.836812854E-1
5.908253439E0,-7.929864883E0,5.970439911E-1,-8.510873318E-1
5.924919377E0,-8.549128532E0,3.790415823E-1,-1.691408157E0
5.941585314E0,-7.483093739E0,7.338013053E-1,-2.780961990E0
5.958251252E0,-5.357055187E0,1.066493511E0,-3.766973972E0
5.974917189E0,-3.007210970E0,2.506683588E0,-4.645168304E0
5.991583127E0,-8.775836229E-1,2.885725260E0,-5.217014313E0
6.008249064E0,-3.586539924E-1,2.981554747E0,-5.221748352E0
6.024915002E0,-1.216842651E0,4.344393730E0,-4.845531940E0
6.041580939E0,-2.012417555E0,6.596194267E0,-4.100506306E0
6.058246877E0,-9.916626215E-1,7.881759167E0,-2.958341837E0
6.074912814E0,2.234543324E0,7.906957150E0,-2.203236580E0
6.091578752E0,5.914927483E0,7.378635883E0,-2.385274172E0
6.108244689E0,8.119614601E0,7.132915497E0,-2.997971535E0
6.124910627E0,8.965585709E0,7.028992176E0,-3.711690664E0
6.141576564E0,9.221079826E0,6.435536861E0,-4.279107571E0
6.158242502E0,9.664873123E0,5.096215725E0,-3.778198719E0
6.174908439E0,9.388915062E0,4.389292717E0,-3.063105106E0
6.191574377E0,8.831501007E0,3.447186232E0,-2.176663876E0
6.208240314E0,7.845260143E0,2.035401344E0,-1.587866664E0
6.224906252E0,6.181416988E0,1.145905972E0,-8.999565244E-1
6.241572189E0,3.976806164E0,1.849087715E0,-5.226711631E-1
6.258238127E0,2.077092886E0,2.734688997E0,8.338304609E-2
6.274904064E0,4.023308158E-1,2.318079233E0,2.062279463E0
6.291570002E0,-1.534339666E0,5.739074349E-1,4.802542686E0
6.308235939E0,-3.828213215E0,-1.064279199E0,7.270588875E0
6.324901877E0,-5.110113144E0,-1.933081627E0,8.356630325E0
6.341567814E0,-4.880809784E0,-1.977216601E0,8.251484871E0
6.358233752E0,-4.736645699E0,-2.555247307E0,8.465440750E0
6.374899689E0,-4.759018421E0,-4.077293396E0,8.672982216E0
6.391565627E0,-4.712516308E0,-3.923966169E0,7.839075089E0
6.408231564E0,-5.403938770E0,-2.518671751E0,6.613527298E0
6.424897502E0,-6.374832153E0,-2.247524261E0,5.666763306E0
6.441563439E0,-5.990292549E0,-2.515159369E0,4.351037025E0
6.458229377E0,-5.016268730E0,-2.132529020E0,2.399629593E0
6.474895314E0,-4.885009289E0,-3.895790279E-1,2.402989268E-1
6.491561252E0,-6.580235481E0,8.883501291E-1,-6.860775352E-1
6.508227189E0,-7.811967850E0,5.350412130E-1,-1.198287606E0
6.524893127E0,-6.900252342E0,2.440404743E-1,-1.983936071E0
6.541559064E0,-4.284300327E0,1.255327106E0,-3.302335024E0
6.558225002E0,-1.692019105E0,2.257527113E0,-4.190455914E0
6.574890939E0,-6.494256258E-1,2.750800371E0,-3.955196619E0
6.591556877E0,-3.681987524E-1,3.284238100E0,-3.075016975E0
6.608222814E0,8.377246857E-1,4.477180481E0,-2.443917274E0
6.624888752E0,3.276984215E0,5.354993343E0,-2.015701056E0
6.641554689E0,5.546499252E0,4.703200817E0,-1.721340537E0
6.658220627E0,7.047012329E0,4.573850155E0,-2.673526049E0
6.674886564E0,8.059673309E0,5.053913593E0,-4.332940102E0
6.691552502E0,9.016135216E0,4.144183159E0,-4.614930630E0
6.708218439E0,9.335846901E0,1.799225807E0,-4.253909588E0
6.724884377E0,7.921617985E0,1.907577991E0,-4.705873013E0
6.741550314E0,5.447081089E0,3.584859848E0,-4.836216450E0
6.758216252E0,4.049575329E0,4.161287308E0,-3.985739946E0
6.774882189E0,3.957411051E0,3.616853952E0,-2.881525517E0
6.791548127E0,4.263072491E0,2.839528561E0,-1.766620994E0
6.808214064E0,4.900357246E0,1.879020095E0,-7.334958911E-1
6.824880002E0,5.257713318E0,6.232348084E-1,6.635518372E-2
6.841545939E0,3.979860306E0,2.298378795E-1,1.095967770E0
6.858211877E0,1.157894135E0,2.793179154E-1,2.585790634E0
6.874877814E0,-1.843895316E0,-1.156825200E-1,4.216341496E0
6.891543752E0,-4.107683659E0,-4.307360351E-1,5.843990803E0
6.908209689E0,-5.124086380E0,-8.981239200E-1,7.072974205E0
6.924875627E0,-4.496499062E0,-2.849378824E0,7.550441265E0
6.941541564E0,-3.301495075E0,-4.203895092E0,7.484009743E0
6.958207502E0,-3.538357973E0,-3.848295450E0,7.437889576E0
6.974873439E0,-5.645383358E0,-2.968650103E0,6.979130268E0
6.991539377E0,-6.682937145E0,-7.225766778E-1,4.461756229E0
7.008205314E0,-6.002281189E0,1.420566082E0,1.197600365E0
7.024871252E0,-4.632798672E0,1.750356674E0,-6.858484149E-1
7.041537189E0,-3.292866707E0,-4.130972922E-2,-4.527271688E-1
7.058203127E0,-2.462777615E0,-2.613890409E0,6.689732671E-1
7.074869064E0,-2.078161955E0,-3.582034826E0,7.845794559E-1
7.091535002E0,-2.179183722E0,-2.146273375E0,-6.069704890E-1
7.108200939E0,-2.764392138E0,1.562286615E-1,-2.753702164E0
7.124866877E0,-2.941924810E0,1.518151641E0,-3.647778988E0
7.141532814E0,-1.583132386E0,2.218889952E0,-3.175809622E0
7.158198752E0,1.291139126E0,2.760956049E0,-2.821813583E0
7.174864689E0,4.487641811E0,3.029965639E0,-3.021413565E0
7.191530627E0,6.135601997E0,2.568609953E0,-3.396942616E0
7.208196564E0,6.174697399E0,2.861519814E0,-4.601720810E0
7.224862502E0,5.950891972E0,3.635943413E0,-5.829558849E0
7.241528439E0,6.132929802E0,3.596695423E0,-5.887972832E0
7.258194377E0,5.901412010E0,2.745455503E0,-5.555509567E0
7.274860314E0,4.288576126E0,2.749960423E0,-5.359345913E0
7.291526252E0,2.438495874E0,4.038656235E0,-4.852480888E0
7.308192189E0,1.915366530E0,4.426937103E0,-3.883878231E0
7.324858127E0,2.615570307E0,3.764454126E0,-2.617250204E0
7.341524064E0,3.457189322E0,2.853883982E0,-1.172478557E0
7.358190002E0,4.119290352E0,1.840153813E0,2.532798052E-1
7.374855939E0,3.606545687E0,1.173089504E0,1.503109097E0
7.391521877E0,1.418428063E0,9.655481577E-1,2.670929909E0
7.408187814E0,-1.875202179E0,8.438333273E-1,4.176787853E0
7.424853752E0,-4.656393051E0,7.826705277E-2,6.076577187E0
7.441519689E0,-5.972196102E0,-1.472107768E0,7.714534760E0
7.458185627E0,-5.540543556E0,-3.444972038E0,8.330592155E0
7.474851564E0,-4.542772293E0,-4.526050091E0,8.296612740E0
7.491517502E0,-5.203880787E0,-4.801015377E0,9.081268311E0
7.508183439E0,-6.142703533E0,-4.754742146E0,9.225814819E0
7.524849377E0,-6.014039993E0,-3.149008036E0,6.898190498E0
7.541515314E0,-5.382711411E0,-6.977602839E-1,2.973155260E0
7.558181252E0,-5.327275276E0,6.872992516E-1,4.234056473E-1
7.574847189E0,-5.034976482E0,-3.919461071E-1,-1.201112866E-1
7.591513127E0,-4.067443371E0,-2.253098488E0,-2.512181401E-1
7.608179064E0,-3.137172461E0,-2.520275354E0,-1.078023672E0
7.624845002E0,-2.840368509E0,-1.636888504E0,-2.313879490E0
7.641510939E0,-2.826395035E0,-1.440113783E-1,-3.509570837E0
7.658176877E0,-2.687423229E0,1.806556225E0,-4.054767609E0
7.674842814E0,-1.570838809E0,3.361741543E0,-3.777435064E0
7.691508752E0,9.093486071E-1,4.141128540E0,-3.453294992E0
7.708174689E0,3.714897871E0,3.948171854E0,-3.280191183E0
7.724840627E0,5.034747601E0,4.074468136E0,-3.251785994E0
7.741506564E0,5.283904076E0,4.628751278E0,-4.640892506E0
7.758172502E0,4.807276726E0,5.042612553E0,-5.335522175E0
7.774838439E0,4.075231552E0,4.494132042E0,-4.265668869E0
7.791504377E0,3.694815636E0,3.953898668E0,-3.951302528E0
7.808170314E0,3.468566656E0,4.244212151E0,-4.088899612E0
7.824836252E0,3.505218506E0,3.503385782E0,-3.303098679E0
7.841502189E0,3.342346668E0,2.534707069E0,-2.134437799E0
7.858168127E0,2.998200655E0,2.487899542E0,-1.145447850E0
7.874834064E0,2.432692528E0,3.130605698E0,-8.277218044E-2
7.891500002E0,1.961563110E0,3.594480991E0,1.178587198E0
7.908165939E0,1.695149779E0,2.431318283E0,2.320675373E0
7.924831877E0,9.102649093E-1,8.663589954E-1,3.753382206E0
7.941497814E0,-7.437278628E-1,-9.750928730E-2,5.200062752E0
7.958163752E0,-2.736674309E0,-1.091997147E0,6.331155300E0
7.974829689E0,-4.697015762E0,-2.265850067E0,7.381918907E0
7.991495627E0,-5.838263988E0,-3.346164465E0,7.871221542E0
8.008161564E0,-5.784125805E0,-4.143037796E0,7.689260483E0
8.024827502E0,-5.966545582E0,-4.680903912E0,7.574188709E0
8.041493439E0,-5.522904873E0,-3.626551390E0,5.604836941E0
8.058159377E0,-4.512763500E0,-8.787289858E-1,1.989510179E0
8.074825314E0,-3.842415810E0,8.604794145E-1,-8.321505189E-1
8.091491252E0,-3.719555616E0,8.526145220E-1,-1.456148863E0
8.108157189E0,-3.869904757E0,-9.367611408E-1,-7.821359634E-1
8.124823127E0,-3.849287987E0,-2.360152483E0,-5.490147322E-2
8.141489064E0,-3.277824163E0,-2.709032536E0,-1.111773923E-1
8.158155002E0,-2.768362761E0,-2.339154005E0,-8.716276884E-1
8.174820939E0,-2.512257814E0,-7.133373618E-1,-2.332587242E0
8.191486877E0,-2.600298643E0,1.235550404E0,-3.268890142E0
8.208152814E0,-2.266079187E0,2.795775414E0,-2.785696030E0
8.224818752E0,-2.982547283E-1,3.751244307E0,-1.487837553E0
8.241484689E0,3.248197079E0,3.521482706E0,-7.971021533E-1
8.258150627E0,6.045499802E0,2.612897635E0,-1.355203509E0
8.274816564E0,6.481886387E0,3.359603643E0,-2.703000307E0
8.291482502E0,5.903779030E0,4.752833366E0,-4.320875645E0
8.308148439E0,5.942111015E0,4.532311440E0,-5.394546986E0
8.324814377E0,6.230057240E0,3.739943266E0,-5.502822876E0
8.341480314E0,5.186394691E0,3.553323984E0,-5.302688122E0
8.358146252E0,3.463145256E0,4.059578419E0,-5.111563683E0
8.374812189E0,2.655963659E0,4.453204155E0,-4.160905361E0
8.391478127E0,3.147404432E0,3.621206522E0,-2.726671219E0
8.408144064E0,4.014603138E0,2.169486284E0,-1.019685984E0
8.424810002E0,4.109745502E0,1.046716809E0,7.289143801E-1
8.441475939E0,3.138088703E0,7.851903439E-1,2.015624762E0
8.458141877E0,1.656283498E0,9.221003652E-1,2.739499569E0
8.474807814E0,-4.976257086E-1,8.543707728E-1,4.067290306E0
8.491473752E0,-3.075704098E0,-7.162389904E-2,6.054280758E0
8.508139689E0,-5.027722359E0,-1.303814530E0,7.490424156E0
8.524805627E0,-5.754117012E0,-1.881158113E0,7.976519585E0
8.541471564E0,-5.387903690E0,-2.690630198E0,8.345405579E0
8.558137502E0,-4.867981434E0,-4.261850834E0,8.946954727E0
8.574803439E0,-5.657600403E0,-4.143037796E0,9.593249321E0
8.591469377E0,-7.135587692E0,-2.330754519E0,8.815923691E0
8.608135314E0,-7.042965412E0,-1.904370934E-1,6.044812202E0
8.624801252E0,-5.423639297E0,8.859829903E-1,2.903516769E0
8.641467189E0,-4.306596756E0,3.704894781E-1,1.407737851E0
8.658133127E0,-4.175718784E0,-1.005636096E0,1.694157124E0
8.674799064E0,-4.430296898E0,-1.816024661E0,1.117195368E0
8.691465002E0,-5.013214588E0,-1.072525859E0,-4.286743701E-1
8.708130939E0,-5.810316563E0,1.109177709E0,-2.547688007E0
8.724796877E0,-5.372555733E0,3.799960613E0,-4.167243004E0
8.741462814E0,-2.513555765E0,4.439459801E0,-3.902509689E0
8.758128752E0,2.174754858E0,3.376096964E0,-3.040732145E0
8.774794689E0,5.893165112E0,3.008508921E0,-2.786765099E0
8.791460627E0,6.771970749E0,3.416643143E0,-3.311803341E0
8.808126564E0,6.312982082E0,4.086456299E0,-3.915796041E0
8.824792502E0,5.852771759E0,4.629438877E0,-4.234667301E0
8.841458439E0,6.583900452E0,4.452135086E0,-4.400746346E0
8.858124377E0,6.824046612E0,3.770104647E0,-4.943805218E0
8.874790314E0,6.769832611E0,3.698709965E0,-5.586816788E0
8.891456252E0,5.822686672E0,2.973536968E0,-4.647306442E0
8.908122189E0,4.805978775E0,2.797989845E0,-3.414505005E0
8.924788127E0,4.350731850E0,3.210705280E0,-2.449567795E0
8.941454064E0,4.712134361E0,2.995299101E0,-1.329852581E0
8.958120002E0,4.578202248E0,1.400789261E0,1.929569095E-1
8.974785939E0,1.791284561E0,-3.215439618E-1,2.613661289E0
8.991451877E0,-3.445811749E0,-1.727602005E0,5.751673698E0
9.008117814E0,-8.476359367E0,-3.166035891E0,8.243696213E0
9.024783752E0,-1.051252460E1,-3.895484686E0,9.194202423E0
9.041449689E0,-8.708412170E0,-3.981387615E0,7.833271980E0
9.058115627E0,-7.227522850E0,-5.337354660E0,7.542729378E0
9.074781564E0,-9.609208107E0,-6.988903999E0,9.267581940E0
9.091447502E0,-9.485584259E0,-4.239630699E0,6.341692924E0
9.108113439E0,-7.706517220E0,-4.209621847E-1,2.243706226E0
9.124779377E0,-6.101469994E0,-8.410080671E-1,7.624356151E-1
9.141445314E0,-7.539980412E0,-3.900371552E0,2.628932953E0
9.158111252E0,-8.646027565E0,-5.622781277E0,3.029278517E0
9.174777189E0,-5.801077366E0,-3.230940104E0,-5.215258002E-1
9.191443127E0,-7.773254514E-1,-2.401080370E0,-4.716028690E0
9.208109064E0,2.509432554E0,-3.696190119E0,-7.671469212E0
9.224775002E0,1.490357399E0,-3.877082348E0,-9.427247047E0
9.241440939E0,-4.194350243E-1,-2.069228172E0,-1.081024456E1
9.258106877E0,2.134208828E-1,1.527161920E-3,-1.138445759E1
9.274772814E0,2.369697094E0,-7.376192212E-1,-1.002658176E1
9.291438752E0,7.126501203E-1,-9.878447056E-1,-7.935362339E0
9.308104689E0,-4.684187412E0,4.570566654E0,-6.680951595E0
9.324770627E0,-8.163978577E0,1.295827484E1,-5.062847137E0
9.341436564E0,-4.222297192E0,1.348629093E1,-2.574260473E0
9.358102502E0,1.311984777E0,6.447372437E0,9.957095981E-1
9.374768439E0,3.549200773E0,6.524035931E-1,1.844506145E0
9.391434377E0,-1.009148598E0,4.567283154E0,1.062370181E0
9.408100314E0,-1.188154888E1,7.831439018E0,3.299433291E-1
9.424766252E0,-1.665324211E1,6.913385868E0,2.322507858E0
9.441432189E0,-1.291253567E1,3.511021614E0,5.033678532E0
9.458098127E0,-8.042492867E0,-1.085430384E0,5.155927658E0
9.474764064E0,-6.716228962E0,-1.979965448E0,4.322097301E0
9.491430002E0,-8.434668541E0,-1.323896646E0,1.751425624E0
9.508095939E0,-8.104572296E0,-1.011592031E0,-1.399567604E0
9.524761877E0,-5.076362610E0,-1.355585337E0,-3.509570837E0
9.541427814E0,-1.658116102E0,-2.672533512E0,-4.398684502E0
9.558093752E0,8.548288941E-1,-4.787881851E0,-4.083402157E0
9.574759689E0,2.330754519E0,-6.108113289E0,-3.278892994E0
9.591425627E0,2.198807716E0,-4.775206566E0,-2.995909929E0
9.608091564E0,1.482263446E0,-2.215912104E0,-3.653505802E0
9.624757502E0,1.109941363E0,-2.769508064E-1,-4.337750912E0
9.641423439E0,2.625191510E-1,5.025126338E-1,-4.278496742E0
9.658089377E0,-1.011592031E0,1.720653415E0,-3.649688005E0
9.674755314E0,-3.478722095E0,3.591655731E0,-2.789514065E0
9.691421252E0,-7.110389709E0,5.683944225E0,-1.281136155E0
9.708087189E0,-8.072731018E0,4.892492294E0,5.375609994E-1
9.724753127E0,-5.990369320E0,1.386433959E0,3.011028767E0
9.741419064E0,-2.535165310E0,-2.978118420E0,5.128667831E0
9.758085002E0,-2.968039215E-1,-4.531318665E0,5.024363041E0
9.774750939E0,-2.976438701E-1,-3.399844170E0,2.262108564E0
9.791416877E0,-1.016020894E0,-3.042106628E0,3.521635532E-1
9.808082814E0,-2.680016518E0,-4.457633018E0,-1.661552191E-1
9.824748752E0,-8.355408669E0,-3.951073408E0,5.604684353E-1
9.841414689E0,-1.369490147E1,-1.094593287E0,3.277289569E-1
9.858080627E0,-1.056628036E1,1.996382475E0,-1.725005746E0
9.874746564E0,-3.288361549E0,5.513054729E-1,-3.124726057E0
9.891412502E0,1.042669773E0,-7.577777505E-1,-2.662148714E0
9.908078439E0,8.584177494E-1,-7.545707226E-1,-2.248669624E0
9.924744377E0,-2.395124435E0,-4.853320718E-1,-1.530369043E0
9.941410314E0,-4.656240463E0,-1.081994250E-1,-9.140827656E-1
9.958076252E0,-4.467636108E0,-4.053851366E-1,-4.809796512E-1
9.974742189E0,-3.081583738E0,-1.267468095E0,1.136208475E-1
9.991408127E0,-1.862908483E0,-2.401996613E0,9.668462276E-1
1.000807406E1,-1.544647932E0,-3.220860958E0,1.763413906E0
1.002474000E1,-2.179183722E0,-3.199022532E0,2.108781576E0
1.004140594E1,-3.680765629E0,-2.423377037E0,2.229580164E0
1.005807188E1,-5.152262688E0,-1.894062638E0,2.102901936E0
1.007473781E1,-5.503204346E0,-1.634368658E0,1.634597778E0
1.009140375E1,-4.755734921E0,-1.463326573E0,1.016326308E0
1.010806969E1,-3.525835037E0,-1.683008790E0,4.778489769E-1
1.012473563E1,-2.615570307E0,-1.968893528E0,9.399681538E-2
1.014140156E1,-2.744157314E0,-1.865962863E0,-1.011744812E-1
1.015806750E1,-3.268431902E0,-9.404263496E-1,-2.305250913E-1
1.017473344E1,-3.676642418E0,-2.831358314E-1,-3.740019500E-1
1.019139938E1,-3.479485750E0,3.446041048E-1,-4.358520210E-1
1.020806531E1,-2.622671604E0,4.756345749E-1,-5.723803043E-1
1.022473125E1,-1.491655469E0,2.628245652E-1,-7.165443897E-1
1.024139719E1,-8.290961981E-1,1.406516135E-1,-5.653553605E-1
1.025806313E1,-1.313817382E0,5.758927464E-1,-6.298015714E-1
1.027472906E1,-2.162003279E0,2.388099432E0,-1.148807526E0
1.029139500E1,-2.137034178E0,4.530784130E0,-1.979889154E0
1.030806094E1,-1.579696298E0,5.138365269E0,-2.625649452E0
1.032472688E1,-1.506468892E0,4.974348068E0,-2.481027365E0
1.034139281E1,-2.055941820E0,5.602775574E0,-1.730045438E0
1.035805875E1,-2.494924545E0,7.115429401E0,-1.069242477E0
1.037472469E1,-1.812741280E0,8.131908417E0,-9.889137149E-1
1.039139063E1,6.293434501E-1,7.721865177E0,-1.301371098E0
1.040805656E1,3.068144798E0,6.736616611E0,-1.875584006E0
1.042472250E1,4.743670464E0,6.760593414E0,-2.731787205E0
1.044138844E1,6.128118992E0,6.712945938E0,-2.717737436E0
1.045805438E1,8.161077499E0,5.445096016E0,-3.168632030E0
1.047472031E1,1.045365238E1,2.971704483E0,-3.829816818E0
1.049138625E1,1.153633404E1,1.025336504E0,-3.804771185E0
1.050805219E1,1.134291935E1,-8.577305079E-1,-3.287216187E0
1.052471813E1,9.844696999E0,-2.710788727E0,-2.069915295E0
1.054138406E1,7.413836956E0,-3.257894516E0,-2.296088040E-1
1.055805000E1,5.229689598E0,-2.458959818E0,1.170111537E0
1.057471594E1,3.578293085E0,-2.610683441E-1,2.412381411E0
1.059138188E1,2.237750292E0,6.315578222E-1,4.632416725E0
1.060804781E1,1.236924767E0,-6.330086291E-2,7.364738464E0
1.062471375E1,-2.840521187E-2,8.552107029E-3,9.432744980E0
1.064137969E1,-1.547244072E0,3.635408878E-1,1.063179588E1
1.065804563E1,-2.653062105E0,-5.920043588E-1,1.127755642E1
1.067471156E1,-3.318064690E0,-1.671936870E0,1.111399746E1
1.069137750E1,-4.205193043E0,-5.056433082E-1,9.737108231E0
1.070804344E1,-4.840950489E0,1.906661689E-1,7.901230335E0
1.072470938E1,-3.963443518E0,-9.732602835E-1,6.583747864E0
1.074137531E1,-1.907119870E0,-1.790215611E0,5.008938313E0
1.075804125E1,-1.237993836E0,-1.994244456E0,3.462305307E0
1.077470719E1,-2.240346670E0,-1.777387381E0,2.249280453E0
1.079137313E1,-3.419239283E0,-1.028849006E0,1.490280986E0
1.080803906E1,-4.344851971E0,-1.308395982E0,1.455156207E0
1.082470500E1,-4.638754368E0,-2.312505007E0,9.715040922E-1
1.084137094E1,-4.466261387E0,-1.817475438E0,-6.753110290E-1
1.085803688E1,-4.230238438E0,-5.826122686E-2,-3.021642685E0
1.087470281E1,-3.646099091E0,1.896811485E0,-4.140670776E0
1.089136875E1,-2.590142965E0,2.876944065E0,-4.264141560E0
1.090803469E1,-1.343291640E0,2.602665663E0,-4.107302189E0
1.092470063E1,-7.404444814E-1,2.503094673E0,-3.936412573E0
1.094136656E1,-1.253418207E0,3.563250542E0,-4.354091644E0
1.095803250E1,-2.156581640E0,5.850709915E0,-5.231827736E0
1.097469844E1,-1.746691465E0,7.524479866E0,-6.543430805E0
1.099136438E1,7.480802536E-1,7.341678143E0,-7.683762550E0
1.100803031E1,3.744601011E0,6.227690220E0,-8.583642960E0
1.102469625E1,5.740372658E0,4.484205723E0,-9.577137947E0
1.104136219E1,6.242656231E0,3.244990110E0,-1.039363480E1
1.105802813E1,5.460291386E0,2.837314129E0,-1.052901840E1
1.107469406E1,3.678933144E0,3.382434607E0,-8.825316429E0
1.109136000E1,2.248745918E0,3.778122187E0,-6.688205719E0
1.110802594E1,2.615494013E0,2.176129341E0,-4.407312870E0
1.112469188E1,3.240332127E0,1.929569095E-1,-2.281885386E0
1.114135781E1,3.631972790E0,-2.841284871E-1,-9.647082090E-1
1.115802375E1,3.137554169E0,6.330086291E-2,-3.397171795E-1
1.117468969E1,1.703854561E0,9.557743073E-1,1.712101221E0
1.119135563E1,-3.947713599E-2,1.814039350E0,5.504960537E0
1.120802156E1,-1.515708208E0,1.541822672E0,9.557514191E0
1.122468750E1,-2.225380421E0,1.679114550E-1,1.202976036E1
1.124135344E1,-2.433837891E0,-7.854194045E-1,1.217002964E1
1.125801938E1,-2.540281296E0,-2.715294063E-1,1.215262032E1
1.127468531E1,-2.707429171E0,-1.248989344E0,1.315672970E1
1.129135125E1,-2.554636478E0,-3.170388222E0,1.221217918E1
1.130801719E1,-2.232023478E0,-2.788750410E0,9.511317253E0
1.132468313E1,-2.324645996E0,-1.670867920E0,7.262876987E0
1.134134906E1,-2.928180218E0,-7.900008559E-1,5.546652317E0
1.135801500E1,-4.217639446E0,1.124754772E-1,3.314552307E0
1.137468094E1,-5.506487846E0,1.406745195E0,1.236390352E0
1.139134688E1,-6.708211422E0,1.825416684E0,5.239692926E-1
1.140801281E1,-7.065109253E0,4.373028278E-1,2.625955045E-1
1.142467875E1,-5.777482510E0,-9.270636439E-1,-6.910407543E-1
1.144134469E1,-3.727802277E0,-1.201723695E0,-2.088393927E0
1.145801063E1,-2.094273567E0,-3.542252183E-1,-3.702909470E0
1.147467656E1,-1.511890292E0,1.206610680E0,-4.373791695E0
1.149134250E1,-2.051894903E0,2.603658438E0,-4.186714649E0
1.150800844E1,-2.845179081E0,4.306749344E0,-3.873875380E0
1.152467438E1,-2.819828272E0,6.282515049E0,-3.520795584E0
1.154134031E1,-6.304124594E-1,7.578083038E0,-3.548971653E0
1.155800625E1,2.900538683E0,8.150386810E0,-4.122955322E0
1.157467219E1,5.253055096E0,6.910178661E0,-5.050706387E0
1.159133813E1,6.829697132E0,5.673101425E0,-6.103913784E0
1.160800406E1,7.914822102E0,5.045514107E0,-6.583900452E0
1.162467000E1,8.792406082E0,4.360734463E0,-6.557175159E0
1.164133594E1,8.803248405E0,3.705353022E0,-6.266251087E0
1.165800188E1,7.467058182E0,2.964450359E0,-5.507174969E0
1.167466781E1,5.595826626E0,1.588935614E0,-3.872882605E0
1.169133375E1,3.987496138E0,9.766200781E-1,-2.318766356E0
1.170799969E1,2.884045362E0,1.562363029E0,-1.221958637E0
1.172466563E1,1.869475245E0,1.637499452E0,9.208786488E-2
1.174133156E1,9.383646846E-1,1.202029228E0,2.261421442E0
1.175799750E1,-1.829539984E-1,6.026180983E-1,5.016650677E0
1.177466344E1,-1.779983640E0,1.557705179E-2,8.136718750E0
1.179132938E1,-3.114494085E0,-2.399934977E-1,9.477185249E0
1.180799531E1,-3.425882339E0,-7.475458086E-2,8.781410217E0
1.182466125E1,-3.794539213E0,-7.859538794E-1,8.900223732E0
1.184132719E1,-4.173581123E0,-1.431790709E0,8.935577393E0
1.185799313E1,-4.242684841E0,-1.062064767E0,7.490729332E0
1.187465906E1,-4.116693974E0,-9.696714878E-1,5.627591610E0
1.189132500E1,-5.439750671E0,-1.594433427E0,5.661800385E0
1.190799094E1,-6.233569622E0,-1.601763844E0,5.243815899E0
1.192465688E1,-5.865218163E0,-6.443096399E-1,2.801273108E0
1.194132281E1,-5.282682419E0,5.441278219E-1,4.461603761E-1
1.195798875E1,-5.004280567E0,5.463421941E-1,1.843284518E-1
1.197465469E1,-4.884245872E0,-1.626656532E0,8.985057473E-1
1.199132063E1,-4.013305187E0,-3.469253778E0,6.544652581E-1
1.200798656E1,-3.127780437E0,-3.376402378E0,-2.625191510E-1
1.202465250E1,-2.980791092E0,-1.109177709E0,-1.843055367E0
1.204131844E1,-3.322798967E0,1.390099168E0,-3.262323380E0
1.205798438E1,-2.805396557E0,2.697731495E0,-3.164661407E0
1.207465031E1,-1.021671295E0,2.274402380E0,-2.295095444E0
1.209131625E1,1.587942958E0,1.663232088E0,-2.348316908E0
1.210798219E1,3.979631424E0,2.524780512E0,-3.334252596E0
1.212464813E1,5.041467190E0,3.148091555E0,-4.406931400E0
1.214131406E1,4.794372082E0,3.545688152E0,-5.255575180E0
1.215798000E1,3.915184975E0,3.988641500E0,-5.170435905E0
1.217464594E1,3.240408659E0,3.532325506E0,-4.251313210E0
1.219131188E1,2.931005478E0,2.946353436E0,-3.764912367E0
1.220797781E1,2.882289171E0,4.192670345E0,-4.491077900E0
1.222464375E1,3.407632828E0,4.293921471E0,-4.416475773E0
1.224130969E1,4.075918674E0,3.134347200E0,-3.537746906E0
1.225797563E1,4.744128704E0,2.514624834E0,-2.563035965E0
1.227464156E1,4.953273296E0,2.548985958E0,-1.502345562E0
1.229130750E1,4.270326614E0,2.131612539E0,7.460185885E-2
1.230797344E1,2.350531340E0,1.254181743E0,1.696447849E0
1.232463938E1,-4.783834815E-1,7.281508446E-1,3.244455576E0
1.234130531E1,-3.162981510E0,8.297070861E-1,4.832856655E0
1.235797125E1,-4.491459846E0,-4.351648092E-1,5.803596973E0
1.237463719E1,-4.951135159E0,-2.213315725E0,6.412095070E0
1.239130313E1,-5.238699913E0,-3.277060509E0,6.913080215E0
1.240796906E1,-5.824901104E0,-4.278726101E0,7.821207047E0
1.242463500E1,-7.561131477E0,-5.032762051E0,9.424039841E0
1.244130094E1,-8.275079727E0,-3.822028160E0,8.988035202E0
1.245796688E1,-6.317410946E0,-2.096335173E0,5.787409306E0
1.247463281E1,-3.534921646E0,-1.127274632E0,2.522718906E0
1.249129875E1,-2.628322124E0,-7.625119686E-1,1.179427147E0
1.250796469E1,-3.401676893E0,-1.022511244E0,1.192255378E0
1.252463063E1,-3.792477608E0,-1.169958711E0,4.935023785E-1
1.254129656E1,-3.359985352E0,-1.026405573E0,-6.247619390E-1
1.255796250E1,-3.180925608E0,-7.774018049E-1,-1.480507135E0
1.257462844E1,-3.461388826E0,5.977311730E-1,-2.633132696E0
1.259129438E1,-3.139004946E0,2.008294344E0,-3.241554022E0
1.260796031E1,-1.128648996E0,2.772486210E0,-2.893971920E0
1.262462625E1,2.290513754E0,2.841055632E0,-2.709567070E0
1.264129219E1,5.067963123E0,2.523558855E0,-3.003164053E0
1.265795813E1,5.901182652E0,2.789132118E0,-3.370751858E0
1.267462406E1,6.022515774E0,3.333183765E0,-3.857229233E0
1.269129000E1,6.635824203E0,3.415268660E0,-4.028042316E0
1.270795594E1,6.274803162E0,2.915428400E0,-3.872119188E0
1.272462188E1,5.138518333E0,3.402364016E0,-4.370203018E0
1.274128781E1,4.573926449E0,4.249022484E0,-5.133326054E0
1.275795375E1,4.825067997E0,3.536219835E0,-4.175337315E0
1.277461969E1,5.411880016E0,2.079689026E0,-2.642295599E0
1.279128563E1,5.336896420E0,4.333322048E-1,-1.412395716E0
1.280795156E1,3.596160889E0,-1.631772518E-1,9.506583214E-2
1.282461750E1,4.105011225E-1,3.405570984E-2,1.996306062E0
1.284128344E1,-2.227976561E0,-2.204458266E-1,3.379991293E0
1.285794938E1,-3.128162146E0,-1.549611211E0,4.472064495E0
1.287461531E1,-2.423147917E0,-3.233307362E0,5.570857525E0
1.289128125E1,-1.585575938E0,-4.226420879E0,5.237401962E0
1.290794719E1,-2.927034855E0,-3.518046618E0,4.954648018E0
1.292461313E1,-5.375686646E0,-4.072940946E-1,3.833252907E0
1.294127906E1,-2.280434608E0,6.800451875E-1,1.485241294E0
1.295794500E1,7.164527416E0,-2.789972067E0,-1.187368408E-1
1.297461094E1,1.205121708E1,-6.137281895E0,-9.805907011E-1
1.299127688E1,8.410691261E0,-5.034289360E0,-1.209894061E0
1.300794281E1,1.609017849E0,-2.775846004E0,-1.410257697E0
1.302460875E1,-1.237535715E0,-1.983172536E0,-1.741651893E0
1.304127469E1,1.158123255E0,-2.997360706E0,-1.557017922E0
1.305794063E1,4.116617680E0,-4.656087875E0,-1.392848015E0
1.307460656E1,2.998888016E0,-4.454578876E0,-2.515312195E0
1.309127250E1,-7.257073522E-1,2.064722925E-1,-2.212170362E0
1.310793844E1,-2.744462729E0,3.245371819E0,-9.823469520E-1
1.312460438E1,-1.426292896E0,2.315101147E0,-8.002328873E-1
1.314127031E1,4.135554433E-1,-8.987347782E-2,-5.658134818E-1
1.315793625E1,1.009377718E0,8.014546037E-1,2.626718581E-2
1.317460219E1,1.986455917E0,4.892263412E-1,2.055560052E-1
1.319126813E1,2.827616692E0,-6.755400896E-1,1.378263682E-1
1.320793406E1,2.919322729E0,-1.180267096E0,-2.935205400E-1
1.322460000E1,1.220889568E0,-5.156462193E-1,-3.648389876E-1
1.324126594E1,-1.090317249E0,7.507528067E-1,3.740783334E-1
1.325793188E1,-1.574885726E0,-1.733328849E-1,1.505399942E0
1.327459781E1,4.757109284E-2,-1.919642568E0,2.613661289E0
1.329126375E1,2.588615894E0,-3.558669090E0,2.929783821E0
1.330792969E1,3.547062635E0,-3.108690977E0,2.359465122E0
1.332459563E1,2.754083872E0,-1.704312682E0,1.660025001E0
1.334126156E1,1.256472468E0,-1.409646869E0,1.964388371E0
1.335792750E1,-7.815251350E-1,-6.054433584E-1,2.682460070E0
1.337459344E1,-2.509279728E0,7.631227970E-1,1.944535255E0
1.339125938E1,-1.816177368E0,2.172769547E0,1.721264243E0
1.340792531E1,7.198277712E-1,3.283627272E0,7.832050323E-1
1.342459125E1,2.308152676E0,4.134103775E0,-4.651735425E-1
1.344125719E1,5.517483234E0,6.504946232E0,-2.885954380E0
1.345792313E1,8.708641052E0,5.037496567E0,-3.491855860E0
1.347458906E1,9.825454712E0,3.128085852E0,-2.970100880E0
1.349125500E1,9.337450027E0,6.311760545E-1,-1.953240156E0
1.350792094E1,6.854131699E0,-1.317788005E0,-9.294307828E-1
1.352458688E1,4.451066017E0,-2.150320292E0,-7.608320713E-1
1.354125281E1,3.077613115E0,-2.445291758E0,-8.326850533E-1
1.355791875E1,2.523864269E0,-2.711781502E0,-7.088322043E-1
1.357458469E1,1.540982723E0,-2.148640394E0,-3.885099888E-1
1.359125063E1,5.353466272E-1,-2.706283808E0,-1.973856837E-1
1.360791656E1,-4.757109284E-2,-3.366704941E0,7.055488229E-2
1.362458250E1,1.023198478E-2,-2.787528753E0,5.246564746E-1
1.364124844E1,4.163807034E-1,-1.982561588E0,2.233474404E-1
1.365791438E1,3.367391974E-2,-2.564868629E-1,-6.375137568E-1
1.367458031E1,-1.026023746E0,1.131626964E0,-1.895208001E0
1.369124625E1,-1.685223222E0,2.070068121E0,-1.798691392E0
1.370791219E1,-1.055421591E0,1.391702652E0,-9.969313145E-1
1.372457813E1,-3.793470263E-1,2.603429317E0,-1.723707676E0
1.374124406E1,-1.700494885E-1,5.944630623E0,-3.877846003E0
1.375791000E1,2.662606835E-1,7.198506832E0,-4.651887894E0
1.377457594E1,1.357952356E0,6.701491833E0,-3.633729219E0
1.379124188E1,2.952691317E0,5.565741539E0,-2.219042778E0
1.380790781E1,4.594695568E0,4.504440308E0,-1.148196697E0
1.382457375E1,5.751215458E0,4.225198746E0,-6.201804876E-1
1.384123969E1,6.376970291E0,4.049040794E0,-6.184242368E-1
1.385790563E1,6.089252949E0,3.798357248E0,-1.243491650E0
1.387457156E1,5.129431725E0,4.549186230E0,-2.204916477E0
1.389123750E1,5.098812103E0,5.465712547E0,-2.905502081E0
1.390790344E1,6.221581459E0,5.150430202E0,-3.376478672E0
1.392456938E1,7.315105915E0,4.644481182E0,-3.320202827E0
1.394123531E1,7.939486027E0,3.823097229E0,-2.861061573E0
1.395790125E1,8.495907784E0,2.310290575E0,-1.937357664E0
1.397456719E1,9.276210785E0,1.954003721E-1,-9.818887711E-1
1.399123313E1,1.012584686E1,-2.069609880E0,-3.189477623E-1
1.400789906E1,1.016662216E1,-3.347920895E0,5.742128938E-2
1.402456500E1,7.653219223E0,-2.170707941E0,1.243491650E0
1.404123094E1,3.922668219E0,1.124754772E-1,2.990183115E0
1.405789688E1,8.537598848E-1,1.880470872E0,4.257040501E0
1.407456281E1,-1.681863427E0,3.415268660E0,5.884002209E0
1.409122875E1,-3.121519089E0,3.208567142E0,8.381675720E0
1.410789469E1,-3.762774229E0,2.167577267E0,1.067318249E1
1.412456063E1,-3.700007915E0,1.279990792E0,1.131039047E1
1.414122656E1,-3.434968948E0,1.854585528E0,1.060560513E1
1.415789250E1,-3.999713421E0,2.958494425E0,1.008331585E1
1.417455844E1,-5.509084225E0,2.755000114E0,1.040722656E1
1.419122438E1,-6.031220913E0,1.167897105E0,1.057742882E1
1.420789031E1,-5.149131775E0,2.389244884E-1,9.634941101E0
1.422455625E1,-4.074544430E0,6.427060962E-1,8.045471191E0
1.424122219E1,-3.256596565E0,4.590648711E-1,6.313440323E0
1.425788813E1,-2.726824045E0,1.332448870E-1,3.936030865E0
1.427455406E1,-3.133354425E0,1.444389820E0,1.960188746E0
1.429122000E1,-4.489398003E0,3.135721684E0,1.080008984E0
1.430788594E1,-4.938612461E0,3.700695276E0,6.905062795E-1
1.432455188E1,-3.205665588E0,2.252105713E0,4.024071693E-1
1.434121781E1,-1.455156207E0,2.968039215E-1,4.092793912E-2
1.435788375E1,-1.226921916E0,-1.450803876E-1,-1.177441835E0
1.437454969E1,-2.437350512E0,2.061974049E0,-3.789194345E0
1.439121563E1,-2.829296589E0,4.860040188E0,-5.386376381E0
1.440788156E1,-4.492910504E-1,5.366981506E0,-5.209301949E0
1.442454750E1,3.419391870E0,3.776213408E0,-4.849349976E0
1.444121344E1,5.718534470E0,2.789972067E0,-5.393859863E0
1.445787938E1,5.055211544E0,4.743594170E0,-5.986093044E0
1.447454531E1,4.684721947E0,7.349543095E0,-6.142168999E0
1.449121125E1,6.796405315E0,7.439187527E0,-6.891547203E0
1.450787719E1,9.587141037E0,5.861400127E0,-8.366098404E0
1.452454313E1,1.082559299E1,3.971308231E0,-1.002345085E1
1.454120906E1,1.078336716E1,3.582263708E0,-1.210894299E1
1.455787500E1,9.978017807E0,3.538434267E0,-1.257953835E1
1.457454094E1,8.233311653E0,3.374417067E0,-1.102526951E1
1.459120688E1,6.623682976E0,2.724075079E0,-9.242689133E0
1.460787281E1,5.693946838E0,8.615484238E-1,-6.401251793E0
1.462453875E1,4.757262230E0,-8.180242777E-1,-3.496742725E0
1.464120469E1,3.982456684E0,-3.946950138E-1,-1.317559004E0
1.465787063E1,2.554636478E0,1.268231630E0,9.547816515E-1
1.467453656E1,1.086499333E0,2.223318815E0,3.179551125E0
1.469120250E1,-5.421425030E-2,2.409327030E0,5.654546261E0
1.470786844E1,-1.575038433E0,2.557767153E0,8.670767784E0
1.472453438E1,-4.248259068E0,2.635728836E0,1.183962822E1
1.474120031E1,-7.200873852E0,2.026620150E0,1.400751114E1
1.475786625E1,-8.084871292E0,1.510363221E-1,1.435608578E1
1.477453219E1,-6.759448051E0,-8.235220909E-1,1.284014893E1
1.479119813E1,-5.072315693E0,-1.121394992E0,1.067012787E1
1.480786406E1,-3.052644014E0,-7.286089659E-1,8.563713074E0
1.482453000E1,-8.809433579E-1,-1.558545113E0,7.182166100E0
1.484119594E1,-2.899316847E-1,-2.051665783E0,5.429824352E0
1.485786188E1,-1.359937668E0,-2.636874199E0,4.107989311E0
1.487452781E1,-2.812115908E0,-2.815246582E0,3.347691774E0
1.489119375E1,-4.628980637E0,-2.713843107E0,2.454760075E0
1.490785969E1,-5.419744968E0,-2.306625366E0,7.221185565E-1
1.492452563E1,-5.455480576E0,-1.241353631E0,-1.676212907E0
1.494119156E1,-6.047561169E0,4.977020919E-1,-4.191066742E0
1.495785750E1,-5.757935047E0,2.302349329E0,-5.229078770E0
1.497452344E1,-2.805778265E0,3.366399527E0,-5.407451153E0
1.499118938E1,6.272817850E-1,3.080667496E0,-5.634769440E0
1.500785531E1,2.349462271E0,3.354793072E0,-5.549401283E0
1.502452125E1,2.319682598E0,4.870272160E0,-5.529013634E0
1.504118719E1,2.542190075E0,6.788158417E0,-6.584053516E0
1.505785313E1,3.757429361E0,7.508062840E0,-8.056848526E0
1.507451906E1,4.578355312E0,5.787714481E0,-9.293162346E0
1.509118500E1,5.420661449E0,4.156705856E0,-1.063675976E1
1.510785094E1,5.833835125E0,3.560043573E0,-1.167362595E1
1.512451688E1,5.447768688E0,3.848066330E0,-1.164331150E1
1.514118281E1,5.170283318E0,3.347538948E0,-1.034545326E1
1.515784875E1,5.367668629E0,2.219119072E0,-8.206892014E0
1.517451469E1,4.750695229E0,9.034690261E-1,-5.412109375E0
1.519118063E1,3.509647131E0,1.220889568E0,-3.150764227E0
1.520784656E1,2.748815060E0,1.802203774E0,-1.786168575E0
1.522451250E1,2.244622707E0,2.563265085E0,4.624246359E-1
1.524117844E1,1.262122989E0,2.420169830E0,4.582402229E0
1.525784438E1,-6.046034098E-1,1.062293887E0,9.236657143E0
1.527451031E1,-3.134652615E0,5.980366468E-1,1.300645638E1
1.529117625E1,-4.723511696E0,8.470403552E-1,1.463792324E1
1.530784219E1,-4.302396774E0,4.993056059E-1,1.444252300E1
1.532450813E1,-3.648389816E0,-3.036761582E-1,1.344528675E1
1.534117406E1,-4.109745502E0,-1.423314959E-1,1.172654247E1
1.535784000E1,-6.125446796E0,1.596342444E0,9.623792648E0
1.537450594E1,-7.621072769E0,2.128329277E0,8.169857979E0
1.539117188E1,-6.872076035E0,1.017624378E0,5.640496254E0
1.540783781E1,-5.085144043E0,-1.480583549E-1,3.173595190E0
1.542450375E1,-3.406411171E0,-8.702532649E-1,1.712635756E0
1.544116969E1,-3.265912294E0,-1.966908216E0,1.735390425E0
1.545783563E1,-4.347448349E0,-2.979034901E0,1.531667113E0
1.547450156E1,-5.220221519E0,-3.034317970E0,6.925679445E-1
1.549116750E1,-5.313607216E0,-1.865504622E0,-1.399262190E0
1.550783344E1,-5.740296364E0,1.226540089E0,-4.036823750E0
1.552449938E1,-5.363240242E0,3.491473913E0,-4.967781544E0
1.554116531E1,-2.931692839E0,3.798509836E0,-4.015672207E0
1.555783125E1,6.096430421E-1,4.069734097E0,-2.945055485E0
1.557449719E1,4.166708469E0,4.775817394E0,-3.612425327E0
1.559116313E1,6.912545681E0,5.133020401E0,-5.174177170E0
1.560782906E1,7.855415821E0,5.598346710E0,-6.260600567E0
1.562449500E1,7.780202866E0,5.641794205E0,-7.831515312E0
1.564116094E1,7.751568794E0,4.936092854E0,-8.355790138E0
1.565782688E1,7.603891850E0,3.646175623E0,-8.171233177E0
1.567449281E1,6.910102367E0,4.239401340E0,-8.481475830E0
1.569115875E1,6.255484581E0,4.085234642E0,-7.502641201E0
1.570782469E1,6.259302139E0,2.195066214E0,-5.473348618E0
1.572449063E1,6.799765110E0,3.361283541E-1,-3.866697788E0
1.574115656E1,6.875894070E0,1.279761642E-1,-3.185201645E0
1.575782250E1,5.762592793E0,1.677969217E0,-2.184757948E0
1.577448844E1,3.697259188E0,2.374584198E0,2.467130125E-1
1.579115438E1,8.570432663E-1,2.144669771E0,3.969628334E0
1.580782031E1,-2.387183189E0,1.072296739E0,8.463836670E0
1.582448625E1,-4.113410473E0,-1.428660005E-1,1.165323830E1
1.584115219E1,-3.885329008E0,-2.118937224E-1,1.226891327E1
1.585781813E1,-3.592495680E0,-2.829830945E-1,1.219125748E1
1.587448406E1,-4.437551022E0,-8.197805285E-1,1.229915142E1
1.589115000E1,-5.620872498E0,-3.019199073E-1,1.200608921E1
1.590781594E1,-7.466065884E0,-3.100138903E-1,1.236772060E1
1.592448188E1,-7.121003628E0,6.666062027E-2,1.054253387E1
1.594114781E1,-5.351786137E0,1.567631721E0,6.416218281E0
1.595781375E1,-4.229856968E0,2.535852432E0,2.126802206E0
1.597447969E1,-4.965567112E0,3.154582024E0,5.108356476E-1
1.599114563E1,-5.814287186E0,1.287168503E0,6.404153705E-1
1.600781156E1,-5.265654564E0,-6.212494969E-1,2.884045243E-1
1.602447750E1,-4.300869942E0,-1.427209258E0,-8.025999665E-1
1.604114344E1,-4.720686436E0,-1.683696061E-1,-2.620304585E0
1.605780938E1,-5.985100269E0,2.533332586E0,-4.540175915E0
1.607447531E1,-5.003593445E0,3.854633093E0,-4.329580307E0
1.609114125E1,-2.741255760E-1,3.029583931E0,-2.848309755E0
1.610780719E1,5.394088745E0,2.109392405E0,-3.012479544E0
1.612447313E1,8.208266258E0,2.492251873E0,-4.662501812E0
1.614113906E1,7.308920860E0,4.093710423E0,-6.424694061E0
1.615780500E1,5.583685875E0,5.757247925E0,-7.681930065E0
1.617447094E1,5.792296410E0,5.659585953E0,-7.846786976E0
1.619113688E1,6.728675365E0,3.938168764E0,-7.078472137E0
1.620780281E1,6.859171391E0,2.849073410E0,-7.760731697E0
1.622446875E1,5.831544399E0,3.847073555E0,-8.628235817E0
1.624113469E1,4.639747143E0,4.509633064E0,-7.590987682E0
1.625780063E1,5.321548462E0,3.824395418E0,-5.541612625E0
1.627446656E1,6.981879234E0,2.281732559E0,-3.875020742E0
1.629113250E1,8.410462379E0,8.368083835E-1,-2.219271660E0
1.630779844E1,8.042645454E0,4.647917449E-1,-7.949641347E-1
1.632446438E1,3.671679020E0,1.546327829E0,4.857138693E-1
1.634113031E1,-3.209941626E0,2.783710718E0,2.833038092E0
1.635779625E1,-7.480191708E0,1.758985162E0,5.426311970E0
1.637446219E1,-8.835089684E0,-8.074868917E-1,7.818687439E0
1.639112813E1,-8.511636734E0,-3.563632488E0,7.923297882E0
1.640779406E1,-7.325414181E0,-4.482831001E0,6.111014843E0
1.642446000E1,-9.005826950E0,-5.543674469E0,6.855430126E0
1.644112594E1,-1.300920582E1,-6.679729939E0,9.001779556E0
1.645779188E1,-1.222218227E1,-3.543473959E0,4.747869968E0
1.647445781E1,-6.582220554E0,-1.339626431E0,-1.068707943E0
1.649112375E1,-3.022711754E0,-5.474875450E0,-9.812015295E-1
1.650778969E1,-4.135020256E0,-8.715360641E0,1.651243806E0
1.652445563E1,-7.199957848E0,-1.040111828E1,3.050658703E0
1.654112156E1,-7.617254734E0,-9.036446571E0,1.825722158E-1
1.655778750E1,-3.982456684E0,-5.342546940E0,-5.602622509E0
1.657445344E1,-6.176606417E-1,-4.667541504E0,-9.090507507E0
1.659111938E1,1.608865142E0,-5.925922871E0,-9.813160896E0
1.660778531E1,2.633514404E0,-6.259607792E0,-9.889747620E0
1.662445125E1,2.565479279E0,-4.516963482E0,-9.470160484E0
1.664111719E1,1.254410863E0,-1.917886376E0,-8.859829903E0
1.665778313E1,5.880337358E-1,2.802342176E-1,-9.814306259E0
1.667444906E1,-2.042273760E0,5.003593445E0,-9.143729210E0
1.669111500E1,-5.951120853E0,8.447649002E0,-7.274635792E0
1.670778094E1,-7.752790451E0,1.111491394E1,-3.567908525E0
1.672444688E1,-6.843288898E0,9.868978500E0,-1.245782375E0
1.674111281E1,-5.577424526E0,8.024930954E0,-1.443168074E-1
1.675777875E1,-6.811753273E0,7.327704906E0,8.183297515E-1
1.677444469E1,-7.888478756E0,7.716902256E0,1.013653755E0
1.679111063E1,-7.484009743E0,6.158433437E0,1.519831538E0
1.680777656E1,-9.654641151E0,5.085983753E0,3.621969938E0
1.682444250E1,-1.281945515E1,3.220937252E0,6.214022160E0
1.684110844E1,-9.440686226E0,-8.823941946E-1,5.547568321E0
1.685777438E1,-4.118679523E0,-4.339048862E0,2.905349255E0
1.687444031E1,-2.703229427E0,-5.333536625E0,1.357188821E0
1.689110625E1,-6.058709621E0,-2.765308380E0,5.419133902E-1
1.690777219E1,-8.454597473E0,-7.648790479E-1,-1.082528710E0
1.692443813E1,-6.795794487E0,-5.174024701E-1,-2.494160891E0
1.694110406E1,-4.199237347E0,-2.395964384E0,-2.994688272E0
1.695777000E1,-8.224530816E-1,-2.574107885E0,-3.094946384E0
1.697443594E1,2.372751474E0,-2.136117697E0,-2.900691509E0
1.699110188E1,3.889834166E0,-2.250884056E0,-2.523024321E0
1.700776781E1,3.544313908E0,-1.964082956E0,-2.271042585E0
1.702443375E1,2.112981319E0,-3.827067912E-1,-2.092822790E0
1.704109969E1,8.211549520E-1,1.162170291E0,-2.023642302E0
1.705776563E1,-4.487565458E-1,1.321911335E0,-2.174678564E0
1.707443156E1,-1.775096655E0,1.421024203E0,-1.916511893E0
1.709109750E1,-2.635041475E0,3.486357927E0,-1.524260283E0
1.710776344E1,-3.003087521E0,4.264065266E0,-1.346880436E0
1.712442938E1,-3.845088243E0,1.913381219E0,5.877282619E-1
1.714109531E1,-4.938154697E0,-4.418843091E-1,4.179002285E0
1.715776125E1,-5.246717453E0,-1.220965981E0,6.368799686E0
1.717442719E1,-4.046826363E0,-1.398651242E0,5.094459534E0
1.719109313E1,-3.296073675E0,-2.066479206E0,1.261893868E0
1.720775906E1,-4.141892433E0,-1.718438983E0,-1.588630199E0
1.722442500E1,-5.439292908E0,-1.730427146E0,-3.043481112E0
1.724109094E1,-6.742267132E0,-2.429714680E0,-4.051789761E0
1.725775688E1,-7.526617527E0,-2.866101265E0,-4.631576538E0
1.727442281E1,-7.631228447E0,-3.349371672E0,-4.684111118E0
1.729108875E1,-7.466065884E0,-4.094091892E0,-4.447782993E0
1.730775469E1,-7.192398071E0,-4.199313641E0,-4.278115273E0
1.732442063E1,-6.622766972E0,-3.702680588E0,-4.198702812E0
1.734108656E1,-5.680049896E0,-3.964054346E0,-3.989176035E0
1.735775250E1,-4.677773476E0,-4.787347317E0,-3.609600067E0
1.737441844E1,-3.988259792E0,-5.605447769E0,-3.057836294E0
1.739108438E1,-3.758651018E0,-5.619574070E0,-2.518977165E0
1.740775031E1,-4.056905746E0,-4.300182819E0,-2.058003426E0
1.742441625E1,-4.447095394E0,-2.974758863E0,-1.820682526E0
1.744108219E1,-4.251618862E0,-2.654436588E0,-1.403461814E0
1.745774813E1,-3.521864414E0,-3.422827959E0,-7.457131743E-1
1.747441406E1,-2.931769133E0,-3.935572624E0,1.167515293E-1
1.749108000E1,-3.018664598E0,-3.459403515E0,9.518036842E-1
1.750774594E1,-3.146182775E0,-2.952996731E0,1.473482251E0
1.752441188E1,-2.735452414E0,-3.443063021E0,2.012952089E0
1.754107781E1,-1.511584878E0,-4.084012985E0,3.308672667E0
1.755774375E1,4.993056059E-1,-3.957716465E0,4.948386669E0
1.757440969E1,2.726365805E0,-3.781863928E0,5.800695419E0
1.759107563E1,4.153116703E0,-3.352960348E0,5.109349251E0
1.760774156E1,3.641823053E0,-2.228434801E0,3.203298569E0
1.762440750E1,1.815566540E0,-7.554106712E-1,1.900934815E0
1.764107344E1,3.590357602E-1,5.307651162E-1,1.950873017E0
1.765773938E1,-1.850920320E-1,1.447138667E0,2.546848059E0
1.767440531E1,8.307760954E-2,1.116966248E0,2.817537546E0
1.769107125E1,6.896663308E-1,-2.169333547E-1,1.935143232E0
1.770773719E1,8.401681185E-1,-1.676823795E-1,6.734784245E-1
1.772440313E1,1.198822167E-2,1.053894520E0,-7.788526267E-2
1.774106906E1,-1.195080638E0,2.263177633E0,-2.926042378E-1
1.775773500E1,-1.990884662E0,2.703458548E0,-4.183660150E-1
1.777440094E1,-2.253480196E0,2.765461206E0,-3.268126547E-1
1.779106688E1,-2.142150164E0,2.995909929E0,-3.324631453E-1
1.780773281E1,-1.994931698E0,3.332114697E0,-4.478402436E-1
1.782439875E1,-1.931401730E0,3.421606302E0,-5.578722358E-1
1.784106469E1,-1.469206095E0,3.309054613E0,-6.905826330E-1
1.785773063E1,-2.995528281E-1,3.517054081E0,-9.208022952E-1
1.787439656E1,9.444733262E-1,3.738950491E0,-1.648800373E0
1.789106250E1,9.821178317E-1,3.988488913E0,-3.161072493E0
1.790772844E1,-1.982256174E-1,5.135921955E0,-4.056676865E0
1.792439438E1,-1.093677044E0,6.977068424E0,-3.678780317E0
1.794106031E1,-6.290380359E-1,8.043027878E0,-3.350058794E0
1.795772625E1,9.741765857E-1,8.098463058E0,-3.406869173E0
1.797439219E1,3.031950951E0,7.530588150E0,-3.534387350E0
1.799105813E1,4.709309101E0,6.573057652E0,-3.791408539E0
1.800772406E1,5.590863705E0,5.420432091E0,-4.486190796E0
1.802439000E1,5.775802612E0,5.014359951E0,-4.808116913E0
1.804105594E1,5.322846413E0,4.543306828E0,-4.625697136E0
1.805772188E1,4.416552544E0,4.101880550E0,-3.824242592E0
1.807438781E1,3.671221018E0,2.984074354E0,-2.369544506E0
1.809105375E1,3.446193695E0,1.315115571E0,-1.056872368E0
1.810771969E1,3.571497202E0,-3.678933084E-1,-3.623191714E-1
1.812438563E1,3.688325167E0,-2.059759617E0,6.108647957E-2
1.814105156E1,3.065243006E0,-3.078682184E0,1.118111610E0
1.815771750E1,1.803272843E0,-3.087845087E0,2.810359716E0
1.817438344E1,5.511527658E-1,-2.555018187E0,4.376693249E0
1.819104938E1,-7.292198390E-2,-2.301051378E0,5.527715206E0
1.820771531E1,5.948295817E-2,-3.386405230E0,6.568628788E0
1.822438125E1,5.810087919E-1,-4.766272545E0,7.696514606E0
1.824104719E1,6.621774435E-1,-4.553309917E0,9.126319885E0
1.825771313E1,3.207803667E-1,-3.805611134E0,1.063401031E1
1.827437906E1,6.108647794E-4,-3.360825300E0,1.045548534E1
1.829104500E1,-5.257254839E-1,-2.206061840E0,7.885271549E0
1.830771094E1,-8.980475664E-1,1.272889525E-1,5.499539375E0
1.832437688E1,-1.125365615E0,7.874810696E-1,4.795899391E0
1.834104281E1,-1.904829144E0,9.735657275E-2,5.119657516E0
1.835770875E1,-3.440084934E0,3.606393039E-1,4.692815781E0
1.837437469E1,-4.869432449E0,2.942077518E-1,3.437717915E0
1.839104063E1,-5.624919415E0,-4.034761786E-1,2.261650562E0
1.840770656E1,-6.136976719E0,-9.549343586E-1,1.421787739E0
1.842437250E1,-6.397815704E0,-1.161406636E0,3.686569035E-1
1.844103844E1,-5.962956429E0,-1.040455461E0,-1.333441496E0
1.845770438E1,-5.135540009E0,-3.994292021E-1,-2.799135208E0
1.847437031E1,-3.844172001E0,6.843212843E-1,-4.287583351E0
1.849103625E1,-2.586630583E0,5.904771686E-1,-5.675773621E0
1.850770219E1,-2.304410934E0,7.091376781E-1,-6.164160252E0
1.852436813E1,-3.029889345E0,2.749349594E0,-5.669359684E0
1.854103406E1,-2.725678682E0,6.021828651E0,-4.916316032E0
1.855770000E1,-3.749182522E-1,7.083893299E0,-4.239248753E0
1.857436594E1,3.012021542E0,5.734263897E0,-4.299113750E0
1.859103188E1,4.961749077E0,4.988092899E0,-4.968774319E0
1.860769781E1,5.252062798E0,5.621559620E0,-5.816120148E0
1.862436375E1,5.614992619E0,7.086489677E0,-7.622599602E0
1.864102969E1,7.023494244E0,6.314814568E0,-9.468556404E0
1.865769563E1,8.135268211E0,4.897684574E0,-9.911434174E0
1.867436156E1,8.023097992E0,3.847379208E0,-9.149379730E0
1.869102750E1,6.280911446E0,2.773860693E0,-7.935896873E0
1.870769344E1,4.188012600E0,2.043571711E0,-5.777711868E0
1.872435938E1,2.477896690E0,1.129641652E0,-3.704436779E0
1.874102531E1,1.655138135E0,1.236084938E0,-2.175671339E0
1.875769125E1,1.682397962E0,1.462028503E0,-8.357393742E-1
1.877435719E1,1.988975763E0,7.825941443E-1,1.575420260E0
1.879102313E1,1.506927013E0,6.325504780E-1,5.633242130E0
1.880768906E1,6.062832847E-2,1.415373683E0,9.767575264E0
1.882435500E1,-1.865733743E0,1.796400547E0,1.240674019E1
1.884102094E1,-3.380220175E0,1.825034857E0,1.258702183E1
1.885768688E1,-3.651749611E0,1.895131588E0,1.235176182E1
1.887435281E1,-3.315621376E0,6.342303753E-1,1.281319427E1
1.889101875E1,-3.149313450E0,-3.937787116E-1,1.228876686E1
1.890768469E1,-3.597077370E0,-1.033888608E-1,1.008690453E1
1.892435063E1,-4.814836025E0,6.379718781E-1,7.957659245E0
1.894101656E1,-5.414934635E0,1.317864418E0,5.413559914E0
1.895768250E1,-5.067123413E0,1.373834848E0,3.017213821E0
1.897434844E1,-4.622337341E0,8.595631123E-1,1.655519962E0
1.899101438E1,-4.319959164E0,1.855501831E-1,7.263945937E-1
1.900768031E1,-4.031860352E0,-5.028944016E-1,-1.267544460E-2
1.902434625E1,-3.914039612E0,-1.407814264E0,-4.537198246E-1
1.904101219E1,-3.700847864E0,-2.052811146E0,-1.034117699E0
1.905767813E1,-3.512930632E0,-1.589393854E0,-2.666043043E0
1.907434406E1,-3.376860619E0,-1.019380614E-1,-5.010847569E0
1.909101000E1,-2.702084064E0,1.825187564E0,-5.935620308E0
1.910767594E1,-1.656207085E0,2.670013666E0,-5.519316196E0
1.912434188E1,-1.763108522E-1,3.030041933E0,-5.064756393E0
1.914100781E1,1.237383008E0,3.971002817E0,-4.755506039E0
1.915767375E1,2.374660492E0,5.157378674E0,-4.652346134E0
1.917433969E1,3.375027895E0,5.897441387E0,-5.462582111E0
1.919100563E1,4.177093506E0,5.518323421E0,-6.736464024E0
1.920767156E1,4.580798626E0,5.567192554E0,-8.368007660E0
1.922433750E1,5.391263485E0,5.471591949E0,-9.246048927E0
1.924100344E1,6.387583733E0,4.686096668E0,-9.306754112E0
1.925766938E1,6.889791012E0,3.939161539E0,-8.935348511E0
1.927433531E1,6.152324677E0,3.486129045E0,-8.089682579E0
1.929100125E1,4.839576244E0,2.527987480E0,-6.108495235E0
1.930766719E1,3.656865597E0,2.036241293E0,-3.685347319E0
1.932433313E1,3.174587965E0,2.433456182E0,-1.617340803E0
1.934099906E1,3.290957689E0,2.928027630E0,-4.146244749E-2
1.935766500E1,3.225518703E0,2.982089043E0,1.923613191E0
1.937433094E1,2.797684431E0,2.350225925E0,4.912803650E0
1.939099688E1,1.453018188E0,1.998138666E0,8.616858482E0
1.940766281E1,-1.090164542E0,1.646127820E0,1.182389832E1
1.942432875E1,-3.231169224E0,1.612988472E0,1.267086315E1
1.944099469E1,-3.869523048E0,2.092899084E0,1.208542538E1
1.945766063E1,-3.860130787E0,1.417893529E0,1.199959850E1
1.947432656E1,-3.861352682E0,-3.297142684E-1,1.118195629E1
1.949099250E1,-4.282314777E0,-3.780489266E-1,9.326225281E0
1.950765844E1,-5.420126915E0,9.423353076E-1,7.246078014E0
1.952432438E1,-6.753491879E0,1.538462996E0,5.744954109E0
1.954099031E1,-6.644452572E0,1.190346360E0,3.921828270E0
1.955765625E1,-5.150582790E0,1.574885726E0,1.262657523E0
1.957432219E1,-4.053851604E0,2.023947716E0,-6.791289449E-1
1.959098813E1,-3.964359760E0,1.834045172E0,-1.110246778E0
1.960765406E1,-4.143037796E0,5.956695080E-1,-9.246202111E-1
1.962432000E1,-3.958709240E0,-1.391702652E0,-1.198287606E0
1.964098594E1,-3.759261847E0,-2.679711103E0,-1.729281783E0
1.965765188E1,-4.053774834E0,-2.670089960E0,-2.483470678E0
1.967431781E1,-4.076682568E0,-2.483241796E0,-3.593335629E0
1.969098375E1,-3.617006779E0,-2.267071962E0,-4.779940605E0
1.970764969E1,-3.349829674E0,-1.968358994E0,-5.677682877E0
1.972431563E1,-3.414810419E0,-1.577940106E0,-6.321305275E0
1.974098156E1,-3.109072685E0,-9.857066870E-1,-6.710120678E0
1.975764750E1,-1.580841660E0,2.985601723E-1,-6.972486973E0
1.977431344E1,8.354339600E-1,1.697211385E0,-6.959047794E0
1.979097938E1,3.019581079E0,2.559676170E0,-6.449968338E0
1.980764531E1,4.195877552E0,3.648466349E0,-5.903244495E0
1.982431125E1,5.333231449E0,5.797717571E0,-5.951808453E0
1.984097719E1,4.840569019E0,7.153455734E0,-4.234591007E0
1.985764313E1,1.823584080E0,5.643779755E0,-8.113811612E-1
1.987430906E1,-1.381317973E0,3.767661333E0,1.141553521E-1
1.989097500E1,-2.591975689E0,5.802909851E0,-1.048396707E0
1.990764094E1,-1.121013284E0,9.390442848E0,-2.221333504E0
1.992430688E1,6.167443395E-1,8.856546402E0,-2.289368391E0
1.994097281E1,1.689117432E0,7.087558746E0,-1.190193653E0
1.995763875E1,2.427042246E0,5.683256626E0,-3.367392123E-1
1.997430469E1,2.807763577E0,5.131034851E0,-1.408806890E-1
1.999097063E1,2.833038092E0,4.959000111E0,-1.463021189E-1
2.000763656E1,3.077383995E0,4.212829113E0,-8.223766834E-2
2.002430250E1,3.521482706E0,2.969031811E0,-9.056070447E-2
2.004096844E1,3.468337536E0,1.866115570E0,-2.451094985E-1
2.005763438E1,2.951927662E0,1.408501506E0,-4.363101721E-1
2.007430031E1,2.285321474E0,1.441335440E0,-5.695550442E-1
2.009096625E1,1.351614714E0,1.059621334E0,-7.019599676E-1
2.010763219E1,-4.123337194E-2,7.091376781E-1,-6.483566165E-1
2.012429813E1,-1.534721375E0,4.727329910E-1,-5.360338688E-1
2.014096406E1,-2.490266562E0,1.260672212E-1,-3.647626340E-1
2.015763000E1,-3.115334034E0,-6.416370869E-1,-2.359465137E-2
2.017429594E1,-3.317148447E0,-1.503414631E0,4.978547990E-1
2.019096188E1,-2.462395906E0,-2.015166521E0,5.752055645E-1
2.020762781E1,-2.604345560E0,-3.681223869E0,8.515455127E-1
2.022429375E1,-6.580693722E0,-5.778398991E0,2.024176836E0
2.024095969E1,-1.133283997E1,-4.521162987E0,2.325714827E0
2.025762563E1,-1.315298748E1,-3.259727061E-1,8.121446967E-1
2.027429156E1,-9.388304710E0,4.024758816E0,-1.441717267E0
2.029095750E1,-5.788554668E0,4.019108295E0,-2.838612318E0
2.030762344E1,-3.582951069E0,2.427042246E0,-2.766224861E0
2.032428938E1,-2.387259483E0,-6.584358811E-1,-1.997222424E0
2.034095531E1,-1.706527114E0,-3.804389477E0,-8.523854613E-1
2.035762125E1,-9.647082090E-1,-5.020697594E0,-5.902481079E-2
2.037428719E1,-7.806851864E-1,-4.166021347E0,-9.529490769E-2
2.039095313E1,-1.202945471E0,-2.437885046E0,-7.065414786E-1
2.040761906E1,-1.726991057E0,-1.407585144E0,-1.362075686E0
2.042428500E1,-1.769293427E0,-1.385365009E0,-1.810832262E0
2.044095094E1,-1.329699874E0,-1.423925757E0,-1.789604783E0
2.045761688E1,-2.956585586E-1,-1.465464592E0,-1.429118156E0
2.047428281E1,1.687972069E0,-1.000672817E0,-7.513636947E-1
2.049094875E1,3.929311275E0,-1.282816008E-2,5.268708616E-2
2.050761469E1,5.448837280E0,8.618538380E-1,4.471530318E-1
2.052428063E1,5.956542492E0,1.571526051E0,7.410553098E-1
2.054094656E1,5.616519928E0,2.642448425E0,7.534253597E-1
2.055761250E1,4.937009335E0,4.111959934E0,7.954223156E-1
2.057427844E1,4.951975346E0,4.891270638E0,1.215391874E0
2.059094438E1,4.644328594E0,2.004400015E0,2.310901403E0
2.060761031E1,4.028805733E0,1.242422581E0,2.039983034E0
2.062427625E1,3.137019634E0,3.086546898E0,7.445678115E-1
2.064094219E1,2.213315725E0,5.873006821E0,2.869537175E-1
2.065760813E1,1.116202712E0,7.803644657E0,7.159335017E-1
2.067427406E1,1.912006736E-1,7.578770161E0,1.293582559E0
2.069094000E1,-3.503309488E-1,5.846434116E0,1.373682141E0
2.070760594E1,-8.419243693E-1,4.100887775E0,1.030757904E0
2.072427188E1,-1.085583091E0,3.512854338E0,8.767436743E-1
2.074093781E1,-7.919861674E-1,3.717494011E0,9.225585461E-1
2.075760375E1,1.311068535E-1,3.727802277E0,1.008461356E0
2.077426969E1,1.350316644E0,3.134805441E0,1.059010506E0
2.079093563E1,2.356334448E0,2.228663683E0,1.018540621E0
2.080760156E1,2.718424559E0,1.105436206E0,7.684679031E-1
2.082426750E1,2.500575066E0,6.110175252E-1,3.972148299E-1
2.084093344E1,1.860006928E0,8.252019882E-1,-3.046688065E-2
2.085759938E1,9.985348582E-1,1.111086726E0,-3.008508980E-1
2.087426531E1,3.359756172E-1,7.034108043E-1,-2.573267817E-1
2.089093125E1,3.074176908E-1,-1.567631811E-1,-1.564577371E-1
2.090759719E1,9.010255337E-1,-5.006036758E-1,-2.474002391E-1
2.092426313E1,1.522885919E0,-1.136972085E-1,-3.639226854E-1
2.094092906E1,1.780059934E0,6.564505696E-1,-2.006690800E-1
2.095759500E1,7.767909169E-1,5.649735332E-1,-1.626427472E-1
2.097426094E1,-1.610468626E0,-8.814778924E-1,-1.660024971E-1
2.099092688E1,-4.091801167E0,-1.926591158E0,1.753181964E-1
2.100759281E1,-4.723130226E0,-1.413159251E0,7.816014886E-1
2.102425875E1,-3.246288061E0,4.402807951E-1,1.239215612E0
2.104092469E1,-5.872701406E-1,2.318155527E0,1.390557289E0
2.105759063E1,1.464701056E0,2.680780172E0,1.071609497E0
2.107425656E1,1.999971271E0,1.127427340E0,6.843976378E-1
2.109092250E1,1.147585869E0,-5.058723688E-1,6.044507027E-1
2.110758844E1,-2.155589163E-1,-5.122864842E-1,8.592576981E-1
2.112425438E1,-1.293353438E0,3.718639314E-1,1.133535981E0
2.114092031E1,-1.545182467E0,1.089401007E0,1.134146810E0
2.115758625E1,-1.000214696E0,1.386433959E0,8.499419689E-1
2.117425219E1,1.883754283E-1,1.533270597E0,6.473639607E-1
2.119091813E1,1.356806993E0,1.487913847E0,6.314814687E-1
2.120758406E1,1.722562313E0,1.006934285E0,7.254019380E-1
2.122425000E1,1.706068993E0,6.231584549E-1,9.652426839E-1
2.124091594E1,1.861839533E0,1.236695766E0,1.296942234E0
2.125758188E1,2.293110132E0,2.493473768E0,1.595807910E0
2.127424781E1,2.128252983E0,2.462014198E0,1.429728985E0
2.129091375E1,6.782889962E-1,1.120631456E0,6.659952998E-1
2.130757969E1,-1.034575820E0,6.879100800E-1,3.579667509E-1
2.132424563E1,-1.956828952E0,1.310152292E0,7.612138987E-1
2.134091156E1,-1.747836828E0,1.724089503E0,1.082757831E0
2.135757750E1,-8.071814775E-1,1.053130865E0,9.909753799E-1
2.137424344E1,2.287688553E-1,4.356229603E-1,6.223948598E-1
2.139090938E1,6.980656981E-1,9.924262166E-1,2.541197538E-1
2.140757531E1,7.399099320E-2,1.712406635E0,1.541669965E-1
2.142424125E1,-1.014417291E0,2.009974241E0,3.229947388E-1
2.144090719E1,-1.583361506E0,1.764024734E0,5.818486810E-1
2.145757313E1,-1.411403060E0,1.172783971E0,8.710168004E-1
2.147423906E1,-7.425061464E-1,5.239692926E-1,1.092073560E0
2.149090500E1,6.215549260E-2,2.159406990E-1,1.135597587E0
2.150757094E1,5.517635942E-1,3.751473427E-1,1.056490660E0
2.152423688E1,5.438223481E-1,6.298015714E-1,9.802852273E-1
2.154090281E1,1.983019859E-1,5.503891706E-1,9.359211922E-1
2.155756875E1,-1.324049383E-1,2.018144578E-1,8.686497211E-1
2.157423469E1,-2.070831656E-1,-1.306487024E-1,7.375428677E-1
2.159090063E1,-2.412915789E-2,-3.735437989E-1,6.112465858E-1
2.160756656E1,3.429242074E-1,-2.557232678E-1,5.597048402E-1
2.162423250E1,6.992111206E-1,-2.260199748E-2,4.495964646E-1
2.164089844E1,8.333722949E-1,-5.383246019E-2,2.889390290E-1
2.165756438E1,7.711403966E-1,-2.470948100E-1,1.296560466E-1
2.167423031E1,6.740128994E-1,-2.458730787E-1,8.269581944E-2
2.169089625E1,6.235402226E-1,-1.178205460E-1,1.446985900E-1
2.170756219E1,6.230821013E-1,9.239329956E-3,1.783725172E-1
2.172422813E1,6.383537054E-1,7.383827865E-2,2.024253160E-1
2.174089406E1,4.948768318E-1,3.512472380E-3,1.169806048E-1
2.175756000E1,1.333975941E-1,-7.307469845E-2,8.857539296E-2
2.177422594E1,-3.941605091E-1,-1.969275326E-1,1.107192412E-1
2.179089188E1,-8.635337353E-1,-1.541669965E-1,1.207221523E-1
2.180755781E1,-9.824233055E-1,3.755291104E-1,2.004400045E-1
2.182422375E1,-8.436806202E-1,8.105412126E-1,3.064250350E-1
2.184088969E1,-6.120865345E-1,7.979421020E-1,4.021781087E-1
2.185755563E1,-3.679696620E-1,3.764454126E-1,4.491383433E-1
2.187422156E1,-1.569922417E-1,1.234710440E-1,4.958694875E-1
2.189088750E1,-4.955640435E-2,2.114355713E-1,5.545888543E-1
2.190755344E1,-1.404988952E-2,3.549124300E-1,6.126210093E-1
2.192421938E1,4.970912263E-2,4.140135944E-1,6.107884049E-1
2.194088531E1,8.414662629E-2,3.333030939E-1,5.111411214E-1
2.195755125E1,6.643154472E-2,2.528980076E-1,4.442514181E-1
2.197421719E1,-3.741546720E-2,2.092211843E-1,3.649153411E-1
2.199088313E1,-2.112064958E-1,1.170569658E-1,1.885281354E-1
2.200754906E1,-4.326449931E-1,1.041524485E-1,-8.017600514E-3
2.202421500E1,-6.785180569E-1,2.540434003E-1,-8.437569439E-2
2.204088094E1,-8.122974634E-1,5.270236135E-1,-9.773836471E-3
2.205754688E1,-7.080686092E-1,5.891027451E-1,5.329795182E-2
2.207421281E1,-3.971384764E-1,4.095084667E-1,6.055197120E-2
2.209087875E1,-6.268999726E-2,1.665370166E-1,5.154171586E-2
2.210754469E1,9.628756344E-2,2.893971838E-2,9.468404204E-2
2.212421063E1,7.903063297E-2,-2.176205814E-2,1.831830740E-1
2.214087656E1,-1.985310577E-2,-4.352411628E-2,2.467130125E-1
2.215754250E1,-9.827287495E-2,-8.422297984E-2,2.932914495E-1
2.217420844E1,-1.485928595E-1,-1.933387071E-1,3.145953715E-1
2.219087438E1,-1.411861181E-1,-3.238346875E-1,3.000109792E-1
2.220754031E1,-6.597339362E-2,-3.798815310E-1,1.968511790E-1
2.222420625E1,2.756527252E-2,-2.577849329E-1,3.840812296E-2
2.224087219E1,-2.657261863E-2,-1.377500147E-1,-8.918625861E-2
2.225753813E1,-2.105192691E-1,-1.014035568E-1,-1.093447953E-1
2.227420406E1,-3.687332571E-1,-2.680169232E-2,-8.796452731E-2
2.229087000E1,-4.381427765E-1,-3.000873141E-2,-9.582941234E-2
2.230753594E1,-4.562396407E-1,-2.280816436E-1,-1.472947747E-1
2.232420188E1,-4.159225523E-1,-4.677697122E-1,-1.759290546E-1
2.234086781E1,-3.136790693E-1,-4.754055142E-1,-1.731038094E-1
2.235753375E1,-2.674060464E-1,-4.101193547E-1,-1.476002038E-1
2.237419969E1,-3.125337064E-1,-3.219257295E-1,-6.879864633E-2
2.239086563E1,-3.827831447E-1,-2.163988501E-1,6.879864633E-2
2.240753156E1,-5.348884463E-1,-1.434005052E-1,1.183550507E-1
2.242419750E1,-6.349175572E-1,-2.965748608E-1,-3.184132650E-2
2.244086344E1,-5.851321220E-1,-3.900371492E-1,-1.130863428E-1
2.245752938E1,-4.437169135E-1,-3.094030023E-1,-1.089630052E-1
2.247419531E1,-2.835176289E-1,-2.258672565E-1,-9.086613357E-2
2.249086125E1,-1.421024203E-1,-2.452622056E-1,-6.986765563E-2
2.250752719E1,-1.908952487E-3,-4.026362598E-1,-7.154753804E-2
2.252419313E1,1.588248461E-1,-3.239873946E-1,-8.407026529E-2
2.254085906E1,2.680169344E-1,-7.864884287E-2,-4.314232618E-2
2.255752500E1,2.450331300E-1,-1.763872057E-2,-2.741255611E-2
2.257419094E1,1.220202371E-1,-1.362992078E-1,-5.490147322E-2
2.259085688E1,-1.305723470E-2,-3.321577311E-1,-1.046105921E-1
2.260752281E1,-1.037706509E-1,-3.656025827E-1,-1.494327933E-1
2.262418875E1,-1.243873388E-1,-2.016617358E-1,-1.499672979E-1
2.264085469E1,-1.087339297E-1,-8.895718306E-2,-1.403461844E-1
2.265752063E1,-8.101594448E-2,-8.559742570E-2,-1.610392332E-1
2.267418656E1,-1.908952370E-2,-7.307469845E-2,-1.578321904E-1
2.269085250E1,6.979130208E-2,1.267544460E-2,-1.333212405E-1
2.270751844E1,1.579848975E-1,4.161516204E-2,-1.450040340E-1
2.272418438E1,2.149480432E-1,-5.031998456E-2,-1.802814752E-1
2.274085031E1,2.206749022E-1,-1.414151937E-1,-1.964693815E-1
2.275751625E1,1.682932526E-1,-1.957821548E-1,-1.805105358E-1
2.277418219E1,6.307178736E-2,-2.797760665E-1,-2.116646469E-1
2.279084813E1,-5.268708616E-2,-3.457494676E-1,-2.353356630E-1
2.280751406E1,-1.200349256E-1,-2.887863219E-1,-2.401462197E-1
2.282418000E1,-1.362228394E-1,-1.488982886E-1,-2.252563834E-1
2.284084594E1,-1.410334110E-1,-1.389717404E-2,-1.763872057E-1
2.285751188E1,-1.350774765E-1,-1.656970754E-2,-1.605810821E-1
2.287417781E1,-1.024725661E-1,-1.593593508E-1,-2.135736048E-1
2.289084375E1,-6.429351866E-2,-2.346484363E-1,-2.322049737E-1
2.290750969E1,-3.726275265E-2,-1.196531355E-1,-1.340084672E-1
2.292417563E1,-4.436405376E-2,1.201876476E-1,-1.878409274E-2
2.294084156E1,-4.130972922E-2,2.363283187E-1,7.078395784E-2
2.295750750E1,4.283689335E-2,1.870773435E-1,1.327867359E-1
2.297417344E1,1.501200199E-1,8.422297984E-2,1.069776937E-1
2.299083938E1,1.890626550E-1,4.917461425E-2,1.099556591E-2
2.300750531E1,1.527925581E-1,-1.320995111E-2,-3.520108387E-2
2.302417125E1,4.184423760E-2,-7.078395784E-2,-6.559160352E-2
2.304083719E1,-8.674279600E-2,-1.459966749E-1,-7.292198390E-2
2.305750313E1,-1.534034163E-1,-9.361502528E-2,-6.925679743E-2
2.307416906E1,-1.304196268E-1,1.702785492E-2,-7.864884287E-2
2.309083500E1,-1.130099818E-1,-1.221729536E-2,-1.087339297E-1
2.310750094E1,-1.354592592E-1,-1.399643868E-1,-1.132390574E-1
2.312416688E1,-1.821904182E-1,-1.923460513E-1,-1.450040340E-1
2.314083281E1,-2.336557806E-1,-1.698204130E-1,-1.692095399E-1
2.315749875E1,-2.596938908E-1,-8.758273721E-2,-1.785252392E-1
2.317416469E1,-2.028071135E-1,1.756236330E-2,-1.697440445E-1
2.319083063E1,-6.658425927E-2,1.066722646E-1,-2.139553875E-1
2.320749656E1,5.467239767E-2,8.765909821E-2,-2.809978127E-1
2.322416250E1,7.299833745E-2,2.191477455E-2,-3.620137274E-1
2.324082844E1,-1.641699113E-2,-1.756236190E-3,-3.948477209E-1
2.325749438E1,-1.541669965E-1,-2.306014486E-2,-3.813323379E-1
2.327416031E1,-2.584721744E-1,-4.749473557E-2,-3.281871080E-1
2.329082625E1,-2.545779049E-1,-7.032580674E-2,-2.722166181E-1
2.330749219E1,-1.701258421E-1,-6.459894776E-2,-2.411388755E-1
2.332415813E1,-8.208495378E-2,-8.147408813E-2,-1.932623386E-1
2.334082406E1,-3.970621154E-2,-1.308777779E-1,-1.483637840E-1
2.335749000E1,-2.626718581E-2,-1.828776449E-1,-1.243109852E-1
2.337415594E1,1.114828233E-2,-1.844048053E-1,-1.203403622E-1
2.339082188E1,5.375609919E-2,-1.422551423E-1,-1.367573589E-1
2.340748781E1,2.076940238E-2,-1.205694377E-1,-1.774562150E-1
2.342415375E1,-9.506583214E-2,-1.277471036E-1,-2.093739063E-1
2.344081969E1,-2.079994529E-1,-8.147408813E-2,-2.086103261E-1
2.345748563E1,-2.613737583E-1,-9.376774728E-2,-2.155589163E-1
2.347415156E1,-2.738964856E-1,-1.808159798E-1,-2.451858521E-1
2.349081750E1,-2.370155305E-1,-1.760817766E-1,-2.462548614E-1
2.350748344E1,-1.474474818E-1,-8.620829135E-2,-2.313650399E-1
2.352414938E1,-5.894844979E-2,1.015562657E-2,-2.161697745E-1
2.354081531E1,-1.641699113E-2,2.848157100E-2,-2.047924101E-1
2.355748125E1,-3.115410358E-2,-5.261072889E-2,-2.007454336E-1
2.357414719E1,-7.040216774E-2,-5.765036494E-2,-1.861610413E-1
2.359081313E1,-9.873101860E-2,-2.619082667E-2,-1.640935540E-1
2.360747906E1,-1.117118970E-1,-6.131555140E-2,-1.775325835E-1
2.362414500E1,-1.017853469E-1,-1.098793000E-1,-1.947895139E-1
2.364081094E1,-6.414080411E-2,-1.384372264E-1,-1.889099330E-1
2.365747688E1,-5.261072889E-2,-1.249982044E-1,-1.576794684E-1
2.367414281E1,-7.200568914E-2,-8.147408813E-2,-1.284343153E-1
2.369080875E1,-1.488982886E-1,-9.850194305E-2,-1.243873388E-1
2.370747469E1,-2.363283187E-1,-2.147189677E-1,-1.482874304E-1
2.372414063E1,-2.799287736E-1,-2.761108875E-1,-1.605047137E-1
2.374080656E1,-2.625955045E-1,-2.509890795E-1,-1.543197185E-1
2.375747250E1,-2.210566849E-1,-2.139553875E-1,-1.468366235E-1
2.377413844E1,-2.083812505E-1,-2.107483447E-1,-1.266780794E-1
2.379080438E1,-2.148716897E-1,-1.868482679E-1,-1.169806048E-1
2.380747031E1,-1.918115467E-1,-9.911280870E-2,-1.071304083E-1
2.382413625E1,-1.537852138E-1,1.771507785E-2,-1.065959036E-1
2.384080219E1,-1.239291951E-1,5.894844979E-2,-1.089630052E-1
2.385746813E1,-1.067486182E-1,1.962403022E-2,-1.073594838E-1
2.387413406E1,-9.392046183E-2,-5.474875495E-2,-1.091157198E-1
2.389080000E1,-8.239039034E-2,-4.810560122E-2,-8.743002266E-2
2.390746594E1,-5.085449293E-2,-1.916588284E-2,-6.956222653E-2
2.392413188E1,-6.872228696E-4,-1.527161989E-2,-8.345939964E-2
2.394079781E1,5.673406646E-2,1.000291109E-2,-9.552398324E-2
2.395746375E1,5.940660089E-2,1.412624773E-2,-1.065959036E-1
2.397412969E1,-3.878991306E-2,-1.962403022E-2,-1.026252806E-1
2.399079563E1,-1.615737379E-1,-6.696604937E-2,-8.292489499E-2
2.400746156E1,-2.083048970E-1,-8.269581944E-2,-5.994110554E-2
2.402412750E1,-1.721111536E-1,-4.046979174E-2,-6.856957078E-2
2.404079344E1,-1.198822111E-1,-4.199695215E-2,-8.368847519E-2
2.405745938E1,-9.850194305E-2,-1.201876476E-1,-9.216422588E-2
2.407412531E1,-1.170569658E-1,-2.770271897E-1,-1.343138963E-1
2.409079125E1,-2.105192691E-1,-4.268417656E-1,-2.591593862E-1
2.410745719E1,-2.963457704E-1,-5.352702737E-1,-2.806923687E-1
2.412412313E1,-3.508654535E-1,-4.809032977E-1,-3.136027157E-1
2.414078906E1,-3.949240744E-1,-4.786889255E-1,-3.222311735E-1
2.415745500E1,-4.356993139E-1,-5.091558099E-1,-3.706422150E-1
2.417412094E1,-5.083158612E-1,-5.889499784E-1,-4.207331240E-1
2.419078688E1,-5.871937871E-1,-7.057015300E-1,-4.030180275E-1
2.420745281E1,-6.392700076E-1,-6.481275558E-1,-4.027126133E-1
2.422411875E1,-6.266708970E-1,-5.054142475E-1,-4.134790897E-1
2.424078469E1,-5.193114281E-1,-6.258309484E-1,-4.279107749E-1
2.425745063E1,-3.811796308E-1,-5.782598853E-1,-4.849502742E-1
2.427411656E1,-2.832885385E-1,-2.816850245E-1,-5.312996507E-1
2.429078250E1,-2.283107042E-1,-1.907425225E-1,-5.193114281E-1
2.430744844E1,-2.092211843E-1,-2.425896823E-1,-4.308887422E-1
2.432411438E1,-2.326631248E-1,-1.324812919E-1,-3.260490894E-1
2.434078031E1,-2.951240540E-1,-1.824958436E-2,-2.244928032E-1
2.435744625E1,-3.868301213E-1,-1.082757786E-1,-1.330921650E-1
2.437411219E1,-4.295906425E-1,-2.429714650E-1,-1.027780026E-1
2.439077813E1,-3.501782417E-1,-2.535088956E-1,-1.151480079E-1
2.440744406E1,-1.582903415E-1,-1.521053314E-1,-8.720094711E-2
2.442411000E1,8.315397054E-2,2.344193682E-2,-2.107483521E-2
2.444077594E1,1.070540547E-1,4.749473631E-1,6.375901401E-2
2.445744188E1,-1.924224049E-1,6.584358811E-1,3.624718785E-1
2.447410781E1,-3.287216127E-1,1.934914142E-1,3.153589368E-1
2.449077375E1,-3.216966689E-1,-2.046396956E-2,2.123518735E-1
2.450743969E1,-3.297142684E-1,2.256381810E-1,8.277218044E-2
2.452410563E1,-4.517345130E-1,4.836521745E-1,7.292198390E-2
2.454077156E1,-4.728093445E-1,3.227656782E-1,1.521053314E-1
2.455743750E1,1.072067693E-1,3.518581092E-1,-1.298087649E-2
2.457410344E1,6.916516423E-1,4.880045950E-1,-1.850156635E-1
2.459076938E1,6.071232557E-1,4.772381186E-1,-8.368847519E-2
2.460743531E1,3.122282624E-1,5.221366882E-1,6.536252797E-2
2.462410125E1,1.433241516E-1,5.041161776E-1,1.191186309E-1
2.464076719E1,-1.182023361E-1,1.117118970E-1,8.735366166E-2
2.465743313E1,-1.949422210E-1,-1.693622619E-1,5.497783050E-2
2.467409906E1,-2.252563834E-2,7.078395784E-2,4.558578506E-2
2.469076500E1,6.750056148E-2,3.974438906E-1,2.054032870E-2
2.470743094E1,-4.398226365E-2,4.071413875E-1,-1.611155830E-2
2.472409688E1,-3.825540841E-2,3.596466482E-1,-4.138609022E-2
2.474076281E1,2.261726856E-1,4.873937368E-1,-3.176496923E-2
2.475742875E1,3.455967605E-1,5.181660652E-1,-2.535088919E-2
2.477409469E1,2.897026241E-1,3.509418070E-1,-5.421425030E-2
2.479076063E1,1.724929363E-1,5.230529606E-2,-8.895718306E-2
2.480742656E1,7.002037764E-2,-3.634645417E-2,-6.467530876E-2
2.482409250E1,5.642863363E-2,1.035415828E-1,-2.611446939E-2
2.484075844E1,1.038470119E-2,2.368628234E-1,-3.489565104E-2
2.485742438E1,-2.307541668E-1,4.147771895E-1,1.099556591E-2
2.487409031E1,-1.954767257E-1,3.874409795E-1,-8.704823442E-3
2.489075625E1,-4.062250629E-2,1.579848975E-1,-7.231111825E-2
2.490742219E1,6.895136088E-2,-7.635809598E-4,-9.842558950E-2
2.492408813E1,1.317940801E-1,-2.051742077E-1,-9.750928730E-2
2.494075406E1,1.964693815E-1,-3.867537677E-1,-8.559742570E-2
