"Time (s)","Linear Acceleration x (m/s^2)","Linear Acceleration y (m/s^2)","Linear Acceleration z (m/s^2)"
2.517750200E-2,0.000000000E0,0.000000000E0,0.000000000E0
4.184343900E-2,4.049173594E-1,-1.684775352E-1,8.769092560E-1
5.850937700E-2,2.759360075E-1,2.854871750E-2,9.448308945E-1
7.517531400E-2,-3.133822680E-1,2.989330292E-1,3.253087997E-1
9.184125200E-2,-7.577211857E-1,4.905786514E-1,2.134838104E-1
1.085071890E-1,-5.002169609E-1,3.949928284E-1,-1.641855240E-1
1.251731270E-1,7.980632782E-2,-5.630445480E-2,-7.181339264E-1
1.418390640E-1,4.692237973E-1,-2.419428825E-1,-1.072964191E0
1.585050020E-1,2.349716425E-1,1.160531044E-1,-1.144496441E0
1.751709390E-1,6.092655659E-2,1.764302254E-1,-8.364682198E-1
1.918368770E-1,-2.427848577E-1,-1.405305862E-1,-5.818190575E-1
2.085028140E-1,-6.848119497E-1,1.476049423E-1,6.525230408E-2
2.251687520E-1,-5.893304348E-1,3.045215607E-1,3.619747162E-1
2.418346890E-1,-4.970612526E-1,3.693199158E-1,2.692422867E-1
2.585006270E-1,-7.014864683E-1,6.301059723E-1,-1.788234711E-2
2.751665640E-1,-9.011759758E-1,7.004833221E-2,-7.619667053E-1
2.918325020E-1,-9.008206129E-1,-5.125808716E-2,-9.953775406E-1
3.084984390E-1,-1.279523373E-1,5.975255966E-1,-9.716901779E-1
3.251643770E-1,-2.410162687E-1,1.012773514E-1,-1.849237919E0
3.418303140E-1,6.924667358E-1,-1.008574963E-1,-5.861167908E-1
3.584962520E-1,1.668445110E0,-5.947422981E-1,2.185417175E0
3.751621890E-1,1.444410086E0,-1.019485593E0,1.636521339E0
3.918281270E-1,1.045957804E0,-4.127120972E-1,1.245457649E0
4.084940640E-1,6.568481922E-1,4.452939034E-1,1.617020607E0
4.251600020E-1,-1.221391678E0,7.542166710E-1,7.539243698E-1
4.418259390E-1,-5.206768513E-1,-1.188722253E0,3.956794739E-2
4.584918770E-1,6.177595854E-1,-2.882059097E0,5.091466904E-1
4.751578140E-1,-9.676861763E-2,-1.521100044E0,-5.783309937E-1
4.918237520E-1,-1.225717068E0,1.644199133E0,9.934597015E-1
5.084896890E-1,-7.707214355E-1,2.996626377E0,1.641246796E0
5.251556270E-1,7.881426811E-2,1.991471410E0,-1.570005417E-1
5.418215640E-1,7.179123163E-1,-3.167208433E-1,-2.080760479E0
5.584875020E-1,9.572156668E-1,-1.973602653E0,-1.276822090E0
5.751534390E-1,1.101474166E0,-9.977294207E-1,2.070990562E0
5.918193770E-1,7.262377739E-1,1.370857239E0,1.846175194E0
6.084853140E-1,9.276922941E-1,8.025139570E-1,-1.327306747E0
6.251512520E-1,9.358810186E-1,4.420114756E-1,-2.292847157E0
6.418171890E-1,5.189749002E-1,3.006077409E-1,2.658672333E-1
6.584831270E-1,-6.991076469E-2,-2.430151463E0,4.074107170E0
6.751490640E-1,-1.717023611E0,-1.258039236E0,1.361456871E0
6.918150020E-1,-7.900916338E-1,-5.514516234E-1,-4.697833061E0
7.084809390E-1,5.322132111E-1,-3.026112318E-1,-4.007961750E0
7.251468770E-1,-5.293989182E-1,6.364657879E-1,-1.746247292E0
7.418128140E-1,-7.683280110E-1,-6.625950336E-2,-4.980659485E-1
7.584787520E-1,-3.858891726E-1,1.695210934E-1,1.967091560E0
7.751446890E-1,-6.550835371E-1,-2.421442270E-1,1.539922714E0
7.918106270E-1,-1.290073752E0,-1.010816097E-1,-2.365281105E0
8.084765640E-1,-9.480679035E-1,9.072990417E-1,-3.024279118E0
8.251425020E-1,-4.367496073E-1,9.308886528E-1,-1.561120033E0
8.418084390E-1,3.306391835E-1,9.140851498E-1,-1.787660122E0
8.584743770E-1,6.343840361E-1,1.140458703E0,9.093666077E-2
8.751403140E-1,2.320540905E0,1.277922988E0,7.569122314E-1
8.918062520E-1,2.136142015E0,2.676175833E-1,1.100086212E0
9.084721890E-1,8.906724453E-1,-1.906955004E0,1.710697174E0
9.251381270E-1,1.289195299E0,-6.125668287E-1,3.831075668E0
9.418040640E-1,-1.132369637E-1,1.291816235E-1,2.550393105E0
9.584700020E-1,-1.204056978E0,1.625490189E-1,-1.439640045E0
9.751359390E-1,1.199335814E0,1.340492010E0,-4.081233978E0
9.918018770E-1,-2.978303432E-1,-2.819490433E-1,-4.179705143E0
1.008467814E0,-1.185156345E0,-3.747229576E-1,-2.366164207E0
1.025133752E0,-3.441129923E-1,3.944637775E-1,8.755235672E-1
1.041799689E0,3.885043859E-1,9.089406729E-1,1.844878197E0
1.058465627E0,3.742753267E-1,6.779571772E-1,1.239446640E0
1.075131564E0,-5.517635345E-1,2.363439798E-1,2.986373901E-1
1.091797502E0,-6.303528547E-1,-1.148519754E0,-5.685806274E-3
1.108463439E0,3.144483566E-1,-1.968095422E0,8.488445282E-1
1.125129377E0,4.908550978E-1,-6.779882312E-1,1.778944016E0
1.141795314E0,-3.485780954E-1,1.074177504E0,1.413556099E0
1.158461252E0,-1.041336179E0,2.439161301E0,6.230573654E-1
1.175127189E0,-8.434646130E-1,2.327034712E0,-4.679822922E-1
1.191793127E0,-7.188386917E-1,5.211803913E-1,-1.207318306E0
1.208459064E0,-6.331007481E-1,-1.408357382E0,-1.175126076E0
1.225125002E0,-2.315356731E-1,-1.829303741E0,-2.654600143E-1
1.241790939E0,1.194608212E-1,6.776046753E-2,1.108542442E0
1.258456877E0,2.910521030E-1,1.046301365E0,7.865076065E-1
1.275122814E0,1.628901958E-1,7.631969452E-1,1.398382187E-1
1.291788752E0,-4.159755707E-1,6.629252434E-1,-2.840976715E-1
1.308454689E0,-5.936026573E-1,9.442117214E-1,-1.855316162E-1
1.325120627E0,-7.759122849E-1,9.294197559E-1,-3.910875320E-1
1.341786564E0,-1.432091475E0,9.636404514E-1,-7.039031982E-1
1.358452502E0,-1.637573838E0,9.310693741E-1,-4.994430542E-1
1.375118439E0,-7.139198780E-1,5.399489403E-1,5.332822800E-1
1.391784377E0,-5.484931469E-1,7.905946970E-1,7.384366989E-1
1.408450314E0,-6.283135414E-1,9.551897049E-1,1.442756653E-1
1.425116252E0,-6.162004471E-1,8.368293047E-1,-2.438764572E-1
1.441782189E0,-7.929363251E-1,9.761722088E-1,3.658008575E-1
1.458448127E0,-7.589321136E-1,6.445766687E-1,7.998247147E-1
1.475114064E0,-5.866184235E-1,5.194275379E-1,5.812654495E-1
1.491780002E0,-7.147521973E-1,4.781434536E-1,2.470006943E-1
1.508445939E0,-8.009729385E-1,1.356034279E-1,2.816934586E-1
1.525111877E0,-1.051471233E0,-1.192250252E-1,1.914482117E-1
1.541777814E0,-1.383287191E0,-2.206368446E-1,-2.191123962E-1
1.558443752E0,-1.442761183E0,7.571828365E-2,-5.490379333E-1
1.575109689E0,-1.121825695E0,4.557713270E-1,-4.127769470E-1
1.591775627E0,-5.814752579E-1,3.368387222E-1,-1.373186111E-1
1.608441564E0,-7.347719669E-1,3.626019955E-1,8.091259003E-2
1.625107502E0,-7.776691914E-1,1.100676060E-1,-1.689682007E-1
1.641773439E0,-9.955079556E-1,-7.671571970E-1,-8.806419373E-2
1.658439377E0,-1.008731604E0,-1.146941185E0,-2.175827026E-1
1.675105314E0,-6.935155392E-1,-6.210188866E-1,1.090154648E-1
1.691771252E0,2.134215832E-1,-4.820824862E-1,2.768087387E-1
1.708437189E0,9.820713997E-1,-8.042193651E-1,3.237257004E-1
1.725103127E0,9.001655579E-1,-7.307158709E-1,3.703231812E-1
1.741769064E0,2.430207729E-1,9.774255753E-2,1.894950867E-2
1.758435002E0,7.555315495E-1,1.853170395E-1,-2.720832825E-2
1.775100939E0,1.690023661E0,-6.064498425E-1,6.624488831E-1
1.791766877E0,2.157772064E0,-9.280847311E-1,4.020738602E-1
1.808432814E0,1.981342316E0,-8.989762068E-1,5.042676926E-1
1.825098752E0,1.503549337E0,-1.306107283E0,1.728199005E0
1.841764689E0,9.275088310E-1,-1.445731282E0,2.830294609E0
1.858430627E0,7.962679863E-2,-1.142439246E0,3.335195541E0
1.875096564E0,-7.533253431E-1,-1.221945405E0,2.693348885E0
1.891762502E0,-8.624444008E-1,-1.454332829E0,2.191986084E0
1.908428439E0,-3.057227135E-1,-1.445552826E0,1.547858238E0
1.925094377E0,1.821196079E-1,-1.102643132E0,3.044795990E-1
1.941760314E0,8.652207851E-1,-1.492502809E0,-1.109827995E0
1.958426252E0,6.713261604E-1,-1.430889606E0,-1.830536842E0
1.975092189E0,3.607397079E-1,-1.111806631E0,-1.632709980E0
1.991758127E0,-2.938838005E-1,-7.083578110E-1,-1.203034878E0
2.008424064E0,-7.397851944E-1,-4.162862301E-1,-1.316948891E0
2.025090002E0,-6.549959183E-1,-3.528454304E-1,-1.636527061E0
2.041755939E0,-2.504646778E-1,-4.321343899E-1,-2.038741589E0
2.058421877E0,3.697376251E-1,-5.659549236E-1,-2.618741989E0
2.075087814E0,1.209038973E0,-6.753156185E-1,5.035333633E-1
2.091753752E0,9.162347317E-1,-4.596676826E-1,2.102182388E0
2.108419689E0,7.814052105E-1,-3.447387218E-1,2.407720566E0
2.125085627E0,1.508378983E-2,-6.686658859E-1,1.862640381E0
2.141751564E0,-1.082089424E0,-4.205214977E-1,1.313536644E0
2.158417502E0,-1.452141523E0,1.424789429E-3,4.632596970E-1
2.175083439E0,-6.871101856E-1,9.114837646E-2,1.146039963E-1
2.191749377E0,2.039899826E-1,2.314500809E-1,-7.774548531E-1
2.208415314E0,2.008111477E-1,5.536966324E-1,-1.012550831E0
2.225081252E0,2.909946442E-1,4.774150848E-1,-1.979601383E0
2.241747189E0,6.589553356E-1,6.067390442E-1,-1.803068638E0
2.258413127E0,7.974081039E-1,4.187216759E-1,-8.478899002E-1
2.275079064E0,5.150246620E-1,4.643957615E-1,-5.563220978E-1
2.291745002E0,2.939348221E-1,3.678550720E-1,-3.035821915E-1
2.308410939E0,2.988176346E-1,3.092248440E-1,-3.550720215E-2
2.325076877E0,3.420917988E-1,1.909799576E-1,-5.988121033E-3
2.341742814E0,2.583172321E-1,1.450924873E-1,-2.821512222E-1
2.358408752E0,-2.707529068E-2,1.964743137E-1,-5.153980255E-1
2.375074689E0,-1.091916561E-1,1.460015774E-1,-2.773113251E-1
2.391740627E0,2.090120316E-2,1.321380138E-1,2.615747452E-1
2.408406564E0,3.051795959E-1,1.018285751E-1,5.039749146E-1
2.425072502E0,3.044366837E-1,1.581959724E-1,4.419050217E-1
2.441738439E0,-1.279630661E-1,2.496502399E-1,3.904113770E-1
2.458404377E0,-5.817972422E-1,2.973210812E-1,1.806278229E-1
2.475070314E0,-6.428303719E-1,1.442987919E-1,5.323886871E-2
2.491736252E0,-4.937223196E-1,3.338718414E-2,-2.368679047E-1
2.508402189E0,-2.712959051E-1,2.119588852E-2,-3.995447159E-1
2.525068127E0,-2.196056843E-1,1.256370544E-2,-3.601083755E-1
2.541734064E0,-3.059089184E-1,3.032946587E-2,-3.195190430E-1
2.558400002E0,-2.726813555E-1,-7.455849648E-2,-2.235460281E-1
2.575065939E0,-1.534981728E-1,3.340363503E-2,-8.017730713E-2
2.591731877E0,1.320087910E-2,9.810304642E-2,-2.264413834E-1
2.608397814E0,2.952265739E-2,9.953784943E-2,-3.351058960E-1
2.625063752E0,1.243495941E-2,1.015501022E-1,-3.007030487E-1
2.641729689E0,-3.900265694E-2,-8.857250214E-3,-1.009111404E-1
2.658395627E0,-5.908703804E-2,-1.109797955E-1,1.417026520E-1
2.675061564E0,-6.077349186E-2,-1.528439522E-1,3.662223816E-1
2.691727502E0,-8.261525631E-2,-1.732175350E-1,5.449228287E-1
2.708393439E0,-1.169334650E-1,-5.144190788E-2,4.620571136E-1
2.725059377E0,-1.990683079E-1,7.610416412E-2,4.354572296E-2
2.741725314E0,-2.185007334E-1,1.776828766E-1,-4.085979462E-1
2.758391252E0,-1.213128567E-1,1.349501610E-1,-6.508464813E-1
2.775057189E0,-9.721803665E-2,8.561420441E-2,-5.914878845E-1
2.791723127E0,-2.812731266E-2,6.619691849E-2,-3.561372757E-1
2.808389064E0,5.901229382E-2,9.995317459E-2,-1.984195709E-1
2.825055002E0,1.319336891E-2,1.688313484E-1,-3.203983307E-1
2.841720939E0,-6.372427940E-2,1.662297249E-1,-4.461860657E-1
2.858386877E0,3.831851482E-2,6.525278091E-2,-2.913846970E-1
2.875052814E0,2.256883383E-1,-6.831645966E-2,-1.097116470E-1
2.891718752E0,2.215579748E-1,-6.563282013E-2,4.316425323E-2
2.908384689E0,-3.178691864E-2,3.313493729E-2,1.737413406E-1
2.925050627E0,-2.195876837E-1,1.371693611E-1,3.079299927E-1
2.941716564E0,-2.106165886E-1,1.013743877E-1,3.888826370E-1
2.958382502E0,2.008986473E-2,5.236077309E-2,3.308687210E-1
2.975048439E0,2.375503778E-1,8.489847183E-3,1.486577988E-1
2.991714377E0,2.738810778E-1,1.263058186E-1,-5.664253235E-2
3.008380314E0,2.665596008E-1,2.368025780E-1,-2.824172974E-1
3.025046252E0,1.876537800E-1,3.878860474E-1,-3.249235153E-1
3.041712189E0,1.929854155E-1,3.036584854E-1,-2.158479691E-1
3.058378127E0,2.339539528E-1,1.775107384E-1,-5.852699280E-2
3.075044064E0,3.157645464E-1,7.236909866E-2,1.360759735E-1
3.091710002E0,3.361848593E-1,-6.624460220E-3,2.972288132E-1
3.108375939E0,2.888616323E-1,-6.650876999E-2,4.547576904E-1
3.125041877E0,1.511181593E-1,-8.591508865E-2,5.054292679E-1
3.141707814E0,6.092512608E-2,-1.826484203E-1,5.168800354E-1
3.158373752E0,-4.062056541E-2,-2.571051121E-1,4.178781509E-1
3.175039689E0,-6.236982346E-2,-3.104360104E-1,2.319755554E-1
3.191705627E0,-1.053786278E-2,-3.437094688E-1,4.957199097E-3
3.208371564E0,-3.381645679E-2,-3.420650959E-1,-2.346544266E-1
3.225037502E0,-1.735025644E-1,-2.602262497E-1,-4.968776703E-1
3.241703439E0,-2.512806654E-1,-1.295773983E-1,-7.797279358E-1
3.258369377E0,-2.083427906E-1,-4.478168488E-2,-8.460884094E-1
3.275035314E0,-1.692402363E-1,-5.184221268E-2,-7.990875244E-1
3.291701252E0,-1.168677807E-1,-6.975007057E-2,-5.158271790E-1
3.308367189E0,-4.645419121E-2,-8.446049690E-2,-1.285963058E-1
3.325033127E0,-1.003866196E-1,-7.170629501E-2,2.059030533E-1
3.341699064E0,-1.444668770E-1,-6.569623947E-2,3.767948151E-1
3.358365002E0,-1.674114466E-1,2.306103706E-2,5.195560455E-1
3.375030939E0,-1.981706619E-1,6.766128540E-2,5.170230865E-1
3.391696877E0,-6.712186337E-2,1.039752960E-1,3.405761719E-1
3.408362814E0,1.321699619E-1,1.957318783E-1,1.744718552E-1
3.425028752E0,3.361387253E-1,2.267837524E-1,1.187705994E-2
3.441694689E0,4.474432468E-1,1.927475929E-1,-1.041145325E-1
3.458360627E0,4.062001705E-1,1.314315796E-1,-1.521453857E-1
3.475026564E0,2.733829021E-1,1.048119068E-1,-6.175994873E-2
3.491692502E0,1.022231579E-1,9.212636948E-2,-4.961490631E-2
3.508358439E0,1.131665707E-2,1.096954346E-1,-5.545043945E-2
3.525024377E0,2.019166946E-2,4.439616203E-2,-1.292686462E-1
3.541690314E0,1.114642620E-2,-5.278372765E-2,-6.656551361E-2
3.558356252E0,5.064368248E-2,-1.923787594E-1,1.621370316E-1
3.575022189E0,6.637287140E-2,-2.768564224E-1,4.230213165E-1
3.591688127E0,-2.498984337E-2,-2.874021530E-1,4.146509171E-1
3.608354064E0,-2.161701918E-1,-2.385911942E-1,2.232990265E-1
3.625020002E0,-3.082900047E-1,-1.771810055E-1,-2.695369720E-2
3.641685939E0,-2.562135458E-1,-1.232414246E-1,-2.934865952E-1
3.658351877E0,-2.477138042E-1,-1.156895161E-1,-4.776668549E-1
3.675017814E0,-2.050838470E-1,-1.510148048E-1,-4.784221649E-1
3.691683752E0,-1.785584688E-1,-1.569583416E-1,-3.516044617E-1
3.708349689E0,-1.136099100E-1,-1.372427940E-1,-7.512474060E-2
3.725015627E0,4.799818993E-2,-8.267188072E-2,7.459545135E-2
3.741681564E0,5.645017624E-1,-1.054890156E-1,3.131341934E-1
3.758347502E0,-5.086190104E-1,8.124971390E-2,-2.312860489E-1
3.775013439E0,-3.715410233E-1,1.562609673E-1,-1.530637741E-1
3.791679377E0,-3.700660467E-1,1.939651966E-1,5.389213562E-2
3.808345314E0,1.897147894E-1,3.860116005E-2,2.888851166E-1
3.825011252E0,3.065803051E-1,1.211345196E-1,3.897705078E-1
3.841677189E0,2.483894825E-1,9.029150009E-2,1.381034851E-1
3.858343127E0,5.061066151E-2,2.195868492E-1,1.129779816E-1
3.875009064E0,-3.524518013E-2,2.504997253E-1,2.143058777E-1
3.891675002E0,9.717547894E-2,1.255323887E-1,1.236677170E-1
3.908340939E0,5.061447620E-2,1.610660553E-1,8.871650696E-2
3.925006877E0,7.624053955E-2,1.884040833E-1,-2.663869858E-1
3.941672814E0,-1.008721590E-1,2.406055927E-1,-3.431453705E-1
3.958338752E0,-2.080737352E-1,2.966833115E-1,-1.699571609E-1
3.975004689E0,-1.625235081E-1,2.239584923E-1,-1.402950287E-2
3.991670627E0,-9.008765221E-2,1.242978573E-1,1.387929916E-1
4.008336564E0,5.666601658E-2,9.788846970E-2,2.282590866E-1
4.025002502E0,1.112542152E-1,5.690383911E-2,9.761524200E-2
4.041668439E0,-1.944758892E-1,1.595835686E-1,-2.693557739E-2
4.058334377E0,-5.365486145E-1,2.911822796E-1,-1.685800552E-1
4.075000314E0,-6.102554798E-1,3.367664814E-1,-2.313404083E-1
4.091666252E0,-3.047896624E-1,2.249500751E-1,-1.802072525E-1
4.108332189E0,5.604238510E-1,2.431294918E-1,-1.034994125E-1
4.124998127E0,4.397780895E-1,-2.329809666E-1,-2.303152084E-1
4.141664064E0,-3.946994543E-1,2.277112007E-2,-5.728034973E-1
4.158330002E0,-3.425524235E-1,3.865919113E-1,1.956043243E-1
4.174995939E0,-1.453715563E-1,2.290434837E-1,3.843250275E-1
4.191661877E0,-1.779770851E-2,6.777095795E-2,2.761306763E-1
4.208327814E0,-1.136384010E-1,1.037306786E-1,-3.825187683E-2
4.224993752E0,-3.090049028E-1,1.017434597E-1,-3.646564484E-1
4.241659689E0,-3.194184303E-1,-8.119368553E-2,-4.339570999E-1
4.258325627E0,-2.699506283E-1,-2.341198921E-2,-1.393661499E-1
4.274991564E0,-5.614697933E-2,-2.313780785E-2,3.697595596E-1
4.291657502E0,-2.251724005E-1,-9.041309357E-3,1.301383972E-1
4.308323439E0,-3.660635948E-1,1.477031708E-1,-2.351646423E-1
4.324989377E0,-3.638048172E-1,1.588840485E-1,-7.449350357E-1
4.341655314E0,-2.411743402E-1,1.690182686E-1,-1.031939983E0
4.358321252E0,3.112101555E-2,9.111905098E-2,-8.261771202E-1
4.374987189E0,2.024884224E-1,5.918788910E-2,-3.091783524E-1
4.391653127E0,3.517580032E-2,1.445491314E-1,9.468078613E-3
4.408319064E0,-1.539140940E-1,2.086403370E-1,1.562976837E-1
4.424985002E0,-2.971458435E-2,2.284991741E-1,9.353065491E-2
4.441650939E0,2.911932468E-1,5.217981339E-2,8.161544800E-3
4.458316877E0,3.755049706E-1,2.791643143E-3,1.417465210E-1
4.474982814E0,1.400318146E-1,1.911876202E-1,2.712860107E-1
4.491648752E0,-2.355266809E-1,3.541452885E-1,-1.421298981E-1
4.508314689E0,-3.977192640E-1,5.161523819E-1,-7.915859222E-1
4.524980627E0,-2.497491837E-1,5.522603989E-1,-9.542641640E-1
4.541646564E0,-7.789111137E-2,4.566423893E-1,-3.326416016E-1
4.558312502E0,1.589696407E-1,3.290369511E-1,2.520723343E-1
4.574978439E0,7.349371910E-2,3.020551205E-1,5.717163086E-1
4.591644377E0,-2.422649860E-1,3.996064663E-1,4.583206177E-1
4.608310314E0,-4.236741066E-1,4.304640293E-1,4.275989532E-2
4.624976252E0,-6.536558867E-1,4.692533016E-1,-1.910181046E-1
4.641642189E0,-8.727666140E-1,5.195250511E-1,-4.529247284E-1
4.658308127E0,-7.415891886E-1,5.078206062E-1,-8.537259102E-1
4.674974064E0,-6.515552998E-1,5.887694359E-1,-1.123078823E0
4.691640002E0,-6.376631260E-1,6.433610916E-1,-1.557141304E0
4.708305939E0,-6.077902317E-1,6.654109955E-1,-1.879097939E0
4.724971877E0,-3.433868885E-1,5.781090260E-1,-1.320334435E0
4.741637814E0,-2.579133511E-1,3.339934349E-1,-2.272224426E-1
4.758303752E0,-5.826888084E-1,3.109350204E-1,8.888444901E-1
4.774969689E0,-9.600541592E-1,5.442078114E-1,1.219821930E0
4.791635627E0,-1.491918087E0,7.972149849E-1,2.051362991E-1
4.808301564E0,-2.300487518E0,9.513912201E-1,-1.122718334E0
4.824967502E0,-2.752372026E0,1.037148237E0,-1.955980778E0
4.841633439E0,-3.001363993E0,1.048801661E0,-2.150718212E0
4.858299377E0,-3.166810751E0,1.071650028E0,-2.043530941E0
4.874965314E0,-3.927053928E0,1.194159269E0,-2.500490189E0
4.891631252E0,-4.718625069E0,9.701952934E-1,-2.706281185E0
4.908297189E0,-5.442393303E0,3.408689499E-1,-3.147381306E0
4.924963127E0,-5.744081974E0,-2.429959774E-1,-4.165522099E0
4.941629064E0,-5.821732521E0,-5.266220570E-1,-5.229215622E0
4.958295002E0,-6.584769249E0,-8.914384842E-1,-6.513748646E0
4.974960939E0,-8.217687607E0,-1.350165009E0,-8.529397011E0
4.991626877E0,-9.325205803E0,-1.572251558E0,-9.170180321E0
5.008292814E0,-9.583034515E0,-1.179590702E0,-8.344812393E0
5.024958752E0,-7.244494438E0,-1.057325006E0,-7.737138271E0
5.041624689E0,-3.785088539E0,-5.558668375E-1,-6.707824707E0
5.058290627E0,-2.234526396E0,1.346830368E0,-6.813092232E0
5.074956564E0,2.743306160E0,5.526496887E0,-3.984317780E0
5.091622502E0,1.242287827E1,4.448506832E0,8.536754608E0
5.108288439E0,1.872299385E1,-4.253854752E0,2.386569214E1
5.124954377E0,1.691977692E1,-5.477233410E0,2.910758209E1
5.141620314E0,1.127994537E1,-8.479021072E0,1.919869804E1
5.158286252E0,1.565160275E0,-8.008171082E0,3.423069000E0
5.174952189E0,3.699288368E-1,-1.107886314E1,-7.436986446E0
5.191618127E0,9.800848007E0,-1.746384621E1,-1.256800270E1
5.208284064E0,2.179260635E1,-2.467935371E1,-1.471624756E1
5.224950002E0,2.278620148E1,-2.476368332E1,-1.847382164E1
5.241615939E0,1.769332504E1,-2.263564110E1,-2.460280228E1
5.258281877E0,1.658282852E1,-1.298493958E1,-2.083188438E1
5.274947814E0,3.866537857E1,-1.511132050E1,-4.333539486E0
5.291613752E0,6.417427063E1,-2.129988098E1,2.650718880E1
5.308279689E0,4.597208023E1,-6.100555420E0,5.854396820E1
5.324945627E0,9.118824959E0,1.333123493E1,5.688078690E1
5.341611564E0,-1.322782707E1,2.526825333E1,3.269746780E1
5.358277502E0,-2.316921043E1,3.619022369E1,1.390077209E1
5.374943439E0,-2.299270439E1,3.757881165E1,1.137673950E1
5.391609377E0,-1.929533005E1,2.903812599E1,1.708436966E1
5.408275314E0,-2.455705261E1,1.927956390E1,2.130838585E1
5.424941252E0,-3.150250626E1,1.339544201E1,2.163160133E1
5.441607189E0,-3.064432144E1,1.149124718E1,1.810296440E1
5.458273127E0,-2.275817490E1,1.265709114E1,1.333545876E1
5.474939064E0,-9.653713226E0,1.633281708E1,1.504406452E1
5.491605002E0,6.049902916E0,1.936970711E1,2.839094162E1
5.508270939E0,2.083210564E1,1.604823112E1,4.973179245E1
5.524936877E0,3.039710236E1,1.065088940E1,6.518753052E1
5.541602814E0,3.873469925E1,3.975834131E0,5.912506866E1
5.558268752E0,4.953514862E1,-6.766121387E0,4.457482910E1
5.574934689E0,5.440169907E1,-1.441369057E1,3.022032928E1
5.591600627E0,5.012418747E1,-1.919027710E1,1.761125565E1
5.608266564E0,4.053628540E1,-2.602328110E1,1.628867340E1
5.624932502E0,2.930276871E1,-3.359285736E1,1.221332550E1
5.641598439E0,2.013480759E1,-3.959078979E1,8.052873611E-1
5.658264377E0,1.383407116E1,-4.429273224E1,-9.301610947E0
5.674930314E0,4.590404510E0,-4.545793533E1,-2.175541306E1
5.691596252E0,-1.233885479E1,-4.414786148E1,-3.451698303E1
5.708262189E0,-2.092450142E1,-4.429185486E1,-4.086750793E1
5.724928127E0,-1.643865585E1,-4.815222931E1,-3.718705750E1
5.741594064E0,-2.077728033E0,-5.227146149E1,-2.508983612E1
5.758260002E0,1.705539322E1,-5.471385193E1,-8.075041771E0
5.774925939E0,2.333090973E1,-4.812181854E1,4.679857254E0
5.791591877E0,2.973878098E1,-4.097475815E1,1.759816360E1
5.808257814E0,3.968261719E1,-2.494850349E1,2.512165070E1
5.824923752E0,5.535674667E1,-1.319260979E1,2.077266312E1
5.841589689E0,6.591732788E1,-1.517883301E0,1.894059753E1
5.858255627E0,5.657469940E1,1.072831440E1,1.533525658E1
5.874921564E0,3.873484039E1,1.781362343E1,1.291999722E1
5.891587502E0,1.912217140E1,2.176559830E1,1.033065891E1
5.908253439E0,-1.606634617E0,2.955686951E1,1.180245304E1
5.924919377E0,-1.161056519E1,3.252917099E1,2.041863251E1
5.941585314E0,-1.315686226E1,2.789431000E1,2.981187630E1
5.958251252E0,-1.437149239E1,2.660364342E1,3.020009995E1
5.974917189E0,-1.611717415E1,2.337993240E1,2.665080452E1
5.991583127E0,-1.929540634E1,2.064516449E1,2.061052704E1
6.008249064E0,-2.086262321E1,1.824661446E1,1.240133381E1
6.024915002E0,-2.046856308E1,1.945229340E1,1.182376194E1
6.041580939E0,-1.605595779E1,2.072813797E1,2.114493942E1
6.058246877E0,-4.648106098E0,2.155792046E1,3.870993042E1
6.074912814E0,1.501616955E1,1.782299805E1,5.048040771E1
6.091578752E0,3.340325546E1,1.011538887E1,4.876685333E1
6.108244689E0,4.549254608E1,2.580541134E0,4.025887680E1
6.124910627E0,5.191734695E1,-3.739927769E0,3.287536240E1
6.141576564E0,5.066363525E1,-1.441324425E1,2.933837891E1
6.158242502E0,4.433638000E1,-2.441581726E1,2.327389336E1
6.174908439E0,3.457199097E1,-3.092079163E1,1.243508720E1
6.191574377E0,2.332886124E1,-3.292272949E1,5.087331772E0
6.208240314E0,1.280654621E1,-3.509951782E1,-3.195109129E0
6.224906252E0,6.649228096E0,-3.860408020E1,-1.035458374E1
6.241572189E0,2.131352663E0,-4.356107330E1,-1.484503078E1
6.258238127E0,-8.588500023E0,-4.603002930E1,-1.509973335E1
6.274904064E0,-1.761931419E1,-4.536126709E1,-1.634668350E1
6.291570002E0,-1.668081093E1,-4.475587845E1,-1.660296631E1
6.308235939E0,-4.090373993E0,-4.776924896E1,-1.213228512E1
6.324901877E0,1.333601952E1,-4.937166595E1,-2.177964687E0
6.341567814E0,2.118643188E1,-4.268321609E1,3.866612673E0
6.358233752E0,2.536447334E1,-3.217734528E1,7.268186569E0
6.374899689E0,3.638687897E1,-2.146779060E1,1.059335423E1
6.391565627E0,4.521791077E1,-1.114147377E1,9.806633949E0
6.408231564E0,4.390667725E1,-4.215380549E-1,1.020340443E1
6.424897502E0,4.257657242E1,7.199184895E0,1.712050247E1
6.441563439E0,4.107239532E1,1.218755054E1,2.165506935E1
6.458229377E0,3.193071556E1,1.636783409E1,1.744944954E1
6.474895314E0,1.063736439E1,2.340673065E1,6.196027279E0
6.491561252E0,-7.875494957E0,3.017551422E1,4.227216244E0
6.508227189E0,-1.268645000E1,2.945525742E1,1.418396854E1
6.524893127E0,-1.246908855E1,2.778327942E1,2.470566750E1
6.541559064E0,-1.529841232E1,2.711781311E1,2.726966095E1
6.558225002E0,-2.297996330E1,2.517263412E1,2.232158470E1
6.574890939E0,-2.700847626E1,2.367988205E1,1.832751465E1
6.591556877E0,-2.106758881E1,2.051777267E1,2.308946609E1
6.608222814E0,-9.132081032E0,1.512682152E1,3.147870255E1
6.624888752E0,3.378609657E0,1.177560806E1,3.906351471E1
6.641554689E0,2.095157814E1,7.976339817E0,4.019291687E1
6.658220627E0,4.044224930E1,1.171014786E0,3.574179840E1
6.674886564E0,4.682668304E1,-4.729585171E0,3.192752838E1
6.691552502E0,4.606773758E1,-1.202599144E1,2.890134811E1
6.708218439E0,4.834877777E1,-2.102538300E1,1.873511887E1
6.724884377E0,4.203794479E1,-2.519090271E1,3.219467163E0
6.741550314E0,2.621551895E1,-2.481025505E1,1.759793758E-1
6.758216252E0,1.460347939E1,-2.754811859E1,3.999476433E0
6.774882189E0,8.399822235E0,-3.343550873E1,5.527072430E0
6.791548127E0,4.017776966E0,-3.886539459E1,4.086249352E0
6.808214064E0,1.024738073E0,-4.184592438E1,2.129148960E0
6.824880002E0,-2.242192268E0,-4.392502213E1,-7.272160053E0
6.841545939E0,-7.286488533E0,-4.183227921E1,-1.752883720E1
6.858211877E0,-1.102047539E1,-3.740913391E1,-2.184269905E1
6.874877814E0,-1.110986900E1,-3.449221420E1,-1.864052010E1
6.891543752E0,-6.164190769E0,-3.299826050E1,-1.167164135E1
6.908209689E0,3.851744175E0,-2.927254868E1,-5.233905315E-1
6.924875627E0,1.662658882E1,-2.063935852E1,7.938984394E0
6.941541564E0,2.587468719E1,-7.775362015E0,5.839971542E0
6.958207502E0,3.242309952E1,6.879786015E0,2.155507207E-1
6.974873439E0,4.784494019E1,1.045607281E1,2.773849487E0
6.991539377E0,5.210101700E1,1.087835789E1,1.029618835E1
7.008205314E0,3.268036652E1,1.248781586E1,1.452339840E1
7.024871252E0,2.588989258E0,1.624970818E1,1.187592316E1
7.041537189E0,-1.768195724E1,2.089836311E1,7.307063103E0
7.058203127E0,-2.132973480E1,2.301621056E1,2.165479183E0
7.074869064E0,-1.464703941E1,2.391217041E1,-6.256017089E-2
7.091535002E0,-9.678402901E0,2.418329048E1,-3.692676723E-1
7.108200939E0,-1.416161728E1,2.339901161E1,5.508193493E0
7.124866877E0,-2.048958778E1,2.022658348E1,1.610939407E1
7.141532814E0,-1.695272827E1,1.671199226E1,2.784300232E1
7.158198752E0,-5.519133568E0,1.247569370E1,3.466822433E1
7.174864689E0,6.353657246E0,1.024432182E1,3.418246841E1
7.191530627E0,2.149433136E1,9.194893837E0,2.734188652E1
7.208196564E0,3.650692368E1,7.205904007E0,2.138513565E1
7.224862502E0,3.978648376E1,5.368185997E0,1.927413940E1
7.241528439E0,3.776435852E1,-1.138125896E0,1.666349220E1
7.258194377E0,3.406295776E1,-8.030130386E0,8.303421021E0
7.274860314E0,2.682119751E1,-1.513282967E1,2.212861478E-1
7.291526252E0,1.693053055E1,-2.017634392E1,1.574846506E0
7.308192189E0,8.762399673E0,-2.614554977E1,6.924738884E0
7.324858127E0,3.622790575E0,-3.316431427E1,8.512857437E0
7.341524064E0,8.123726845E-1,-3.936991501E1,5.725582123E0
7.358190002E0,-8.419018984E-1,-4.163290405E1,-3.874537945E-1
7.374855939E0,-1.339181542E0,-4.357874298E1,-1.057237244E1
7.391521877E0,-4.389193535E0,-4.109405899E1,-1.834804153E1
7.408187814E0,-8.654640198E0,-3.702449799E1,-1.871222687E1
7.424853752E0,-6.866712570E0,-3.533892059E1,-1.091417217E1
7.441519689E0,3.564252853E0,-3.347288895E1,-4.279614687E-1
7.458185627E0,1.843454361E1,-2.752975464E1,6.854330063E0
7.474851564E0,2.479283524E1,-1.512500858E1,4.872322083E0
7.491517502E0,3.335279846E1,-3.057804585E0,4.169129848E0
7.508183439E0,5.271358109E1,5.234297752E0,9.821425438E0
7.524849377E0,6.454736328E1,9.874790192E0,1.157351685E1
7.541515314E0,4.652406311E1,1.680409050E1,1.003456116E1
7.558181252E0,1.330551815E1,2.555742455E1,9.360436440E0
7.574847189E0,-7.206627369E0,2.938543320E1,1.258722210E1
7.591513127E0,-1.221929741E1,2.778451157E1,1.235596848E1
7.608179064E0,-1.330115604E1,2.572985458E1,1.077293873E1
7.624845002E0,-1.702563858E1,2.541334343E1,1.179853344E1
7.641510939E0,-2.045683670E1,2.156847763E1,1.403142738E1
7.658176877E0,-2.261791420E1,1.730144882E1,1.874888229E1
7.674842814E0,-1.725577927E1,1.186097145E1,2.509323311E1
7.691508752E0,-5.455541611E0,8.173509598E0,2.904880714E1
7.708174689E0,7.547864914E0,8.954713821E0,2.603402138E1
7.724840627E0,2.585355186E1,9.393270493E0,1.745218849E1
7.741506564E0,3.844284821E1,8.907387733E0,1.138671303E1
7.758172502E0,3.496753693E1,8.523581505E0,8.907445908E0
7.774838439E0,3.373640823E1,2.245284081E0,1.052466488E1
7.791504377E0,3.218079758E1,-7.518100739E0,9.017516136E0
7.808170314E0,1.998454666E1,-1.404615688E1,7.642270088E0
7.824836252E0,8.345167160E0,-1.762763977E1,6.601339340E0
7.841502189E0,3.004091263E0,-2.306635284E1,3.103534698E0
7.858168127E0,2.679162025E-1,-2.905442238E1,2.585455179E-1
7.874834064E0,-3.224469185E0,-3.373998642E1,-2.164320946E0
7.891500002E0,-4.672510147E0,-3.768266296E1,-2.747531414E0
7.908165939E0,-5.382938385E0,-3.958129120E1,-5.361394882E0
7.924831877E0,-5.873073101E0,-3.877327347E1,-1.064345551E1
7.941497814E0,-2.818651676E0,-3.675137711E1,-1.363269615E1
7.958163752E0,9.626998901E-1,-3.328076935E1,-1.286250877E1
7.974829689E0,8.812080383E0,-2.735917664E1,-7.950069904E0
7.991495627E0,2.301314354E1,-1.909636307E1,8.484488726E-1
8.008161564E0,3.224464417E1,-3.788938761E0,8.454622269E0
8.024827502E0,4.781479645E1,8.800278664E0,1.393927002E1
8.041493439E0,6.200347137E1,1.183194542E1,1.559551620E1
8.058159377E0,4.971117783E1,1.418397713E1,1.262220573E1
8.074825314E0,1.950978279E1,1.528870010E1,8.429053307E0
8.091491252E0,-6.016596794E0,1.643905830E1,5.250610828E0
8.108157189E0,-1.829957581E1,1.646986389E1,3.460771799E0
8.124823127E0,-2.105704498E1,1.666701126E1,3.348685980E0
8.141489064E0,-1.963215637E1,1.793642044E1,5.466180801E0
8.158155002E0,-1.836668015E1,1.833430672E1,6.549217224E0
8.174820939E0,-2.056239319E1,1.735777664E1,8.002038956E0
8.191486877E0,-2.615848541E1,1.459522438E1,1.139930153E1
8.208152814E0,-2.747653198E1,1.187164116E1,2.005191612E1
8.224818752E0,-1.925837708E1,9.979011536E0,3.065779305E1
8.241484689E0,-1.309977531E0,8.944720268E0,3.557142639E1
8.258150627E0,1.899453735E1,1.022309113E1,2.801093292E1
8.274816564E0,3.713961411E1,1.326090622E1,1.864382935E1
8.291482502E0,4.535757065E1,1.527492428E1,1.812052155E1
8.308148439E0,4.581582642E1,6.643946648E0,2.063164330E1
8.324814377E0,3.895311737E1,-2.265518188E0,1.339738941E1
8.341480314E0,3.198331451E1,-1.176159000E1,4.295281410E0
8.358146252E0,1.904572678E1,-1.949066734E1,1.926907301E0
8.374812189E0,6.159648895E0,-2.529182816E1,5.316117287E0
8.391478127E0,-2.762785912E0,-3.054259872E1,7.393713474E0
8.408144064E0,-7.315063477E0,-3.614947891E1,3.510832787E0
8.424810002E0,-7.249345779E0,-3.992610168E1,-4.043788910E0
8.441475939E0,-4.793407917E0,-4.274750900E1,-1.105331707E1
8.458141877E0,-7.028656960E0,-4.266730881E1,-1.552888489E1
8.474807814E0,-1.273777580E1,-4.049409485E1,-1.781911469E1
8.491473752E0,-1.008294868E1,-3.981881714E1,-1.438357830E1
8.508139689E0,1.364489555E0,-4.223721695E1,-7.456735611E0
8.524805627E0,1.266569138E1,-4.233849335E1,6.798638701E-1
8.541471564E0,2.233503914E1,-3.733441925E1,7.478131771E0
8.558137502E0,3.369291687E1,-2.702712631E1,7.607376099E0
8.574803439E0,4.957763290E1,-1.477212238E1,5.668230057E0
8.591469377E0,6.648975372E1,-4.606891632E0,1.441362381E1
8.608135314E0,6.604459381E1,4.740867138E0,2.447399902E1
8.624801252E0,4.163150024E1,1.615686989E1,2.592066383E1
8.641467189E0,8.678229332E0,2.803070641E1,1.936189270E1
8.658133127E0,-6.251106262E0,3.696737289E1,1.360066032E1
8.674799064E0,-5.243991375E0,4.104663849E1,1.096404648E1
8.691465002E0,-5.965065002E0,4.152590561E1,1.229646873E1
8.708130939E0,-1.013305855E1,3.998530960E1,1.968362236E1
8.724796877E0,-1.957818604E1,3.155756760E1,3.268221283E1
8.741462814E0,-2.095680618E1,2.511245346E1,4.620600510E1
8.758128752E0,-9.169661522E0,1.711397934E1,4.732030869E1
8.774794689E0,8.987017632E0,1.037924767E1,3.434523392E1
8.791460627E0,2.811735916E1,5.511900425E0,2.225910378E1
8.808126564E0,4.216525650E1,4.432339668E0,1.975200272E1
8.824792502E0,5.321811676E1,-2.039108992E0,2.307007599E1
8.841458439E0,5.541538620E1,-1.210675240E1,2.340576935E1
8.858124377E0,5.289886475E1,-2.650180626E1,1.486968231E1
8.874790314E0,3.115937042E1,-3.186630249E1,6.987357140E0
8.891456252E0,1.442051125E1,-3.681550598E1,2.810261846E-1
8.908122189E0,6.720378876E0,-4.582065964E1,-2.734365940E0
8.924788127E0,9.192552567E-1,-5.583029556E1,-3.437694788E0
8.941454064E0,-7.391563416E0,-6.312491989E1,-9.004251480E0
8.958120002E0,-1.704110718E1,-6.324269104E1,-2.242539406E1
8.974785939E0,-2.556957817E1,-5.968289948E1,-3.823956299E1
8.991451877E0,-1.801714706E1,-6.036363983E1,-3.934175491E1
9.008117814E0,3.280519962E0,-6.181599808E1,-2.107812881E1
9.024783752E0,3.449820328E1,-5.842037964E1,7.209797859E0
9.041449689E0,5.141207504E1,-4.777293396E1,2.396427155E1
9.058115627E0,4.362683487E1,-2.810290909E1,1.671137810E1
9.074781564E0,6.421353912E1,-2.149409485E1,2.226009369E1
9.091447502E0,6.874548340E1,-1.337292957E1,2.751255608E1
9.108113439E0,5.736352158E1,9.769675732E-1,2.972101974E1
9.124779377E0,1.317339230E1,1.902742195E1,1.525501251E1
9.141445314E0,2.371296883E0,3.667626190E1,1.173038197E1
9.158111252E0,2.944288063E1,4.414232635E1,2.970178986E1
9.174777189E0,4.461751938E1,4.656747818E1,4.878125000E1
9.191443127E0,3.417783356E1,4.738346863E1,4.825652313E1
9.208109064E0,2.177117157E1,3.341225052E1,2.642404556E1
9.224775002E0,1.678793335E1,1.201886749E1,1.485097885E1
9.241440939E0,1.551937103E1,-1.187109756E1,2.593972015E1
9.258106877E0,7.949720860E0,-3.143624878E1,4.098797226E1
9.274772814E0,-7.292618752E-1,-3.817204666E1,3.492631912E1
9.291438752E0,1.512448072E0,-3.052726173E1,1.526651192E1
9.308104689E0,5.828695774E0,-4.186863708E1,5.238743782E0
9.324770627E0,8.929188251E-1,-6.201560593E1,2.914592361E1
9.341436564E0,-1.370712519E0,-6.554200745E1,4.213185883E1
9.358102502E0,1.439625263E1,-5.148311615E1,1.864748573E1
9.374768439E0,2.677862167E1,-3.108016586E1,-3.110937500E1
9.391434377E0,2.506118202E1,-1.834385490E1,-7.413374329E1
9.408100314E0,1.441534901E1,-2.708706093E1,-6.580207062E1
9.424766252E0,7.232851982E0,-2.909897041E1,-1.874900436E1
9.441432189E0,2.299950790E1,-1.001031685E1,1.264453697E1
9.458098127E0,3.721741867E1,7.295276165E0,1.115575218E1
9.474764064E0,4.052353668E1,1.920349503E1,-4.152856827E0
9.491430002E0,4.771023560E1,2.212801743E1,8.149961472E0
9.508095939E0,3.639710617E1,2.126569939E1,2.912040710E1
9.524761877E0,1.845158005E1,1.908601761E1,3.841893768E1
9.541427814E0,-8.345737457E-1,1.597161007E1,3.500453568E1
9.558093752E0,-1.214082718E1,9.237182617E0,3.024117470E1
9.574759689E0,-1.672087860E1,1.585784912E0,2.129674530E1
9.591425627E0,-1.071020412E1,-7.626899719E0,1.458820724E1
9.608091564E0,-3.975126266E0,-2.030268669E1,1.161813736E1
9.624757502E0,-1.291493893E0,-3.074564934E1,8.442267418E0
9.641423439E0,-2.684447765E0,-3.347117996E1,1.714634418E0
9.658089377E0,-2.472515345E0,-3.549278641E1,-7.681841850E0
9.674755314E0,-6.490750313E0,-3.262140274E1,-1.895052338E1
9.691421252E0,-1.119883156E1,-2.677093506E1,-1.588937473E1
9.708087189E0,-8.773849487E0,-2.037729454E1,-1.285312176E0
9.724753127E0,-2.746794224E0,-6.051702499E0,6.906936646E0
9.741419064E0,1.547403717E1,3.372878075E0,2.982831001E-1
9.758085002E0,3.464564133E1,3.895801067E0,-1.601929283E1
9.774750939E0,3.574636459E1,4.727862358E0,-2.894185257E1
9.791416877E0,2.030273438E1,9.554837227E0,-3.264844894E1
9.808082814E0,8.739391327E0,7.669755459E0,-4.083920288E1
9.824748752E0,9.006161690E0,-1.149682045E0,-3.641164398E1
9.841414689E0,2.747916412E1,-2.087552452E1,8.746358871E0
9.858080627E0,2.655218124E1,-2.436860847E1,4.975475693E1
9.874746564E0,1.156422997E1,-1.899421501E1,4.809128571E1
9.891412502E0,8.276748657E-2,-1.615829659E1,1.891773987E1
9.908078439E0,-7.325481415E0,-1.045032024E1,-3.553187370E0
9.924744377E0,-1.186541271E1,-7.365673065E0,-1.135671043E1
9.941410314E0,-8.086834908E0,-1.018385601E1,-2.872521162E0
9.958076252E0,-6.983064175E0,-1.068743896E1,4.626307487E0
9.974742189E0,-7.553427696E0,-8.223286629E0,5.090950489E0
9.991408127E0,-7.716097355E0,-4.009397507E0,1.081357002E-1
1.000807406E1,-3.949080944E0,-2.103847027E0,-6.017385483E0
1.002474000E1,3.814096451E-1,-1.011581421E-1,-1.117108154E1
1.004140594E1,4.505243301E0,6.146652699E-1,-1.164518642E1
1.005807188E1,9.574605942E0,-2.977418900E-2,-5.272904396E0
1.007473781E1,1.402084160E1,-2.341938019E-2,3.655178308E0
1.009140375E1,1.462211037E1,1.676688910E0,9.379046440E0
1.010806969E1,1.416184998E1,3.041649342E0,1.070283508E1
1.012473563E1,1.313769245E1,3.731052637E0,6.752042294E0
1.014140156E1,1.265499210E1,3.135541916E0,3.261690378E0
1.015806750E1,1.250848866E1,2.560669184E0,3.984391689E0
1.017473344E1,1.103059387E1,2.742658138E0,7.849645615E0
1.019139938E1,8.798018456E0,2.832736492E0,1.225256634E1
1.020806531E1,5.427537918E0,3.595777988E0,1.586507130E1
1.022473125E1,8.320808411E-2,5.315735340E0,1.636074638E1
1.024139719E1,-3.244542599E0,8.780486107E0,1.381642342E1
1.025806313E1,-3.242735863E0,1.286477947E1,1.213055515E1
1.027472906E1,-3.167271137E0,1.470568657E1,1.374291325E1
1.029139500E1,-5.527826309E0,1.539459801E1,1.654060936E1
1.030806094E1,-1.063383579E1,1.576145935E1,1.611467934E1
1.032472688E1,-1.344448185E1,1.607855988E1,1.351623535E1
1.034139281E1,-1.020962334E1,1.676300621E1,1.370979691E1
1.035805875E1,4.619884491E-1,1.616296387E1,1.975421143E1
1.037472469E1,1.443965244E1,1.349942017E1,3.231489563E1
1.039139063E1,2.731719398E1,1.050361919E1,4.170477676E1
1.040805656E1,3.804600143E1,6.137547493E0,3.870444107E1
1.042472250E1,3.911728668E1,3.172614098E0,3.184389877E1
1.044138844E1,3.937695312E1,-4.364929676E0,2.492335701E1
1.045805438E1,3.936368179E1,-1.538631439E1,1.844709778E1
1.047472031E1,2.921829987E1,-2.656839371E1,6.236104965E0
1.049138625E1,1.554756737E1,-3.527341843E1,-7.146956921E0
1.050805219E1,1.990164757E0,-3.968746185E1,-1.391113567E1
1.052471813E1,-1.016322136E1,-4.097933578E1,-1.855708313E1
1.054138406E1,-1.292318058E1,-4.244779205E1,-1.653299141E1
1.055805000E1,-1.097230911E1,-4.615795898E1,-1.353832340E1
1.057471594E1,-1.552539825E1,-4.676506805E1,-1.124098015E1
1.059138188E1,-2.096391487E1,-4.499901962E1,-8.372753143E0
1.060804781E1,-1.452690697E1,-4.730261230E1,-9.602677345E0
1.062471375E1,-4.528760910E-2,-5.104328537E1,-1.194616795E1
1.064137969E1,1.523353958E1,-4.863319016E1,-9.634574890E0
1.065804563E1,3.371294785E1,-3.900609970E1,-3.627385139E0
1.067471156E1,5.315054703E1,-2.807920074E1,-1.049069166E0
1.069137750E1,6.459907532E1,-1.617137527E1,2.008119583E0
1.070804344E1,6.158883667E1,-4.033806801E0,1.238002682E1
1.072470938E1,5.589004517E1,7.507001877E0,2.072124481E1
1.074137531E1,4.952090836E1,1.631166458E1,1.484266090E1
1.075804125E1,3.659084320E1,2.269058037E1,1.972234726E0
1.077470719E1,1.829254913E1,2.614411926E1,-3.657444239E0
1.079137313E1,-5.837104797E0,3.586107635E1,-1.136423230E0
1.080803906E1,-1.774748421E1,4.544894409E1,5.997371197E0
1.082470500E1,-1.279186630E1,4.235865021E1,1.298867702E1
1.084137094E1,-7.249956131E0,3.931070328E1,1.744723129E1
1.085803688E1,-8.448038101E0,2.971011543E1,1.984828568E1
1.087470281E1,-1.287123680E1,2.396363640E1,2.149289322E1
1.089136875E1,-1.280116463E1,2.268041229E1,2.302203369E1
1.090803469E1,-7.474984169E0,2.426614952E1,2.127547836E1
1.092470063E1,4.897256851E0,2.767245674E1,1.561800671E1
1.094136656E1,1.945136261E1,3.076645470E1,9.989248276E0
1.095803250E1,3.322388458E1,3.025215912E1,1.068730068E1
1.097469844E1,4.193274307E1,2.467337227E1,1.869282913E1
1.099136438E1,4.943097305E1,1.561607742E1,2.177062416E1
1.100803031E1,5.730027008E1,4.498082638E0,1.537759686E1
1.102469625E1,6.166323090E1,-6.454712391E0,5.673796654E0
1.104136219E1,5.839018250E1,-1.869470024E1,-5.412492752E0
1.105802813E1,4.047023773E1,-2.415660095E1,-1.099670315E1
1.107469406E1,2.335819054E1,-2.627669525E1,-1.235407829E1
1.109136000E1,1.052370358E1,-2.875536537E1,-2.447721958E0
1.110802594E1,2.130270958E0,-3.105475235E1,4.906843185E0
1.112469188E1,5.894727707E-1,-3.662763977E1,4.399273396E0
1.114135781E1,2.051151037E0,-4.343154907E1,4.748940170E-1
1.115802375E1,-5.777224064E0,-4.610923767E1,-5.512003422E0
1.117468969E1,-1.926498795E1,-4.503252792E1,-7.647711754E0
1.119135563E1,-2.511051178E1,-4.688858795E1,-6.254031658E0
1.120802156E1,-1.502171898E1,-5.378317261E1,-2.800347805E0
1.122468750E1,8.281082153E0,-5.909662247E1,-4.128384590E-1
1.124135344E1,2.489220047E1,-5.510713196E1,-1.118719697E0
1.125801938E1,2.995806885E1,-4.405216980E1,7.718096972E-1
1.127468531E1,4.433467865E1,-3.157578087E1,4.855772495E0
1.129135125E1,6.669730377E1,-1.808238792E1,5.597317219E0
1.130801719E1,6.878691101E1,1.620366216E0,4.909806252E0
1.132468313E1,6.136357117E1,1.685608292E1,4.181528568E0
1.134134906E1,5.239978790E1,2.324022484E1,5.207084417E-1
1.135801500E1,3.952773285E1,2.294949532E1,-1.607234478E0
1.137468094E1,1.321822453E1,2.465351105E1,1.248879790E0
1.139134688E1,-8.866111755E0,3.108696556E1,9.144030571E0
1.140801281E1,-1.180312252E1,3.244041824E1,1.957319832E1
1.142467875E1,-8.535566330E0,2.939536095E1,2.590766525E1
1.144134469E1,-7.485175133E0,2.807018280E1,2.672273636E1
1.145801063E1,-1.078286266E1,2.403276634E1,2.149633598E1
1.147467656E1,-1.625601959E1,2.239631462E1,1.538314342E1
1.149134250E1,-1.688922501E1,2.336403275E1,1.305618000E1
1.150800844E1,-1.125712204E1,2.392428589E1,1.542813873E1
1.152467438E1,2.480049133E-1,2.236831284E1,2.375493813E1
1.154134031E1,1.721878815E1,1.906978798E1,3.226295853E1
1.155800625E1,3.337370682E1,1.542435265E1,3.326375961E1
1.157467219E1,4.873086166E1,9.063089371E0,2.966423225E1
1.159133813E1,5.617391968E1,4.020846844E0,2.548646355E1
1.160800406E1,5.838763428E1,-8.130999565E0,2.017277527E1
1.162467000E1,5.152729034E1,-2.146169662E1,1.264715862E1
1.164133594E1,3.642846680E1,-3.152231789E1,2.440237999E-1
1.165800188E1,1.456209850E1,-3.193557358E1,-6.382993221E0
1.167466781E1,1.747920513E-1,-3.236379242E1,-6.653666496E0
1.169133375E1,-4.840363503E0,-3.847820282E1,-5.677482128E0
1.170799969E1,-9.475676537E0,-4.317837524E1,-4.346285343E0
1.172466563E1,-1.721942902E1,-4.542100906E1,-4.004025459E0
1.174133156E1,-2.244299698E1,-4.588893127E1,-4.472013950E0
1.175799750E1,-2.254920578E1,-4.525037003E1,-5.789993763E0
1.177466344E1,-1.053195572E1,-4.806815338E1,-5.260625362E0
1.179132938E1,1.317556953E1,-5.177728653E1,-1.840147257E0
1.180799531E1,2.353464890E1,-4.488107300E1,8.347675800E-1
1.182466125E1,2.947249794E1,-3.310436630E1,2.805181980E0
1.184132719E1,4.493327713E1,-2.289635658E1,4.716337681E0
1.185799313E1,5.702317047E1,-1.316287994E1,7.065052509E0
1.187465906E1,4.838590240E1,-1.056355238E0,5.203377247E0
1.189132500E1,4.146790314E1,8.668460846E0,4.851006508E0
1.190799094E1,4.953305817E1,1.093633556E1,1.038879395E1
1.192465688E1,4.257823181E1,1.293030453E1,1.153435326E1
1.194132281E1,1.467980194E1,1.587848186E1,1.009284782E1
1.195798875E1,-1.095637608E1,2.478615570E1,9.023059845E0
1.197465469E1,-1.397697735E1,2.743645859E1,1.145845127E1
1.199132063E1,-9.344866753E0,2.675216103E1,1.378822231E1
1.200798656E1,-7.981498241E0,2.721461296E1,1.412108326E1
1.202465250E1,-9.543910980E0,2.568793106E1,1.375583458E1
1.204131844E1,-1.683911133E1,2.239041138E1,1.822938538E1
1.205798438E1,-2.141616440E1,2.103094864E1,2.546974373E1
1.207465031E1,-1.278270340E1,1.890043068E1,3.174830055E1
1.209131625E1,3.105775833E0,1.407954121E1,3.080814934E1
1.210798219E1,1.560828781E1,1.002059078E1,2.356905937E1
1.212464813E1,2.340146637E1,7.124637127E0,1.446414471E1
1.214131406E1,2.921979523E1,3.705427170E0,7.444211006E0
1.215798000E1,3.134999847E1,-5.702304840E-1,5.875446796E0
1.217464594E1,3.462876129E1,-3.379978418E0,1.060573483E1
1.219131188E1,3.881743622E1,-1.251103497E1,9.300665855E0
1.220797781E1,3.200856018E1,-2.069541550E1,8.448528290E0
1.222464375E1,1.694058037E1,-2.421540833E1,8.736210823E0
1.224130969E1,6.870436192E0,-3.068272400E1,5.466956139E0
1.225797563E1,-7.335467339E-1,-3.745262146E1,-1.002184272E0
1.227464156E1,-8.336771011E0,-4.266592407E1,-1.021565342E1
1.229130750E1,-1.409714127E1,-4.435642624E1,-1.885062790E1
1.230797344E1,-1.391716957E1,-4.476703262E1,-2.615756989E1
1.232463938E1,-1.291556454E1,-4.390598297E1,-2.787026215E1
1.234130531E1,-7.272957802E0,-4.416080475E1,-2.057522774E1
1.235797125E1,9.297752380E-2,-4.222380066E1,-1.161268044E1
1.237463719E1,7.742337704E0,-3.912571335E1,-7.424962044E0
1.239130313E1,1.530054760E1,-3.561179733E1,-5.383147240E0
1.240796906E1,2.302454948E1,-3.073526192E1,-2.453418255E0
1.242463500E1,4.209928131E1,-2.379936028E1,5.585292339E0
1.244130094E1,6.682106018E1,-1.630915642E1,2.346247101E1
1.245796688E1,6.808003998E1,9.247242212E-1,3.548124313E1
1.247463281E1,4.798077011E1,1.595182610E1,2.995613861E1
1.249129875E1,1.743437386E1,2.782130432E1,1.745458984E1
1.250796469E1,4.058717728E0,3.267425156E1,1.307899857E1
1.252463063E1,-2.445354462E-1,3.529493713E1,1.570677185E1
1.254129656E1,-5.803621292E0,3.556967163E1,1.846596146E1
1.255796250E1,-9.354213715E0,3.525724411E1,1.886695862E1
1.257462844E1,-1.211527634E1,3.263001251E1,2.157414627E1
1.259129438E1,-1.567391586E1,2.725759315E1,2.923175812E1
1.260796031E1,-1.158992672E1,2.124904251E1,3.758345795E1
1.262462625E1,-1.304537773E0,1.458929157E1,3.802081680E1
1.264129219E1,9.692064285E0,9.409435272E0,2.913330269E1
1.265795813E1,2.247827530E1,4.139746189E0,1.887141609E1
1.267462406E1,3.548595428E1,-4.980543613E0,1.650558281E1
1.269129000E1,4.163046265E1,-1.052334023E1,1.277482414E1
1.270795594E1,4.455151367E1,-1.944947624E1,6.787745953E0
1.272462188E1,4.350079727E1,-3.002392006E1,8.788578510E-1
1.274128781E1,2.095162582E1,-3.396483612E1,1.235533476E0
1.275795375E1,1.473043442E0,-3.995683289E1,-1.602948904E0
1.277461969E1,-7.463074684E0,-4.543015289E1,-8.711887360E0
1.279128563E1,-1.386025238E1,-4.876203918E1,-1.895608902E1
1.280795156E1,-1.864290237E1,-4.805153275E1,-3.045592499E1
1.282461750E1,-1.725173569E1,-4.493247986E1,-3.184529114E1
1.284128344E1,-9.291625023E0,-4.084234619E1,-2.204590797E1
1.285794938E1,-3.907462835E0,-2.890519714E1,-1.041295815E1
1.287461531E1,1.274291801E1,-1.442298031E1,-2.496570826E0
1.289128125E1,2.975001144E1,1.938620567E0,-5.832902431E0
1.290794719E1,3.761067581E1,2.053300095E1,-8.074367523E0
1.292461313E1,4.699326324E1,2.555845451E1,1.821804428E1
1.294127906E1,4.070445251E1,2.585260773E1,6.127358627E1
1.295794500E1,2.414733887E1,1.918192101E1,5.317984772E1
1.297461094E1,3.304628372E0,1.434558868E1,1.092957973E0
1.299127688E1,-8.995045662E0,1.688115311E1,-3.217477036E1
1.300794281E1,-1.437474823E1,1.724411774E1,-2.134051132E1
1.302460875E1,-1.744371605E1,9.567348480E0,1.177140999E1
1.304127469E1,-1.868210220E1,7.274289131E-1,3.246685028E1
1.305794063E1,-1.332386494E1,-5.050961494E0,2.467976379E1
1.307460656E1,-7.634200096E0,-8.549676895E0,6.316789150E0
1.309127250E1,-1.562617493E1,-3.637544632E0,3.235202074E0
1.310793844E1,-7.226977348E0,-6.257986069E0,2.014874649E1
1.312460438E1,6.416274071E0,-1.508024406E1,2.805250549E1
1.314127031E1,1.161600685E1,-1.639007950E1,2.004042053E1
1.315793625E1,1.521593857E1,-1.398321056E1,9.687675476E0
1.317460219E1,1.729020691E1,-1.288481903E1,5.184620380E0
1.319126813E1,1.731116676E1,-1.569869137E1,-5.033408165E0
1.320793406E1,1.222485542E1,-1.680528831E1,-1.445754623E1
1.322460000E1,-1.112137794E0,-1.278259850E1,-2.209552002E1
1.324126594E1,-9.990526199E0,-1.144791126E1,-1.234643173E1
1.325793188E1,-1.257435417E1,-1.047257519E1,3.564462900E0
1.327459781E1,-9.652961731E0,-7.464076519E0,1.282724953E1
1.329126375E1,-4.319923401E0,-4.040935516E0,9.048981667E0
1.330792969E1,-1.556509495E0,3.792850375E-1,-3.081329346E0
1.332459563E1,-7.926181793E0,7.550041199E0,-6.116824627E0
1.334126156E1,-1.579105759E1,1.501137161E1,-3.127748013E0
1.335792750E1,-4.086782455E0,1.611660767E1,5.197376728E0
1.337459344E1,1.938892746E1,5.627923012E0,2.663780975E1
1.339125938E1,3.125743103E1,1.632828951E0,4.705310822E1
1.340792531E1,4.852288437E1,-9.824019074E-1,5.563873291E1
1.342459125E1,5.649973297E1,-5.662883759E0,4.511339951E1
1.344125719E1,3.771605301E1,-3.718157530E0,3.572668839E1
1.345792313E1,1.028510380E1,-3.130428076E0,8.807029724E0
1.347458906E1,-4.213603497E0,-7.411819935E0,-1.208133125E1
1.349125500E1,-1.036771584E1,-9.226202011E0,-2.623517036E1
1.350792094E1,-9.226568222E0,-8.709164619E0,-2.798564720E1
1.352458688E1,-6.277956963E0,-7.387444019E0,-1.991230774E1
1.354125281E1,-7.361187458E0,-4.886198044E0,-9.409578323E0
1.355791875E1,-9.037063599E0,-2.279933453E0,-4.311455250E0
1.357458469E1,-9.720916748E0,-1.381781101E-1,-2.266511917E0
1.359125063E1,-5.690958977E0,-1.206574440E0,5.074687004E0
1.360791656E1,-2.061861038E0,-1.431874394E0,1.117641830E1
1.362458250E1,5.951888084E0,-6.942260265E-1,1.845090103E1
1.364124844E1,1.393779755E1,7.869311571E-1,1.932936859E1
1.365791438E1,2.064237213E1,8.920562863E-1,1.689733505E1
1.367458031E1,2.164715958E1,-4.759525299E0,1.814990997E1
1.369124625E1,1.658172607E1,-6.802227974E0,2.664063835E1
1.370791219E1,2.501134491E1,-9.565870285E0,3.261151505E1
1.372457813E1,3.546818542E1,-9.814710617E0,2.764816093E1
1.374124406E1,2.802250290E1,-8.390227318E0,2.293484497E1
1.375791000E1,1.175033855E1,-9.106469154E0,2.215147972E1
1.377457594E1,3.361670494E0,-9.342246056E0,2.303141785E1
1.379124188E1,3.827591896E0,-1.004620552E1,2.417528725E1
1.380790781E1,7.790118217E0,-1.073617744E1,2.255812645E1
1.382457375E1,1.417578697E1,-9.960656166E0,1.897313118E1
1.384123969E1,2.197732925E1,-7.156579018E0,1.476183605E1
1.385790563E1,2.882790375E1,-4.213406563E0,1.042244720E1
1.387457156E1,3.102550888E1,-2.642742157E0,9.740697861E0
1.389123750E1,3.081101990E1,-6.123940468E0,1.377807617E1
1.390790344E1,2.682979584E1,-1.175250816E1,1.415373039E1
1.392456938E1,2.085268974E1,-1.701124382E1,1.012500954E1
1.394123531E1,1.378421211E1,-2.162682152E1,6.282467842E0
1.395790125E1,7.624282837E0,-2.676034737E1,4.195577621E0
1.397456719E1,1.782399178E0,-3.237762070E1,2.111624718E0
1.399123313E1,-5.696288109E0,-3.751475143E1,-1.900444508E0
1.400789906E1,-1.540706253E1,-4.091276550E1,-1.143873692E1
1.402456500E1,-2.457411194E1,-3.818347168E1,-1.999605751E1
1.404123094E1,-2.531966591E1,-3.640317535E1,-1.716809654E1
1.405789688E1,-2.503773880E1,-3.757677078E1,-1.382181644E1
1.407456281E1,-2.668081665E1,-3.988746262E1,-8.179460526E0
1.409122875E1,-2.189870834E1,-4.377693176E1,-1.914274693E0
1.410789469E1,-5.342797279E0,-4.976933670E1,2.497388124E0
1.412456063E1,1.382697773E1,-5.184197235E1,4.150083065E0
1.414122656E1,2.593333626E1,-4.873381424E1,3.777731895E0
1.415789250E1,2.858601189E1,-4.301959229E1,1.952582121E0
1.417455844E1,3.581336975E1,-3.753012466E1,6.935868740E0
1.419122438E1,4.883377075E1,-3.208910751E1,1.608274078E1
1.420789031E1,5.973835754E1,-2.226467323E1,2.059148788E1
1.422455625E1,6.016215515E1,-9.208729744E0,2.032605934E1
1.424122219E1,6.006167603E1,2.877852440E0,1.857106590E1
1.425788813E1,5.316265869E1,1.226418781E1,1.311844254E1
1.427455406E1,3.648354340E1,1.753248405E1,6.999375343E0
1.429122000E1,1.930252266E1,2.270275497E1,8.443130493E0
1.430788594E1,7.375155926E0,3.125342178E1,1.814696503E1
1.432455188E1,4.934501648E-1,4.445255280E1,2.364857483E1
1.434121781E1,1.725063324E0,5.339399719E1,1.958508301E1
1.435788375E1,1.019312668E1,5.461567688E1,1.449429131E1
1.437454969E1,8.539531708E0,4.807632065E1,1.592857075E1
1.439121563E1,-3.258548260E0,3.767255402E1,3.004880524E1
1.440788156E1,-6.706981659E0,3.083990860E1,4.548301315E1
1.442454750E1,3.596333981E0,2.366032219E1,4.811153793E1
1.444121344E1,1.629539871E1,1.866331100E1,3.747314072E1
1.445787938E1,2.850901413E1,1.737093925E1,3.122397423E1
1.447454531E1,4.698184967E1,1.286681747E1,4.514705658E1
1.449121125E1,6.600301361E1,2.744086742E0,5.503533936E1
1.450787719E1,6.909943390E1,-7.650791168E0,5.062321091E1
1.452454313E1,6.945387268E1,-2.235173035E1,3.831252670E1
1.454120906E1,7.032421875E1,-4.264568329E1,2.328337479E1
1.455787500E1,6.486346436E1,-4.986244583E1,1.247193336E1
1.457454094E1,4.367538452E1,-5.379830170E1,3.469078302E0
1.459120688E1,1.661084747E1,-5.178402710E1,5.062938213E0
1.460787281E1,-1.591521382E0,-5.109553909E1,6.913520813E0
1.462453875E1,-4.491275311E0,-5.812907410E1,7.049714088E0
1.464120469E1,-6.731568336E0,-6.224194336E1,3.325156450E0
1.465787063E1,-1.114888096E1,-6.171605301E1,-2.206408978E-1
1.467453656E1,-1.174866390E1,-6.233311844E1,-9.894531369E-1
1.469120250E1,-1.263670826E1,-6.258414459E1,-3.616697788E0
1.470786844E1,-7.129453182E0,-6.479394531E1,-8.541583061E0
1.472453438E1,9.067876816E0,-6.862273407E1,-1.217707348E1
1.474120031E1,3.961613083E1,-6.923150635E1,-2.466879368E0
1.475786625E1,6.728822327E1,-6.051084900E1,1.421829987E1
1.477453219E1,6.959671021E1,-4.117690277E1,2.455598831E1
1.479119813E1,6.944880676E1,-1.842021370E1,2.994566536E1
1.480786406E1,6.870163727E1,8.701360226E-1,3.116599464E1
1.482453000E1,6.082429886E1,1.298060513E1,2.005858612E1
1.484119594E1,4.683569336E1,2.270689011E1,3.139717579E0
1.485786188E1,2.871011162E1,3.059878540E1,-7.525712490E0
1.487452781E1,1.158011627E1,4.358136749E1,-1.023163033E1
1.489119375E1,4.328669548E0,5.546320724E1,-4.057856560E0
1.490785969E1,3.711765289E0,5.554273987E1,6.880578041E0
1.492452563E1,2.414705276E0,5.427773285E1,1.224823380E1
1.494119156E1,-6.014011860E0,4.258908844E1,1.811120605E1
1.495785750E1,-1.261252213E1,3.294270706E1,3.333034515E1
1.497452344E1,-9.587562561E0,2.643046570E1,4.442420959E1
1.499118938E1,-2.335811138E0,2.340745735E1,4.083085251E1
1.500785531E1,9.010278702E0,2.421182060E1,2.908249283E1
1.502452125E1,3.004402542E1,2.546785736E1,2.292062950E1
1.504118719E1,5.131392288E1,2.105323029E1,2.337660408E1
1.505785313E1,6.350473404E1,1.650513649E1,2.197059441E1
1.507451906E1,7.004953003E1,6.795158386E0,1.952520561E1
1.509118500E1,7.107629395E1,-7.702849865E0,1.484519768E1
1.510785094E1,7.092793274E1,-2.249166679E1,6.013471127E0
1.512451688E1,5.408149719E1,-3.293980408E1,7.215626240E-1
1.514118281E1,3.240114975E1,-4.074153900E1,8.175241947E-1
1.515784875E1,1.179909325E1,-4.480703735E1,1.617026329E-2
1.517451469E1,-2.517906427E-1,-4.736652756E1,-3.038074017E0
1.519118063E1,-1.351643085E0,-5.383539963E1,-2.404679775E0
1.520784656E1,-5.768892288E0,-6.250154114E1,-1.340402961E0
1.522451250E1,-1.925925827E1,-6.613848877E1,-2.871820450E0
1.524117844E1,-2.601929092E1,-6.731769562E1,-4.312173843E0
1.525784438E1,-1.679564667E1,-7.065964508E1,-7.420169830E0
1.527451031E1,7.595209122E0,-7.602723694E1,-4.513436794E0
1.529117625E1,3.929745102E1,-7.520841217E1,7.076527596E0
1.530784219E1,6.454769135E1,-6.051597977E1,1.737965584E1
1.532450813E1,7.035619354E1,-3.974014282E1,1.817620850E1
1.534117406E1,6.971505737E1,-2.003902817E1,1.278448296E1
1.535784000E1,6.940618896E1,-2.254197598E0,1.374057579E1
1.537450594E1,6.917114258E1,6.443909645E0,2.566069794E1
1.539117188E1,6.112268066E1,1.318726730E1,3.065460396E1
1.540783781E1,3.975677872E1,1.804039001E1,2.506897736E1
1.542450375E1,1.158701801E1,2.713148499E1,1.353860092E1
1.544116969E1,-4.527213573E0,3.934650040E1,3.888477564E0
1.545783563E1,-4.348209858E0,4.268099594E1,2.055439472E0
1.547450156E1,-6.046676636E-1,4.345645142E1,9.890259743E0
1.549116750E1,9.301681519E-1,4.516452789E1,1.631893921E1
1.550783344E1,-8.396360397E0,3.855876541E1,2.304766655E1
1.552449938E1,-2.011868477E1,3.327915955E1,3.808047104E1
1.554116531E1,-1.803560066E1,3.067762375E1,5.005802536E1
1.555783125E1,1.712341309E0,2.646371460E1,5.265679932E1
1.557449719E1,2.805854034E1,1.781908798E1,4.878347397E1
1.559116313E1,4.335934448E1,1.053613281E1,3.698491287E1
1.560782906E1,5.852730560E1,2.232049942E0,2.417599106E1
1.562449500E1,6.935578156E1,-7.449649811E0,1.822876167E1
1.564116094E1,6.832604980E1,-1.556067657E1,1.767804718E1
1.565782688E1,6.638414764E1,-2.828822327E1,1.357571030E1
1.567449281E1,4.854780197E1,-3.662863922E1,7.192907810E0
1.569115875E1,2.312140656E1,-3.712196732E1,8.759717941E0
1.570782469E1,8.322467804E0,-3.928077698E1,1.125819206E1
1.572449063E1,4.405431747E0,-4.991791534E1,1.009467125E1
1.574115656E1,-3.871788979E-1,-6.118655396E1,2.873102665E0
1.575782250E1,-1.236281204E1,-6.638326263E1,-4.616461754E0
1.577448844E1,-2.548259544E1,-6.586985779E1,-8.876438141E0
1.579115438E1,-3.363320923E1,-6.296379852E1,-1.239928055E1
1.580782031E1,-2.560833359E1,-6.461505890E1,-6.971431732E0
1.582448625E1,-8.746404648E-1,-7.005731964E1,2.437498331E0
1.584115219E1,2.117771149E1,-6.690047455E1,8.202655792E0
1.585781813E1,3.069034004E1,-5.801803589E1,6.532055378E0
1.587448406E1,4.621915054E1,-4.970683670E1,4.716825962E0
1.589115000E1,5.877025986E1,-4.209183121E1,4.920263290E0
1.590781594E1,6.895585632E1,-2.981034660E1,1.671187973E1
1.592448188E1,6.991144562E1,-1.386460114E1,2.901085472E1
1.594114781E1,6.996017456E1,6.049526215E0,2.923369598E1
1.595781375E1,5.615738678E1,1.904350471E1,1.677050781E1
1.597447969E1,1.830097198E1,2.966353226E1,8.494760513E0
1.599114563E1,1.476811409E0,3.782289505E1,1.192637634E1
1.600781156E1,-6.066627502E-1,4.369758224E1,1.500519562E1
1.602447750E1,-8.292508125E-1,4.509188843E1,1.402262306E1
1.604114344E1,-5.026497841E0,4.820932007E1,1.266257191E1
1.605780938E1,-1.824623871E1,4.214731979E1,2.531086731E1
1.607447531E1,-2.539627075E1,3.606967926E1,4.862278748E1
1.609114125E1,-8.846686363E0,2.849629021E1,6.300326538E1
1.610780719E1,1.759719849E1,1.696496582E1,5.388659286E1
1.612447313E1,3.562042618E1,1.001232147E1,3.032678223E1
1.614113906E1,4.705540466E1,5.427598000E0,1.307518864E1
1.615780500E1,5.317309952E1,-9.581844807E-1,1.479875469E1
1.617447094E1,5.676330185E1,-7.024362564E0,2.398053360E1
1.619113688E1,6.662105560E1,-1.726466751E1,2.553509331E1
1.620780281E1,6.988073730E1,-3.356844330E1,1.654758072E1
1.622446875E1,4.856841660E1,-3.791828156E1,7.799541950E0
1.624113469E1,2.324221802E1,-4.105378723E1,1.084994030E1
1.625780063E1,9.866060257E0,-4.964004517E1,1.661445808E1
1.627446656E1,1.873358250E0,-6.260218811E1,1.525955105E1
1.629113250E1,-5.752514839E0,-7.159266663E1,6.367824078E0
1.630779844E1,-8.589070320E0,-7.402714539E1,-1.661756134E1
1.632446438E1,-1.722296715E1,-6.683036041E1,-3.956312561E1
1.634113031E1,-2.131761742E1,-6.237451172E1,-3.642954636E1
1.635779625E1,-1.475974274E1,-5.940583038E1,-1.685844040E1
1.637446219E1,1.065108299E1,-5.471267319E1,2.962828279E-1
1.639112813E1,4.508303452E1,-4.675712967E1,1.123402786E1
1.640779406E1,5.295680237E1,-3.043459702E1,6.023624897E0
1.642446000E1,5.090549850E1,-2.008398628E1,-3.954387426E0
1.644112594E1,6.968167114E1,-2.674356651E1,1.137423325E1
1.645779188E1,6.961669159E1,-1.894024277E1,4.060211945E1
1.647445781E1,5.902582550E1,3.738974333E0,4.361975861E1
1.649112375E1,1.794060898E1,2.123540115E1,1.264153767E1
1.650778969E1,9.818279266E0,3.457014465E1,-6.386299133E0
1.652445563E1,3.580789948E1,3.788329315E1,8.125731468E0
1.654112156E1,6.697505188E1,2.955477333E1,4.285662842E1
1.655778750E1,5.749160385E1,2.385201073E1,6.201020050E1
1.657445344E1,2.216147995E1,1.636987114E1,6.435533142E1
1.659111938E1,7.850933075E-2,3.129231930E0,6.161339951E1
1.660778531E1,-5.711813927E0,-1.213537407E1,5.849467850E1
1.662445125E1,-7.919795990E0,-2.272375298E1,4.903691101E1
1.664111719E1,6.395972729E0,-4.148564911E1,4.364932632E1
1.665778313E1,9.779788971E0,-5.030133057E1,2.676753044E1
1.667444906E1,-6.209985733E0,-4.062692642E1,1.050218582E1
1.669111500E1,-1.654801369E1,-4.642078400E1,6.349996567E0
1.670778094E1,-1.617983627E1,-3.871326828E1,2.000228691E1
1.672444688E1,4.860823154E0,-3.528201675E1,2.177802658E1
1.674111281E1,1.901196480E1,-2.871735573E1,5.687307358E0
1.675777875E1,2.781722832E1,-2.110290337E1,-7.419960022E0
1.677444469E1,3.049710083E1,-1.540911770E1,-6.030395508E0
1.679111063E1,2.341712379E1,-9.328859329E0,-1.512005997E1
1.680777656E1,1.846924400E1,-2.739302158E0,-2.333122635E1
1.682444250E1,3.407115936E1,6.675009727E-1,2.821051598E0
1.684110844E1,5.899729538E1,6.100034237E0,3.218570328E1
1.685777438E1,4.879387665E1,1.977305222E1,2.071262169E1
1.687444031E1,2.642656326E1,2.799852562E1,-3.650005817E0
1.689110625E1,1.752219200E1,2.791726685E1,-7.635780334E0
1.690777219E1,1.229285812E1,2.078364563E1,1.498111153E1
1.692443813E1,-4.082388878E-1,1.883354378E1,2.856222916E1
1.694110406E1,-8.361824989E0,1.625538445E1,3.248409271E1
1.695777000E1,-1.025875282E1,1.007336998E1,3.183798599E1
1.697443594E1,-1.252449799E1,4.020641327E0,2.409461212E1
1.699110188E1,-1.183942699E1,-5.285263062E-1,1.235847282E1
1.700776781E1,-7.236582756E0,-4.744732857E0,1.930221081E0
1.702443375E1,-7.617006302E-1,-1.260412979E1,-3.514101028E0
1.704109969E1,6.009559631E0,-2.182470703E1,-5.160708904E0
1.705776563E1,1.003516865E1,-2.787059975E1,-5.052978992E0
1.707443156E1,1.433632278E1,-3.735411072E1,-5.429432869E0
1.709109750E1,1.606928635E1,-3.793230820E1,-7.190789700E0
1.710776344E1,7.500957966E0,-3.330909348E1,-7.658831120E0
1.712442938E1,-1.726195216E0,-2.431451416E1,-8.009926796E0
1.714109531E1,6.926463127E0,-1.469698429E1,-5.161648273E0
1.715776125E1,3.292088699E1,-6.095116615E0,3.787102699E-1
1.717442719E1,5.569298553E1,3.450766087E0,4.283547401E0
1.719109313E1,5.490314484E1,1.042544365E1,-1.725496292E0
1.720775906E1,3.558968735E1,1.196298695E1,-5.866048813E0
1.722442500E1,2.191113853E1,7.759448528E0,-5.532252312E0
1.724109094E1,1.366815376E1,1.442563653E0,-3.062121630E0
1.725775688E1,7.226572990E0,-4.273564816E0,5.790171623E-1
1.727442281E1,2.345867157E0,-7.743610859E0,3.048922539E0
1.729108875E1,-6.374053955E-1,-9.308283806E0,3.161929131E0
1.730775469E1,-2.428084850E0,-1.137055397E1,2.993830681E0
1.732442063E1,-6.216344833E0,-1.210815334E1,4.484706879E0
1.734108656E1,-9.571187019E0,-1.157006931E1,6.231555939E0
1.735775250E1,-1.159620285E1,-1.159432316E1,5.687672615E0
1.737441844E1,-1.144994259E1,-1.270279121E1,3.904509544E0
1.739108438E1,-1.061796284E1,-1.368056583E1,7.458920479E-1
1.740775031E1,-9.537455559E0,-1.537901592E1,-6.970222592E-1
1.742441625E1,-1.042173767E1,-1.634002304E1,1.977246404E0
1.744108219E1,-1.206873894E1,-1.562618446E1,6.145694256E0
1.745774813E1,-1.227560329E1,-1.354304123E1,7.556116104E0
1.747441406E1,-1.057716656E1,-1.215704155E1,4.750169754E0
1.749108000E1,-6.730038166E0,-1.198834515E1,2.740521193E0
1.750774594E1,-3.369850636E0,-1.178173161E1,4.959928513E0
1.752441188E1,-3.758268833E0,-1.078428555E1,9.024328232E0
1.754107781E1,-4.631413460E0,-7.406732082E0,1.264713287E1
1.755774375E1,1.509452820E0,-3.994776487E0,1.339876366E1
1.757440969E1,1.499416161E1,-3.804111481E-2,8.704752922E0
1.759107563E1,2.790623474E1,3.230371952E0,-2.253168344E0
1.760774156E1,2.775451469E1,7.631513596E0,-1.136213398E1
1.762440750E1,1.679994011E1,1.145228291E1,-1.214682961E1
1.764107344E1,8.626914978E0,1.184475136E1,-7.817870140E0
1.765773938E1,8.319650650E0,1.067658329E1,-2.985032797E0
1.767440531E1,1.522004509E1,8.705461502E0,4.631044865E-1
1.769107125E1,2.118330383E1,8.027865410E0,-1.101566076E0
1.770773719E1,1.877992821E1,9.644869804E0,-5.487545967E0
1.772440313E1,1.243422413E1,1.049548340E1,-7.708573818E0
1.774106906E1,8.355802536E0,9.682424545E0,-5.130321980E0
1.775773500E1,6.160286427E0,9.212195396E0,7.490086555E-2
1.777440094E1,4.696044922E0,1.005129147E1,4.835849762E0
1.779106688E1,4.386453629E0,1.146886921E1,8.133172989E0
1.780773281E1,3.080116272E0,1.218646717E1,9.695377350E0
1.782439875E1,2.438086510E0,1.262978745E1,1.334997463E1
1.784106469E1,3.747887611E0,1.435943317E1,1.872516441E1
1.785773063E1,8.592214584E0,1.755296135E1,2.253395462E1
1.787439656E1,1.939408112E1,1.610072517E1,2.065153885E1
1.789106250E1,2.568115616E1,1.109798527E1,1.667646599E1
1.790772844E1,2.333966064E1,7.807649136E0,1.717228889E1
1.792439438E1,2.333781052E1,6.119335175E0,2.276936150E1
1.794106031E1,3.064603043E1,1.962146044E0,2.793840599E1
1.795772625E1,3.654785919E1,-1.826894283E0,2.727315331E1
1.797439219E1,4.074350357E1,-4.900917053E0,2.046375084E1
1.799105813E1,4.459941864E1,-8.511088371E0,8.493263245E0
1.800772406E1,4.111998367E1,-1.328149796E1,-4.412620068E0
1.802439000E1,3.086752319E1,-1.720722008E1,-1.457286358E1
1.804105594E1,1.985863686E1,-2.152746964E1,-2.048662567E1
1.805772188E1,7.686029911E0,-2.426568604E1,-2.241488075E1
1.807438781E1,-1.311975479E0,-2.523271370E1,-2.024792480E1
1.809105375E1,-4.834085941E0,-2.668119621E1,-1.945767975E1
1.810771969E1,-6.500693798E0,-2.989236450E1,-2.000483322E1
1.812438563E1,-1.166831779E1,-3.183647537E1,-2.307930374E1
1.814105156E1,-1.769593239E1,-3.174931717E1,-2.589267349E1
1.815771750E1,-1.876614380E1,-3.074965096E1,-2.488783264E1
1.817438344E1,-1.535667706E1,-3.196448517E1,-2.105395699E1
1.819104938E1,-1.151371384E1,-3.498386383E1,-1.533409119E1
1.820771531E1,-6.834327221E0,-3.839136505E1,-1.113843060E1
1.822438125E1,-5.435824394E-1,-4.023678207E1,-1.039241409E1
1.824104719E1,1.087340546E1,-3.990287781E1,-1.069916725E1
1.825771313E1,3.079052353E1,-3.888970947E1,-7.019853115E0
1.827437906E1,5.789993286E1,-3.216285324E1,-4.521739006E0
1.829104500E1,6.825125885E1,-1.961011696E1,-9.874824882E-1
1.830771094E1,5.547986221E1,-8.173675537E0,5.320060253E0
1.832437688E1,3.962297821E1,5.792140961E-1,8.206604004E0
1.834104281E1,3.742938995E1,4.847237587E0,4.363601208E0
1.835770875E1,4.025555038E1,8.177495003E0,2.999534369E0
1.837437469E1,3.411709595E1,1.308458328E1,8.863671303E0
1.839104063E1,2.325891113E1,2.077320862E1,1.536559105E1
1.840770656E1,1.376177502E1,2.999752808E1,2.010322762E1
1.842437250E1,1.038651562E1,3.634057617E1,2.476011658E1
1.844103844E1,6.440077782E0,3.662192535E1,2.708056259E1
1.845770438E1,-6.409687996E-1,3.478324890E1,2.560683632E1
1.847437031E1,-6.889206409E0,3.227679825E1,2.358794785E1
1.849103625E1,-1.400348282E1,2.620269012E1,2.049130821E1
1.850770219E1,-2.150402451E1,2.293754387E1,1.571472454E1
1.852436813E1,-2.299796867E1,2.199701118E1,1.640116501E1
1.854103406E1,-1.806373978E1,2.132742691E1,2.491016960E1
1.855770000E1,-5.614169121E0,2.146769905E1,3.577798843E1
1.857436594E1,1.510548115E1,2.018735123E1,3.500683212E1
1.859103188E1,3.649029160E1,1.938086319E1,2.691125107E1
1.860769781E1,6.004595566E1,1.477885342E1,2.037326622E1
1.862436375E1,7.073442078E1,4.566337109E0,2.184248543E1
1.864102969E1,7.065077209E1,-1.031204987E1,2.108903503E1
1.865769563E1,5.658303833E1,-2.492637634E1,1.210133839E1
1.867436156E1,3.762424850E1,-3.270858002E1,2.619265318E-1
1.869102750E1,1.497237206E1,-3.196066284E1,-6.081264496E0
1.870769344E1,1.152239203E0,-3.107688141E1,-5.569438934E0
1.872435938E1,-2.567770004E0,-3.690624237E1,-2.594243050E0
1.874102531E1,-6.325647354E0,-4.490827942E1,6.775361896E-1
1.875769125E1,-1.535512352E1,-5.055657196E1,3.378722668E0
1.877435719E1,-2.728982735E1,-5.170170593E1,1.737992764E0
1.879102313E1,-2.894554710E1,-5.453081131E1,-2.966292858E0
1.880768906E1,-1.624235916E1,-6.126073456E1,-5.646184921E0
1.882435500E1,7.530744553E0,-6.939721680E1,-5.601580143E0
1.884102094E1,2.688829041E1,-6.970687103E1,-1.096299410E0
1.885768688E1,3.384109879E1,-6.229679489E1,5.770198345E0
1.887435281E1,4.637438202E1,-5.000287628E1,9.525087357E0
1.889101875E1,6.767727661E1,-3.628083801E1,9.739511490E0
1.890768469E1,6.964533997E1,-1.608192635E1,7.892747879E0
1.892435063E1,6.961254883E1,7.308224440E-1,1.203434753E1
1.894101656E1,6.672219849E1,1.111032581E1,1.777958107E1
1.895768250E1,4.833359528E1,1.903569412E1,1.946403122E1
1.897434844E1,2.950202942E1,2.331878281E1,1.555417919E1
1.899101438E1,1.596488571E1,2.651458359E1,1.195722008E1
1.900768031E1,1.523302078E0,3.475589371E1,9.047728539E0
1.902434625E1,-5.719068527E0,4.125334167E1,1.004083347E1
1.904101219E1,-2.450879574E0,3.785026550E1,1.178548145E1
1.905767813E1,1.223207474E0,3.397052002E1,1.441787720E1
1.907434406E1,-5.811456680E0,2.841982460E1,1.789305115E1
1.909101000E1,-1.626776886E1,2.321737862E1,2.163553810E1
1.910767594E1,-1.806659126E1,2.100811386E1,2.589286995E1
1.912434188E1,-1.172396278E1,1.877026176E1,2.728122902E1
1.914100781E1,-2.396701336E0,1.874672890E1,2.618581963E1
1.915767375E1,1.568768406E1,1.891223526E1,2.404555702E1
1.917433969E1,3.660596466E1,1.773535728E1,2.270730972E1
1.919100563E1,5.376924896E1,1.358151436E1,2.091639709E1
1.920767156E1,6.519169617E1,4.980061531E0,1.950572586E1
1.922433750E1,6.532927704E1,-1.469841480E0,2.061986351E1
1.924100344E1,6.087526703E1,-1.555725574E1,1.685057259E1
1.925766938E1,4.719395828E1,-2.749649429E1,6.539672375E0
1.927433531E1,2.539431572E1,-3.182400894E1,-4.416469038E-1
1.929100125E1,6.891726494E0,-3.316116333E1,-1.827681303E0
1.930766719E1,-6.832367182E-1,-3.811697388E1,6.508111954E-3
1.932433313E1,-3.790771008E0,-4.565522766E1,3.518192768E0
1.934099906E1,-1.009267426E1,-5.215700912E1,3.484940529E0
1.935766500E1,-1.991463852E1,-5.557851410E1,2.038769245E0
1.937433094E1,-2.545587921E1,-5.785428619E1,-1.581123114E0
1.939099688E1,-2.203362274E1,-6.014070511E1,-7.113176346E0
1.940766281E1,-3.413554668E0,-6.493520355E1,-8.162040710E0
1.942432875E1,1.887115288E1,-6.686563873E1,-3.002820253E0
1.944099469E1,2.855780983E1,-6.025106049E1,3.875290394E0
1.945766063E1,3.885649109E1,-5.045769882E1,8.360937119E0
1.947432656E1,5.989710999E1,-3.519007111E1,9.119770050E0
1.949099250E1,6.930825806E1,-1.648869514E1,6.839767456E0
1.950765844E1,6.828824615E1,-2.137012243E0,7.743638992E0
1.952432438E1,6.138817215E1,9.755564690E0,1.569648075E1
1.954099031E1,5.963184357E1,1.300178528E1,2.404262733E1
1.955765625E1,4.328980637E1,1.611027145E1,2.167213631E1
1.957432219E1,2.018480301E1,1.598015785E1,1.220210648E1
1.959098813E1,4.249190331E0,1.640464783E1,5.649625301E0
1.960765406E1,6.943502426E-1,1.684439850E1,3.958478689E0
1.962432000E1,2.147510529E0,1.703723145E1,3.383516073E0
1.964098594E1,3.751529694E0,1.589030838E1,2.620816827E-1
1.965765188E1,5.667002678E0,1.302453136E1,7.024826407E-1
1.967431781E1,4.217482567E0,1.193443108E1,4.438488483E0
1.969098375E1,-1.599834442E0,1.269326973E1,7.009799957E0
1.970764969E1,-8.129749298E0,1.178882599E1,8.390785217E0
1.972431563E1,-1.304626465E1,9.933668137E0,1.303921986E1
1.974098156E1,-1.484083462E1,6.074543476E0,2.081148338E1
1.975764750E1,-1.418019104E1,1.319565773E-1,2.867036057E1
1.977431344E1,-1.322653008E1,-5.206347942E0,3.108539391E1
1.979097938E1,-1.015901184E1,-7.465214252E0,2.720818329E1
1.980764531E1,-2.751026154E0,-7.733379364E0,1.993223381E1
1.982431125E1,-1.550020456E0,-2.391577244E0,1.194680691E1
1.984097719E1,-7.874253273E0,1.175805092E1,3.529190063E0
1.985764313E1,7.036721230E0,1.622740364E1,4.902530670E0
1.987430906E1,3.250174332E1,1.148135662E1,1.223269749E1
1.989097500E1,4.452606964E1,-2.896945000E0,1.817994118E1
1.990764094E1,3.696141434E1,-7.297585487E0,2.323311615E1
1.992430688E1,2.277434349E1,-6.727400780E0,1.877064133E1
1.994097281E1,1.558795166E1,-6.423899651E0,1.257697487E1
1.995763875E1,1.664455032E1,-9.895346642E0,7.413432121E0
1.997430469E1,1.720838547E1,-1.403563690E1,2.658164263E0
1.999097063E1,1.610046005E1,-1.734714127E1,2.624604702E-1
2.000763656E1,1.496152687E1,-1.943616486E1,-1.711119413E-1
2.002430250E1,1.397851562E1,-2.111481094E1,-2.789828300E0
2.004096844E1,1.301042938E1,-2.306705475E1,-6.559882641E0
2.005763438E1,1.111139011E1,-2.431791306E1,-9.563366890E0
2.007430031E1,8.423147202E0,-2.323234177E1,-1.078173733E1
2.009096625E1,5.033327103E0,-2.160817337E1,-1.219524288E1
2.010763219E1,1.755165339E0,-1.958166122E1,-1.339986420E1
2.012429813E1,-4.274971485E-1,-1.770801544E1,-1.185812473E1
2.014096406E1,-1.500027895E0,-1.630567551E1,-9.158817291E0
2.015763000E1,-1.570748210E0,-1.434049797E1,-4.906993866E0
2.017429594E1,6.723172665E-1,-1.057611847E1,5.915904045E-1
2.019096188E1,2.801769495E0,-2.108270168E0,3.203610420E0
2.020762781E1,1.047965050E0,1.150163841E1,-5.011508465E-1
2.022429375E1,7.996573925E0,1.365517235E1,-3.592055321E0
2.024095969E1,2.233539581E1,4.579019070E0,6.311131001E0
2.025762563E1,3.058181763E1,-1.157814407E1,2.469411087E1
2.027429156E1,2.003799057E1,-7.836246490E0,3.387769699E1
2.029095750E1,4.925457954E0,-6.713032722E-1,2.411316109E1
2.030762344E1,-4.535271168E0,4.711932182E0,1.461234665E1
2.032428938E1,-8.518997192E0,7.515349865E0,9.487461090E0
2.034095531E1,-8.459847450E0,7.658636570E0,5.939597130E0
2.035762125E1,-5.116872311E0,7.352506161E0,1.871962070E0
2.037428719E1,-2.156755209E0,6.748209953E0,-2.514937401E0
2.039095313E1,-3.263303280E0,7.983621120E0,-3.209698915E0
2.040761906E1,-6.389719486E0,8.983348846E0,-8.205842972E-2
2.042428500E1,-1.037888718E1,9.016418457E0,3.531527996E0
2.044095094E1,-1.418602276E1,8.457235336E0,6.969128132E0
2.045761688E1,-1.636128807E1,6.221562862E0,1.146196747E1
2.047428281E1,-1.706751251E1,2.011220455E0,1.453922653E1
2.049094875E1,-1.571477699E1,-2.028918982E0,1.409044933E1
2.050761469E1,-1.397648621E1,-6.239831448E0,1.118714333E1
2.052428063E1,-1.217822838E1,-8.561124802E0,8.637870789E0
2.054094656E1,-1.005796051E1,-8.621750832E0,8.511275291E0
2.055761250E1,-1.043845558E1,-4.649065971E0,1.265196609E1
2.057427844E1,-1.100963306E1,-1.031437874E0,1.834609222E1
2.059094438E1,7.820658684E-1,-3.248087168E0,2.240934181E1
2.060761031E1,1.420004940E1,-3.632865191E0,1.981263161E1
2.062427625E1,1.733767128E1,-4.232753754E0,1.567320156E1
2.064094219E1,1.330538177E1,-7.111928463E0,9.053009987E0
2.065760813E1,7.146321297E0,-9.060994148E0,5.958856583E0
2.067427406E1,4.821474075E0,-9.149073601E0,5.712844849E0
2.069094000E1,5.575819969E0,-8.396002769E0,5.846061230E0
2.070760594E1,7.231638908E0,-9.335212708E0,5.099117279E0
2.072427188E1,8.639212608E0,-1.093598747E1,4.248042107E0
2.074093781E1,9.368915558E0,-1.172085762E1,4.733235836E0
2.075760375E1,8.872884750E0,-1.134586430E1,4.841775417E0
2.077426969E1,7.987997055E0,-1.082821751E1,2.681218147E0
2.079093563E1,7.780629158E0,-1.076419640E1,-5.137758255E-1
2.080760156E1,7.936845779E0,-1.024970818E1,-3.514366388E0
2.082426750E1,7.554367065E0,-9.361940384E0,-6.212311745E0
2.084093344E1,6.587427139E0,-8.727498055E0,-7.169852257E0
2.085759938E1,4.736555099E0,-7.787469864E0,-5.886774540E0
2.087426531E1,3.308625221E0,-6.976983070E0,-1.921977997E0
2.089093125E1,2.372377396E0,-5.374096394E0,1.401238918E0
2.090759719E1,2.132983208E0,-3.443672657E0,2.511937141E0
2.092426313E1,-1.102495551E0,1.632997513E0,8.986282349E-1
2.094092906E1,-2.546399593E0,4.095321655E0,-1.331435919E0
2.095759500E1,-6.051872969E-1,2.760025024E0,-7.618308067E-1
2.097426094E1,3.914240599E-1,2.528739929E0,3.740826130E0
2.099092688E1,1.704136729E0,2.023670673E0,8.552845955E0
2.100759281E1,3.077693939E0,1.096445084E0,1.259517860E1
2.102425875E1,3.559864521E0,-1.575422287E-1,1.209706974E1
2.104092469E1,2.145106077E0,-4.386091232E-2,8.255718231E0
2.105759063E1,-9.884309769E-2,2.644543648E-1,4.523745537E0
2.107425656E1,-2.931675434E0,8.572363853E-1,1.011440277E0
2.109092250E1,-4.964787483E0,1.134994507E0,-3.947068930E0
2.110758844E1,-4.735577106E0,6.485490799E-1,-6.112600327E0
2.112425438E1,-2.989508629E0,2.516016960E-1,-3.411849022E0
2.114092031E1,-1.170112967E0,-7.959909439E-1,1.674385071E-1
2.115758625E1,-1.049391150E0,-1.518161297E0,2.744857788E0
2.117425219E1,-2.733688354E0,-1.995540142E0,2.590399742E0
2.119091813E1,-3.993184566E0,-2.644743443E0,1.787949085E0
2.120758406E1,-4.415013313E0,-3.634798765E0,1.588219166E0
2.122425000E1,-4.409787178E0,-3.767567873E0,2.081375122E0
2.124091594E1,-4.612766743E0,-1.412897587E0,2.160009384E0
2.125758188E1,-4.949828148E0,1.386194229E0,1.053642273E0
2.127424781E1,-3.615701914E0,2.952941895E0,2.075287819E0
2.129091375E1,-3.667175531E0,3.816792488E0,3.409038544E0
2.130757969E1,-4.775729179E0,3.292382717E0,4.642924309E0
2.132424563E1,-4.483515739E0,1.437324047E0,7.991725445E0
2.134091156E1,-2.721443653E0,-4.204087257E-1,1.157828331E1
2.135757750E1,9.425985813E-2,-7.507019043E-1,1.338242531E1
2.137424344E1,1.385446906E0,-7.451477051E-1,8.949517250E0
2.139090938E1,9.342612028E-1,-1.039875031E0,3.126755238E0
2.140757531E1,-4.500657022E-1,-1.407999516E0,-4.177246094E-1
2.142424125E1,-1.839249849E0,-2.238545418E0,-7.733130455E-1
2.144090719E1,-2.490459681E0,-3.243030787E0,8.007254601E-1
2.145757313E1,-2.071735859E0,-3.839895487E0,2.611289978E0
2.147423906E1,-1.033037305E0,-3.608954906E0,3.086987019E0
2.149090500E1,2.144813538E-2,-3.221631527E0,1.671820641E0
2.150757094E1,2.504681349E-1,-2.675271273E0,-4.996466637E-1
2.152423688E1,-1.715132594E-1,-2.244308472E0,-1.866351604E0
2.154090281E1,-6.361054182E-1,-1.944230556E0,-1.963596344E0
2.155756875E1,-4.420959055E-1,-2.073200226E0,-7.876439095E-1
2.157423469E1,-1.929163933E-2,-2.263409615E0,9.784808159E-1
2.159090063E1,1.669168472E-1,-2.180626392E0,2.066071987E0
2.160756656E1,2.358752489E-1,-1.990272522E0,1.846190929E0
2.162423250E1,4.526149035E-1,-1.705700874E0,1.794689178E0
2.164089844E1,1.317435503E-1,-1.254102707E0,1.581208229E0
2.165756438E1,-3.713098168E-1,-1.194450855E0,1.166595936E0
2.167423031E1,-9.415317774E-1,-9.638566971E-1,8.850455284E-1
2.169089625E1,-1.006973863E0,-9.333987236E-1,9.245324135E-1
2.170756219E1,-9.823595285E-1,-7.440032959E-1,9.359469414E-1
2.172422813E1,-9.600149393E-1,-3.174061775E-1,6.625351906E-1
2.174089406E1,-1.125704288E0,8.360767365E-2,1.190090179E-1
2.175756000E1,-1.354492664E0,3.271040916E-1,-3.476152420E-1
2.177422594E1,-5.613568425E-1,-1.802029610E-1,4.746346474E-1
2.179089188E1,6.936419010E-2,-4.857292175E-1,1.068821907E0
2.180755781E1,3.705263138E-3,-8.616333008E-1,1.451175213E0
2.182422375E1,-4.768130183E-1,-1.093640327E0,1.598391056E0
2.184088969E1,-5.231487155E-1,-1.062384129E0,1.822312355E0
2.185755563E1,-4.400455356E-1,-7.499923706E-1,1.470680714E0
2.187422156E1,-3.288112879E-1,-5.055675507E-1,5.492477417E-1
2.189088750E1,-1.753797531E-1,-3.289656639E-1,6.878709793E-2
2.190755344E1,-4.116451740E-2,-1.485052109E-1,1.995186806E-1
2.192421938E1,3.527152538E-1,-9.954738617E-2,8.891201019E-2
2.194088531E1,5.275295973E-1,1.387600899E-1,-1.489973068E-2
2.195755125E1,6.803175211E-1,5.670213699E-1,-3.794488907E-1
2.197421719E1,1.120318174E0,6.716542244E-1,-2.833900452E-1
2.199088313E1,1.622733593E0,6.112756729E-1,-1.576633453E-1
2.200754906E1,1.778740644E0,2.822070122E-1,2.226400375E-1
2.202421500E1,1.390816092E0,-1.664257050E-2,6.468062401E-1
2.204088094E1,1.090936184E0,-4.704504013E-1,1.578536510E0
2.205754688E1,1.062505364E0,-8.608555794E-1,2.552919388E0
2.207421281E1,1.014756560E0,-9.838476181E-1,2.597537041E0
2.209087875E1,7.781757116E-1,-9.592046738E-1,1.823069572E0
2.210754469E1,4.371042252E-1,-7.879753113E-1,7.763576508E-1
2.212421063E1,3.099358082E-1,-5.911340714E-1,-1.661252975E-2
2.214087656E1,2.814300060E-1,-4.440627098E-1,-3.617305756E-1
2.215754250E1,3.563756943E-1,-2.777485847E-1,-3.119521141E-1
2.217420844E1,6.467087269E-1,-1.456570625E-1,1.053414345E-1
2.219087438E1,1.009728432E0,-1.122579575E-1,5.525693893E-1
2.220754031E1,1.433417082E0,-7.947444916E-2,6.253051758E-1
2.222420625E1,1.423821330E0,1.357526779E-1,1.715893745E-1
2.224087219E1,9.941803217E-1,2.904424667E-1,-2.054457664E-1
2.225753813E1,4.282602072E-1,3.408813477E-1,-4.773373604E-1
2.227420406E1,3.392887115E-1,2.751350403E-1,-4.940400124E-1
2.229087000E1,5.832583904E-1,2.100920677E-1,-1.295194626E-1
2.230753594E1,6.363008022E-1,1.341319084E-1,4.630584717E-1
2.232420188E1,5.394049883E-1,1.057100296E-1,3.586206436E-1
2.234086781E1,5.840591192E-1,6.677055359E-2,1.410818100E-1
2.235753375E1,6.207324266E-1,8.046245575E-2,8.163642883E-2
2.237419969E1,5.724823475E-1,1.358795166E-1,3.011994362E-1
2.239086563E1,7.629672289E-1,3.935866356E-1,4.002833366E-1
2.240753156E1,1.138250828E0,-5.943918228E-2,6.747279167E-1
2.242419750E1,1.114846468E0,-5.982875824E-3,9.910902977E-1
2.244086344E1,8.489425182E-1,1.262855530E-2,9.158625603E-1
2.245752938E1,7.074701786E-1,-1.396241188E-1,1.101063728E0
2.247419531E1,5.052204132E-1,-1.829128265E-1,1.223454952E0
2.249086125E1,4.283638000E-1,-1.097140312E-1,1.559940338E0
2.250752719E1,4.442045689E-1,-9.250593185E-2,1.365828514E0
2.252419313E1,2.984211445E-1,1.153807640E-1,3.970026970E-1
2.254085906E1,2.048392296E-1,3.028697968E-1,8.839845657E-2
2.255752500E1,2.234125137E-1,3.265066147E-1,1.869912148E-1
2.257419094E1,2.635781765E-1,4.092364311E-1,2.872753143E-1
2.259085688E1,3.318974972E-1,4.348602295E-1,3.620142937E-1
2.260752281E1,3.359625340E-1,3.385801315E-1,2.079071999E-1
2.262418875E1,2.841265202E-1,4.096188545E-1,2.804903984E-1
2.264085469E1,3.698732853E-1,2.794075012E-1,5.693578720E-1
2.265752063E1,2.467169762E-1,2.315750122E-1,6.855144501E-1
2.267418656E1,1.435356140E-1,1.879673004E-1,5.573506355E-1
2.269085250E1,1.711752415E-1,2.230353355E-1,4.432444572E-1
2.270751844E1,1.441566944E-1,1.510496140E-1,4.497113228E-1
2.272418438E1,4.184889793E-2,1.753468513E-1,1.768498421E-1
2.274085031E1,-9.186625481E-2,2.278242111E-1,-3.004326820E-1
2.275751625E1,-1.462054253E-1,1.439394951E-1,-4.032921791E-1
2.277418219E1,8.329939842E-2,1.243023872E-1,-2.931985855E-1
2.279084813E1,1.402299404E-1,1.614060402E-1,-2.711691856E-1
2.280751406E1,1.291611195E-1,9.449481964E-3,-2.318673134E-1
2.282418000E1,7.163834572E-2,2.864122391E-2,-3.619956970E-2
2.284084594E1,1.536114216E-1,6.483888626E-2,2.357378006E-1
2.285751188E1,2.989122868E-1,1.473350525E-1,6.290740967E-1
2.287417781E1,2.920267582E-1,-5.279064178E-3,8.223385811E-1
2.289084375E1,1.171600819E-1,-6.496906281E-3,6.824355125E-1
2.290750969E1,2.142126560E-1,-6.013870239E-3,4.805231094E-1
2.292417563E1,3.954873085E-1,1.529121399E-2,6.292490959E-1
2.294084156E1,3.514168262E-1,1.327238083E-1,7.464332581E-1
2.295750750E1,4.272406101E-1,-4.162883759E-2,7.135181427E-1
2.297417344E1,6.221280098E-1,5.517578125E-2,2.188115120E-1
2.299083938E1,6.863100529E-1,2.327585220E-1,-2.250962257E-1
2.300750531E1,5.225293636E-1,2.827734947E-1,-4.526457787E-1
2.302417125E1,4.442331791E-1,1.505250931E-1,-3.650445938E-1
2.304083719E1,3.791327477E-1,1.356973648E-1,-3.342428207E-1
2.305750313E1,2.538063526E-1,1.512265205E-1,-5.528287888E-1
2.307416906E1,9.183859825E-2,1.909823418E-1,-3.946781158E-1
2.309083500E1,-4.923987389E-2,2.108349800E-1,-6.874227524E-2
2.310750094E1,6.549358368E-4,2.641811371E-1,1.352834702E-2
2.312416688E1,2.241339684E-1,4.065251350E-1,1.912045479E-1
2.314083281E1,1.808612347E-1,4.291315079E-1,3.871045113E-1
2.315749875E1,1.495637894E-1,4.249682426E-1,5.755553246E-1
2.317416469E1,1.444933414E-1,4.698357582E-1,5.934343338E-1
2.319083063E1,2.115478516E-1,5.281190872E-1,4.799242020E-1
2.320749656E1,2.119910717E-1,5.021266937E-1,3.200583458E-1
2.322416250E1,1.282172203E-1,4.167132378E-1,3.031253815E-3
2.324082844E1,-4.500746727E-2,3.314108849E-1,-1.353883743E-1
2.325749438E1,-1.113052368E-1,7.919597626E-2,3.749752045E-2
2.327416031E1,-7.995390892E-2,-4.177427292E-2,3.175129890E-1
2.329082625E1,2.371954918E-2,-9.273433685E-2,4.302845001E-1
2.330749219E1,-2.800726891E-2,-1.148848534E-1,3.298335075E-1
2.332415813E1,-1.089848280E-1,-7.777738571E-2,1.974630356E-1
2.334082406E1,-4.640579224E-2,1.111936569E-2,9.115505219E-2
2.335749000E1,1.957654953E-2,1.036891937E-1,5.391120911E-3
2.337415594E1,-4.462718964E-3,1.555814743E-1,-2.266454697E-1
2.339082188E1,2.335047722E-2,1.313142776E-1,-4.699869156E-1
2.340748781E1,-1.590871811E-2,1.990909576E-1,-5.465931892E-1
2.342415375E1,-2.367624044E-1,2.507824898E-1,-5.401477814E-1
2.344081969E1,-4.589930773E-1,2.716507912E-1,-4.438538551E-1
2.345748563E1,-4.027523994E-1,1.965804100E-1,7.975578308E-2
2.347415156E1,-3.686932325E-1,1.370439529E-1,4.559216499E-1
2.349081750E1,-4.317060709E-1,2.210807800E-2,5.957236290E-1
2.350748344E1,-3.528083563E-1,-4.560518265E-2,6.491026878E-1
2.352414938E1,-3.058278561E-1,-9.197711945E-3,5.650691986E-1
2.354081531E1,-2.713038921E-1,1.702356339E-2,5.297417641E-1
2.355748125E1,-1.506898403E-1,1.324796677E-2,2.718267441E-1
2.357414719E1,-8.310770988E-2,-2.070903778E-3,8.059978485E-3
2.359081313E1,6.299746037E-2,1.959466934E-2,8.723783493E-2
2.360747906E1,2.060540915E-1,-3.053998947E-2,1.235098839E-1
2.362414500E1,1.438167095E-1,-3.491878510E-2,5.397224426E-2
2.364081094E1,-6.137943268E-2,-4.679775238E-2,-7.815647125E-2
2.365747688E1,-1.904507875E-1,4.622459412E-3,-3.685250282E-1
2.367414281E1,-9.743189812E-2,1.192202568E-1,-5.569353104E-1
2.369080875E1,-5.244970322E-3,1.919541359E-1,-4.534564018E-1
2.370747469E1,-1.041054726E-2,2.225093842E-1,-2.469558716E-1
2.372414063E1,-8.508324623E-2,2.642555237E-1,-1.430583000E-1
2.374080656E1,-1.046779156E-1,1.704654694E-1,-4.930734634E-2
2.375747250E1,-2.860534191E-2,1.527476311E-1,6.268739700E-2
2.377413844E1,3.390920162E-2,1.373114586E-1,3.104329109E-1
2.379080438E1,1.250256300E-1,1.158399582E-1,3.607397079E-1
2.380747031E1,1.350674629E-1,1.485629082E-1,4.197816849E-1
2.382413625E1,1.324079037E-1,1.249094009E-1,4.677762985E-1
2.384080219E1,4.265344143E-2,1.303210258E-1,5.422925949E-1
2.385746813E1,-1.788890362E-2,1.760168076E-1,5.830621719E-1
2.387413406E1,-6.956648827E-2,1.489362717E-1,4.229297638E-1
2.389080000E1,-6.732356548E-2,1.124343872E-1,3.051614761E-1
2.390746594E1,1.439911127E-1,-5.183219910E-4,3.967361450E-1
2.392413188E1,1.610004902E-1,1.519203186E-2,2.547130585E-1
2.394079781E1,2.269339561E-2,1.042513847E-1,-1.133670807E-1
2.395746375E1,-7.592856884E-2,1.309618950E-1,-4.677910805E-1
2.397412969E1,-1.656370163E-1,1.475663185E-1,-4.873051643E-1
2.399079563E1,-2.207441330E-1,1.096339226E-1,-2.599787712E-1
2.400746156E1,-1.718842983E-1,1.592874527E-2,-9.211540222E-3
2.402412750E1,2.627849579E-3,-3.172063828E-2,2.290248871E-2
2.404079344E1,-9.714245796E-2,4.345893860E-3,9.924030304E-2
2.405745938E1,-1.581447124E-1,-4.750490189E-2,-8.548450470E-2
2.407412531E1,-1.496648788E-2,8.867645264E-2,-2.686867714E-1
2.409079125E1,-4.053115845E-3,9.399843216E-2,-4.236197472E-1
2.410745719E1,-2.277456522E-1,4.139733315E-1,-6.220803261E-1
2.412412313E1,-5.203950405E-2,2.290148735E-1,-7.713656425E-1
2.414078906E1,-2.504692078E-1,3.962659836E-1,-7.049069405E-1
2.415745500E1,-2.086206675E-1,2.555732727E-1,-7.855229378E-1
2.417412094E1,-3.355489969E-1,1.876249313E-1,-2.941093445E-1
2.419078688E1,-2.318228483E-1,8.837699890E-2,-9.212493896E-2
2.420745281E1,-1.233012676E-1,-4.598569870E-2,-7.188415527E-2
2.422411875E1,-7.088446617E-2,-1.402149200E-1,6.010847092E-1
2.424078469E1,-2.488493919E-2,-1.473832130E-1,9.938344955E-1
2.425745063E1,2.607655525E-2,-2.915983200E-1,5.353994370E-1
2.427411656E1,-2.166628838E-2,-1.894407272E-1,4.241132736E-1
2.429078250E1,-1.179265976E-2,-1.244554520E-1,7.793426514E-1
2.430744844E1,2.635240555E-3,-5.184412003E-2,4.579877853E-1
2.432411438E1,7.858371735E-2,7.214832306E-2,1.732463837E-1
2.434078031E1,-5.528926849E-3,1.020464897E-1,6.443214417E-1
2.435744625E1,1.705956459E-2,-1.349401474E-1,1.099769592E0
2.437411219E1,2.286598682E-1,-2.042970657E-1,9.399681091E-1
2.439077813E1,2.558450699E-1,-7.598829269E-2,9.108362198E-1
2.440744406E1,9.699964523E-2,-1.814570427E-1,9.690866470E-1
2.442411000E1,5.697965622E-2,-1.100149155E-1,6.364784241E-1
2.444077594E1,-1.169348598E0,-5.086488724E-1,-2.648944378E0
2.445744188E1,-7.193230391E-1,4.640026093E-1,8.901233673E-1
2.447410781E1,2.241771221E-1,-7.053163052E-1,9.435749054E-2
2.449077375E1,3.660063744E-1,9.752845764E-2,-2.524824142E-1
2.450743969E1,7.077374458E-1,1.391634941E-1,-1.280390739E0
2.452410563E1,-2.604436874E-2,6.285305023E-1,-6.522650719E-1
2.454077156E1,2.795612812E-1,1.739640236E-1,1.020789146E0
2.455743750E1,9.626436234E-1,-5.816338062E-1,2.302970886E0
2.457410344E1,4.228401184E-1,-3.035526276E-1,1.340988159E0
2.459076938E1,-6.298127174E-1,4.564952850E-2,-2.497434616E-1
2.460743531E1,-7.756464481E-1,-4.227585793E-1,-1.993474960E-1
2.462410125E1,-2.016464472E-1,-1.957874298E-1,-1.444272995E-1
2.464076719E1,9.744560719E-2,1.197223663E-1,-2.017831802E-1
2.465743313E1,-4.811859131E-2,-8.264017105E-2,-9.881591797E-2
2.467409906E1,2.353062630E-1,4.120445251E-2,-1.742057800E-1
2.469076500E1,5.065178871E-1,-4.018020630E-2,-1.726608276E-1
2.470743094E1,6.936223507E-1,-1.078858376E-1,1.303653717E-1
2.472409688E1,3.334875107E-1,-4.727983475E-2,3.645648956E-1
2.474076281E1,1.290841103E-1,-5.514717102E-2,3.863258362E-1
2.475742875E1,2.966698408E-1,5.113983154E-2,1.523294449E-1
2.477409469E1,4.647331238E-1,2.114744186E-1,2.157201767E-1
2.479076063E1,2.215303183E-1,1.822094917E-1,-1.906290054E-1
2.480742656E1,-1.680059433E-1,-1.858377457E-2,-3.468666077E-1
2.482409250E1,-1.968383789E-2,-3.977823257E-2,-2.452144623E-1
2.484075844E1,1.908708811E-1,1.351995468E-1,-6.949353218E-1
2.485742438E1,1.299228668E-1,5.673933029E-2,-8.196830750E-1
2.487409031E1,3.517260551E-1,2.712144852E-1,6.620178223E-1
2.489075625E1,3.505892754E-1,2.918624878E-1,6.987066269E-1
2.490742219E1,1.065993309E-2,1.809444427E-1,4.908628464E-1
2.492408813E1,-1.851898432E-1,-2.313947678E-2,8.962821960E-1
2.494075406E1,-2.363384962E-1,-9.208917618E-2,6.986789703E-1
