"Time (s)","Acceleration x (m/s^2)","Acceleration y (m/s^2)","Acceleration z (m/s^2)"
9.281931000E-3,1.660917997E0,3.210569859E0,9.522835732E0
2.594786800E-2,1.440778375E0,3.244966507E0,9.292527199E0
4.261380600E-2,1.332203984E0,3.320639610E0,8.915956497E0
5.927974300E-2,1.303490162E0,3.279961586E0,8.802596092E0
7.594568100E-2,1.301994562E0,3.200101137E0,8.943174362E0
9.261161800E-2,1.302293777E0,3.163012505E0,9.112167358E0
1.092775560E-1,1.299302697E0,3.084647417E0,9.273384094E0
1.259434930E-1,1.370788217E0,3.035594702E0,9.402596474E0
1.426094310E-1,1.314556956E0,3.068196774E0,9.509077072E0
1.592753680E-1,1.396211982E0,3.103790045E0,9.432806015E0
1.759413060E-1,1.647159338E0,3.194119215E0,9.259325981E0
1.926072430E-1,1.751546144E0,3.238386393E0,9.333204269E0
2.092731810E-1,1.689931035E0,3.219542980E0,9.268598557E0
2.259391180E-1,1.542174220E0,3.252444267E0,9.130113602E0
2.426050560E-1,1.503290772E0,3.254537821E0,9.105288506E0
2.592709930E-1,1.425225019E0,3.275774240E0,9.197710991E0
2.759369310E-1,1.345065475E0,3.345165968E0,9.021539688E0
2.926028680E-1,1.342074394E0,3.251247883E0,9.055637360E0
3.092688060E-1,1.442572951E0,3.226123095E0,8.978468895E0
3.259347430E-1,1.601994753E0,3.189034462E0,8.759525299E0
3.426006810E-1,1.679761529E0,3.149253607E0,8.652446747E0
3.592666180E-1,1.564008713E0,3.072683334E0,8.681459427E0
3.759325560E-1,1.398006678E0,3.097508907E0,8.900403023E0
3.925984930E-1,1.152144074E0,3.219243765E0,9.074181557E0
4.092644310E-1,1.148554921E0,3.371187925E0,8.939286232E0
4.259303680E-1,1.391127229E0,3.684348583E0,8.729017258E0
4.425963060E-1,1.793121457E0,3.868895054E0,8.638388634E0
4.592622430E-1,2.119741678E0,4.008575916E0,8.884849548E0
4.759281810E-1,2.280359983E0,4.121936321E0,9.267401695E0
4.925941180E-1,2.273779631E0,4.129114628E0,9.898209572E0
5.092600560E-1,2.285444736E0,4.162913322E0,1.049282646E1
5.259259930E-1,2.224726915E0,4.194019794E0,1.071655560E1
5.425919310E-1,2.121536493E0,4.275974274E0,1.070967579E1
5.592578680E-1,1.999203324E0,4.391427994E0,1.078953648E1
5.759238060E-1,2.027019978E0,4.464707851E0,1.095912743E1
5.925897430E-1,2.139781713E0,4.552345276E0,1.112931728E1
6.092556810E-1,2.370389938E0,4.546063900E0,1.113769245E1
6.259216180E-1,2.509771824E0,4.491926193E0,1.100788116E1
6.425875560E-1,2.394916296E0,4.444368839E0,1.083829021E1
6.592534930E-1,2.096710920E0,4.293920040E0,1.079342461E1
6.759194310E-1,1.800599098E0,4.098606110E0,1.095882893E1
6.925853680E-1,1.559522152E0,3.981956005E0,1.081615639E1
7.092513060E-1,1.625623941E0,4.051646709E0,1.025743294E1
7.259172430E-1,1.863111496E0,4.141676903E0,9.699605942E0
7.425831810E-1,1.937289000E0,4.194318771E0,9.296115875E0
7.592491180E-1,1.880459547E0,4.060320854E0,9.145667076E0
7.759150560E-1,1.506580949E0,3.878765583E0,9.402297020E0
7.925809930E-1,1.005882859E0,3.757628918E0,9.690931320E0
8.092469310E-1,7.567301393E-1,3.850051641E0,9.672985077E0
8.259128680E-1,7.857431173E-1,4.142574310E0,9.420542717E0
8.425788060E-1,7.926225066E-1,4.551148891E0,8.926424980E0
8.592447430E-1,8.539385796E-1,5.011168957E0,8.441878319E0
8.759106810E-1,1.181157112E0,5.225027561E0,8.263014793E0
8.925766180E-1,1.377368569E0,5.369493961E0,8.269595146E0
9.092425560E-1,1.490429401E0,5.410171986E0,8.500502586E0
9.259084930E-1,1.715653777E0,5.197809219E0,8.668897629E0
9.425744310E-1,1.851446509E0,4.816452980E0,8.833703041E0
9.592403680E-1,1.751546144E0,4.566701889E0,8.896215439E0
9.759063060E-1,1.671386600E0,4.500001907E0,8.871390343E0
9.925722430E-1,1.806282043E0,4.491627216E0,8.614460945E0
1.009238181E0,2.090728760E0,4.516153812E0,8.123034477E0
1.025904118E0,2.446362019E0,4.502095699E0,7.581060410E0
1.042570056E0,2.486142635E0,4.576572418E0,7.011269569E0
1.059235993E0,2.165504456E0,4.581956387E0,6.710072994E0
1.075901931E0,1.939980984E0,4.614558697E0,6.526423931E0
1.092567868E0,1.887937069E0,4.723432064E0,6.338288307E0
1.109233806E0,2.196910381E0,4.908875465E0,6.291029930E0
1.125899743E0,2.665604353E0,5.199304581E0,6.129215240E0
1.142565681E0,2.925524712E0,5.467001438E0,5.865705490E0
1.159231618E0,2.830410004E0,5.641079426E0,5.707180977E0
1.175897556E0,2.628515720E0,5.752046585E0,5.642873764E0
1.192563493E0,2.669791937E0,5.893821239E0,5.485845089E0
1.209229431E0,2.994019270E0,6.042176247E0,5.414060116E0
1.225895368E0,3.247658491E0,6.140581131E0,5.314758301E0
1.242561306E0,3.245863914E0,6.222236156E0,5.651547909E0
1.259227243E0,3.203690529E0,6.259922981E0,5.961717606E0
1.275893181E0,3.184547901E0,6.268896103E0,6.091827393E0
1.292559118E0,3.096312523E0,6.133402824E0,6.157629967E0
1.309225056E0,2.909074068E0,5.851348877E0,6.000002861E0
1.325890993E0,2.601596355E0,5.951847076E0,5.504987717E0
1.342556931E0,2.427219391E0,6.555436611E0,4.223930359E0
1.359222868E0,2.901297569E0,7.089335442E0,3.391526937E0
1.375888806E0,3.458226919E0,7.450352192E0,3.502195120E0
1.392554743E0,3.830610037E0,7.414759159E0,4.612763882E0
1.409220681E0,4.033401489E0,7.230811119E0,5.929713726E0
1.425886618E0,4.000500202E0,7.145267487E0,6.700501442E0
1.442552556E0,3.917050600E0,7.546065331E0,6.871588230E0
1.459218493E0,4.182055950E0,7.890631676E0,6.390631199E0
1.475884431E0,4.554438591E0,8.243872643E0,5.713163376E0
1.492550368E0,4.518546581E0,8.459226608E0,5.498706341E0
1.509216306E0,4.159922123E0,8.321339607E0,5.714060307E0
1.525882243E0,3.768097401E0,8.158029556E0,6.268597126E0
1.542548181E0,3.559024572E0,7.993822098E0,6.821339130E0
1.559214118E0,3.594617844E0,7.742276669E0,6.985247612E0
1.575880056E0,3.860221148E0,7.469794273E0,6.996613503E0
1.592545993E0,4.121636868E0,7.281658173E0,6.702894211E0
1.609211931E0,4.159324169E0,7.064509869E0,6.535995007E0
1.625877868E0,4.054637909E0,6.767799854E0,6.537191391E0
1.642543806E0,3.874877214E0,6.335596085E0,6.669992924E0
1.659209743E0,3.648456335E0,6.022435665E0,6.921239376E0
1.675875681E0,3.510270834E0,5.893223286E0,6.926024914E0
1.692541618E0,3.530609846E0,5.892923832E0,6.728617191E0
1.709207556E0,3.404687405E0,6.239583969E0,6.289235115E0
1.725873493E0,3.419343472E0,6.455237389E0,5.413163185E0
1.742539431E0,3.636492252E0,6.428617001E0,5.057529926E0
1.759205368E0,3.795016766E0,6.265306950E0,4.820939541E0
1.775871306E0,3.803092480E0,6.088238239E0,5.066802025E0
1.792537243E0,3.712165117E0,6.267699718E0,5.455934525E0
1.809203181E0,4.201497555E0,6.669693947E0,5.736194134E0
1.825869118E0,5.153841019E0,7.067800045E0,5.573183060E0
1.842535056E0,5.761318684E0,7.254140854E0,5.225924492E0
1.859200993E0,5.587240696E0,7.376174927E0,4.860720158E0
1.875866931E0,5.015655518E0,7.377969742E0,4.744369030E0
1.892532868E0,4.381856441E0,7.401598454E0,4.586741924E0
1.909198806E0,4.020540237E0,7.419544697E0,4.549653053E0
1.925864743E0,3.923331738E0,7.400402069E0,4.665705204E0
1.942530681E0,3.718745470E0,7.591229916E0,5.025525570E0
1.959196618E0,3.722633839E0,7.537989616E0,5.365904808E0
1.975862556E0,3.790829182E0,7.489235878E0,5.407779217E0
1.992528493E0,3.937090635E0,7.478467941E0,5.309374332E0
2.009194431E0,4.095614910E0,7.562515736E0,5.243272781E0
2.025860368E0,4.317250252E0,7.705187798E0,5.234598637E0
2.042526306E0,4.419244289E0,7.815855980E0,5.446961880E0
2.059192243E0,4.318147659E0,7.760222912E0,5.750251770E0
2.075858181E0,3.835993767E0,7.674679756E0,6.195316792E0
2.092524118E0,3.267100334E0,7.540980339E0,6.567101955E0
2.109190056E0,2.886641502E0,7.453343391E0,6.597311020E0
2.125855993E0,2.870789051E0,7.514659405E0,6.204888344E0
2.142521931E0,3.010769129E0,7.670193195E0,5.588138103E0
2.159187868E0,3.001496792E0,7.909176350E0,5.316552639E0
2.175853806E0,3.066103220E0,7.904988766E0,5.546862125E0
2.192519743E0,3.186641455E0,7.706384659E0,6.019145489E0
2.209185681E0,3.228815079E0,7.379764080E0,6.343372822E0
2.225851618E0,3.139981508E0,7.096812725E0,6.535097599E0
2.242517556E0,2.810370207E0,6.943971157E0,6.591329098E0
2.259183493E0,2.408974171E0,6.922435760E0,6.350850582E0
2.275849431E0,2.154437780E0,6.968497753E0,6.198307991E0
2.292515368E0,2.142473459E0,7.057032108E0,6.037390709E0
2.309181306E0,2.375175476E0,7.086344242E0,5.867201328E0
2.325847243E0,2.681456804E0,7.106683254E0,5.884250164E0
2.342513181E0,2.959024191E0,7.110870838E0,5.986244202E0
2.359179118E0,3.280858994E0,7.255636692E0,6.081059456E0
2.375845056E0,3.642773390E0,7.277471066E0,5.874080658E0
2.392510993E0,4.123730659E0,6.905686378E0,5.679364681E0
2.409176931E0,4.909772873E0,6.231209278E0,5.536094189E0
2.425842868E0,5.189733028E0,5.706583023E0,5.714658737E0
2.442508806E0,4.395914078E0,5.892624855E0,6.324828625E0
2.459174743E0,3.532703638E0,6.342475414E0,6.512365818E0
2.475840681E0,3.187838078E0,6.790830612E0,6.088238239E0
2.492506618E0,2.884547710E0,7.248756886E0,5.270491123E0
2.509172556E0,2.625524759E0,7.679764271E0,4.537090778E0
2.525838493E0,2.500798702E0,7.962715626E0,3.999304056E0
2.542504431E0,2.403590441E0,7.925327778E0,3.963112593E0
2.559170368E0,2.333899498E0,7.702496052E0,4.588536739E0
2.575836306E0,2.294716835E0,7.576274872E0,5.310271740E0
2.592502243E0,2.439482689E0,7.684549809E0,5.961717606E0
2.609168181E0,2.644068956E0,7.971987724E0,6.235396862E0
2.625834118E0,2.662314177E0,8.153244019E0,6.352345943E0
2.642500056E0,2.609373093E0,8.085348129E0,6.250650883E0
2.659165993E0,2.464906454E0,7.900801182E0,6.077470303E0
2.675831931E0,2.346461773E0,7.815258026E0,5.964110374E0
2.692497868E0,2.294118643E0,7.731209755E0,5.988636971E0
2.709163806E0,2.020738840E0,7.845467091E0,6.235994816E0
2.725829743E0,1.781755567E0,7.794919014E0,6.566503525E0
2.742495681E0,1.470090389E0,7.654041290E0,6.834499836E0
2.759161618E0,1.286441326E0,7.450651646E0,6.999305248E0
2.775827556E0,1.189232826E0,7.277770042E0,7.026224613E0
2.792493493E0,1.226620674E0,7.079165936E0,7.016055107E0
2.809159431E0,1.245165110E0,6.887141705E0,7.007380962E0
2.825825368E0,1.274178028E0,6.737291336E0,7.166204929E0
2.842491306E0,1.374975681E0,6.669394970E0,7.199405193E0
2.859157243E0,1.736291885E0,6.772884369E0,6.959225655E0
2.875823181E0,2.224427700E0,6.773482800E0,6.674180508E0
2.892489118E0,2.775674343E0,6.707081795E0,6.485147476E0
2.909155056E0,3.191427231E0,6.705586433E0,6.427719593E0
2.925820993E0,3.446861029E0,6.727420807E0,6.411269188E0
2.942486931E0,3.690629721E0,6.509674072E0,6.306283951E0
2.959152868E0,3.843172312E0,6.176473618E0,6.123831272E0
2.975818806E0,3.934996843E0,5.936294079E0,5.858826160E0
2.992484743E0,3.827618837E0,5.883352757E0,5.528915882E0
3.009150681E0,3.557229996E0,6.015855312E0,5.216652393E0
3.025816618E0,3.106182814E0,6.212665081E0,5.062315464E0
3.042482556E0,2.759821892E0,6.401398659E0,4.872983456E0
3.059148493E0,2.607578516E0,6.656533718E0,4.502095699E0
3.075814431E0,2.743670225E0,6.757331371E0,3.988237143E0
3.092480368E0,2.716751099E0,6.675077915E0,3.652344704E0
3.109146306E0,2.669193745E0,6.209374905E0,3.736990690E0
3.125812243E0,2.472683191E0,5.735296726E0,3.911068678E0
3.142478181E0,2.124228239E0,5.270191669E0,4.373481750E0
3.159144118E0,1.673181176E0,4.866104126E0,5.065605640E0
3.175810056E0,1.229312658E0,4.638187408E0,4.768297195E0
3.192475993E0,7.199404836E-1,4.689034939E0,4.691727161E0
3.209141931E0,4.788636267E-1,4.784149647E0,5.317151070E0
3.225807868E0,4.259224236E-1,4.817050934E0,5.974279881E0
3.242473806E0,1.977069676E-1,5.044967651E0,6.683452606E0
3.259139743E0,5.294119939E-2,5.490331650E0,7.116852760E0
3.275805681E0,3.119642437E-1,5.747859001E0,7.700402260E0
3.292471618E0,9.385846853E-1,5.768496990E0,8.588737488E0
3.309137556E0,1.314856052E0,5.830112457E0,8.989236832E0
3.325803493E0,1.275374413E0,5.899205208E0,8.966205597E0
3.342469431E0,1.033699393E0,5.851348877E0,9.178269386E0
3.359135368E0,8.673982024E-1,5.723332882E0,9.912567139E0
3.375801306E0,9.206385016E-1,5.511867046E0,1.065015411E1
3.392467243E0,1.256531000E0,5.266901970E0,1.142154026E1
3.409133181E0,1.542473316E0,5.309374332E0,1.157019520E1
3.425799118E0,1.675274968E0,5.445167065E0,1.117149067E1
3.442465056E0,1.821237087E0,5.642873764E0,1.083350468E1
3.459130993E0,2.112862349E0,5.751747608E0,1.080688477E1
3.475796931E0,1.982752681E0,5.673382282E0,1.050479031E1
3.492462868E0,1.724925995E0,5.586941719E0,1.116550827E1
3.509128806E0,1.514058471E0,5.432305813E0,1.118076324E1
3.525794743E0,1.604387641E0,5.341677666E0,1.093161011E1
3.542460681E0,1.669891119E0,5.320441246E0,1.062024403E1
3.559126618E0,1.791027784E0,5.272285461E0,1.023739243E1
3.575792556E0,1.955534339E0,5.244169712E0,9.837491989E0
3.592458493E0,1.994716763E0,5.180161953E0,9.489037514E0
3.609124431E0,1.821835399E0,5.116453171E0,9.346066475E0
3.625790368E0,1.745863199E0,4.966004372E0,9.282357216E0
3.642456306E0,1.724327803E0,4.768895626E0,9.414261818E0
3.659122243E0,1.624128342E0,4.582554340E0,9.635896683E0
3.675788181E0,1.395613790E0,4.445864677E0,9.464810371E0
3.692454118E0,1.308275819E0,4.285545349E0,9.318249702E0
3.709120056E0,1.323829174E0,4.200899124E0,9.275477409E0
3.725785993E0,1.298405409E0,4.076472282E0,9.148359299E0
3.742451931E0,1.288235903E0,4.022634029E0,9.046066284E0
3.759117868E0,1.480259895E0,4.007678986E0,8.903393745E0
3.775783806E0,1.788036704E0,4.041477680E0,8.800502777E0
3.792449743E0,1.968395710E0,4.055535316E0,8.781359673E0
3.809115681E0,2.132004976E0,4.067798615E0,8.791828156E0
3.825781618E0,2.146661043E0,4.135694981E0,8.684151649E0
3.842447556E0,2.196611166E0,4.148257256E0,8.442775726E0
3.859113493E0,2.280060768E0,4.126422882E0,8.343173981E0
3.875779431E0,2.354836702E0,4.083052635E0,8.381758690E0
3.892445368E0,2.370389938E0,4.060919285E0,8.492426872E0
3.909111306E0,2.383251429E0,3.990629911E0,8.622835159E0
3.925777243E0,2.331805706E0,3.949652910E0,8.587242126E0
3.942443181E0,2.202892303E0,3.940979004E0,8.495417595E0
3.959109118E0,2.120938063E0,3.954737663E0,8.427521706E0
3.975775056E0,2.093719721E0,3.945465326E0,8.466404915E0
3.992440993E0,2.098804474E0,3.913461447E0,8.572287560E0
4.009106931E0,2.196012974E0,3.876971006E0,8.780163765E0
4.025772868E0,2.330908298E0,3.867997885E0,8.918349266E0
4.042438806E0,2.415853500E0,3.874577999E0,9.128618240E0
4.059104743E0,2.453241348E0,3.886243105E0,9.343074799E0
4.075770681E0,2.510071039E0,3.915555239E0,9.419047356E0
4.092436618E0,2.638685226E0,3.973282099E0,9.320941925E0
4.109102556E0,2.920439959E0,4.012763500E0,9.129815102E0
4.125768493E0,3.087339401E0,4.070789337E0,8.909674644E0
4.142434431E0,3.151646614E0,4.112065792E0,8.703892708E0
4.159100368E0,3.142374277E0,4.115056515E0,8.580063820E0
4.175766306E0,3.059522867E0,4.099204063E0,8.440382957E0
4.192432243E0,2.989233732E0,4.017848492E0,8.552247047E0
4.209098181E0,2.910868645E0,3.964607954E0,8.625826836E0
4.225764118E0,2.774477959E0,3.924528122E0,8.590232849E0
4.242430056E0,2.707179785E0,3.934099436E0,8.469695091E0
4.259095993E0,2.687139750E0,3.898506403E0,8.352147102E0
4.275761931E0,2.705983400E0,3.860221148E0,8.350951195E0
4.292427868E0,2.618944407E0,3.813860178E0,8.501997948E0
4.309093806E0,2.614757061E0,3.709772348E0,8.725727081E0
4.325759743E0,2.583650351E0,3.634398460E0,8.852546692E0
4.342425681E0,2.525026083E0,3.586542130E0,8.810073853E0
4.359091618E0,2.566900492E0,3.594916821E0,8.691629410E0
4.375757556E0,2.544766903E0,3.573381424E0,8.647063255E0
4.392423493E0,2.503191471E0,3.539881945E0,8.658129692E0
4.409089431E0,2.353341103E0,3.525225878E0,8.655437469E0
4.425755368E0,2.159821510E0,3.516551971E0,8.821439743E0
4.442421306E0,2.261815548E0,3.451945782E0,9.022437096E0
4.459087243E0,2.435295343E0,3.412464142E0,9.091529846E0
4.475753181E0,2.501097918E0,3.434597731E0,9.073583603E0
4.492419118E0,2.458326101E0,3.446262836E0,9.026025772E0
4.509085056E0,2.368296146E0,3.444767237E0,8.967103004E0
4.525750993E0,2.351845503E0,3.492623806E0,8.905786514E0
4.542416931E0,2.469093800E0,3.514159203E0,8.894720078E0
4.559082868E0,2.654537678E0,3.480061531E0,8.927322388E0
4.575748806E0,2.718246460E0,3.454338551E0,9.023633003E0
4.592414743E0,2.583351135E0,3.433700562E0,8.992825508E0
4.609080681E0,2.474776745E0,3.451945782E0,8.876474380E0
4.625746618E0,2.408974171E0,3.489632607E0,8.745766640E0
4.642412556E0,2.375773668E0,3.487539053E0,8.662615776E0
4.659078493E0,2.379961252E0,3.399602890E0,8.618648529E0
4.675744431E0,2.320140600E0,3.326621771E0,8.620442390E0
4.692410368E0,2.326421738E0,3.364607811E0,8.630014420E0
4.709076306E0,2.453540564E0,3.418446302E0,8.679066658E0
4.725742243E0,2.606681108E0,3.470789194E0,8.818747520E0
4.742408181E0,2.705684185E0,3.537189960E0,8.916254997E0
4.759074118E0,2.758027315E0,3.580260992E0,8.949156761E0
4.775740056E0,2.740679264E0,3.608675718E0,9.023633003E0
4.792405993E0,2.717050076E0,3.580859184E0,9.091230392E0
4.809071931E0,2.685943365E0,3.570091486E0,9.068498611E0
4.825737868E0,2.638386011E0,3.594318628E0,8.948857307E0
4.842403806E0,2.638386011E0,3.582653761E0,8.864809990E0
4.859069743E0,2.684448004E0,3.611068487E0,8.890532494E0
4.875735681E0,2.719742060E0,3.656831264E0,8.837890625E0
4.892401618E0,2.669193745E0,3.679862022E0,8.838488579E0
4.909067556E0,2.578565598E0,3.685844183E0,8.810373306E0
4.925733493E0,2.384746790E0,3.743571043E0,8.858528137E0
4.942399431E0,2.309372902E0,3.720839262E0,8.896514893E0
4.959065368E0,2.362613201E0,3.681656837E0,8.981459618E0
4.975731306E0,2.358724833E0,3.627519131E0,9.137291908E0
4.992397243E0,2.205883265E0,3.643072367E0,9.164211273E0
5.009063181E0,2.064407825E0,3.773182154E0,9.012866020E0
5.025729118E0,2.212762833E0,3.897608995E0,8.893822670E0
5.042395056E0,2.391925335E0,3.929014683E0,8.892327309E0
5.059060993E0,2.429013968E0,3.892225027E0,9.104989052E0
5.075726931E0,2.441277266E0,3.834199190E0,9.352646828E0
5.092392868E0,2.459522486E0,3.747459412E0,9.452845573E0
5.109058806E0,2.561516523E0,3.698705673E0,9.417252541E0
5.125724743E0,2.738884687E0,3.713062525E0,9.346364975E0
5.142390681E0,2.955435038E0,3.753142357E0,9.342476845E0
5.159056618E0,2.994916677E0,3.810570002E0,9.339784622E0
5.175722556E0,2.920439959E0,3.848257065E0,9.364610672E0
5.192388493E0,2.892324448E0,3.850350618E0,9.296415329E0
5.209054431E0,2.864208698E0,3.861716747E0,9.035896301E0
5.225720368E0,2.833999395E0,3.907180309E0,8.669196129E0
5.242386306E0,2.753241539E0,3.978965044E0,8.342576027E0
5.259052243E0,2.670689106E0,3.987339735E0,8.152646065E0
5.275718181E0,2.664108992E0,3.916452408E0,8.166105270E0
5.292384118E0,2.711068153E0,3.821935892E0,8.303094864E0
5.309050056E0,2.630310297E0,3.743271828E0,8.458329201E0
5.325715993E0,2.471785784E0,3.718446493E0,8.545966148E0
5.342381931E0,2.440080881E0,3.725624800E0,8.419146538E0
5.359047868E0,2.502294302E0,3.770490170E0,8.233403206E0
5.375713806E0,2.586043119E0,3.735495329E0,8.100900650E0
5.392379743E0,2.602493763E0,3.678067446E0,8.149654388E0
5.409045681E0,2.564208508E0,3.571586847E0,8.409873962E0
5.425711618E0,2.455035925E0,3.444169044E0,8.667402267E0
5.442377556E0,2.397608280E0,3.279064417E0,8.832506180E0
5.459043493E0,2.571387053E0,3.034099102E0,8.811270714E0
5.475709431E0,3.014657497E0,2.783151865E0,8.673383713E0
5.492375368E0,3.331706524E0,2.587538481E0,8.513064384E0
5.509041306E0,3.415455103E0,2.376970291E0,8.444869041E0
5.525707243E0,3.357130051E0,2.037488461E0,8.325527191E0
5.542373181E0,3.234498024E0,1.788036704E0,8.159524918E0
5.559039118E0,3.519842148E0,1.483250976E0,8.081758499E0
5.575705056E0,4.101297855E0,7.624131441E-1,8.003094673E0
5.592370993E0,4.362115860E0,1.292124242E-1,7.884350777E0
5.609036931E0,4.399802685E0,-1.465603858E-1,7.584051132E0
5.625702868E0,4.634299278E0,-3.559323549E-1,7.087241650E0
5.642368806E0,5.023132801E0,-3.846462369E-1,6.959823608E0
5.659034743E0,5.397310734E0,-4.088735580E-1,6.986742973E0
5.675700681E0,5.797211170E0,-4.935196638E-1,6.969993114E0
5.692366618E0,6.290431499E0,-4.947160780E-1,7.134200573E0
5.709032556E0,6.967600346E0,-5.829514265E-1,7.260721207E0
5.725698493E0,7.485646725E0,-5.665007830E-1,7.332505703E0
5.742364431E0,7.600502014E0,-4.612165689E-1,7.299903870E0
5.759030368E0,7.484450340E0,-3.011965454E-1,7.278069019E0
5.775696306E0,7.354639530E0,-1.528415531E-1,7.153642178E0
5.792362243E0,7.456035137E0,6.490531564E-2,7.330711365E0
5.809028181E0,7.869694710E0,6.281159073E-2,7.217949390E0
5.825694118E0,8.247461319E0,2.258226424E-1,7.208079338E0
5.842360056E0,8.567800522E0,4.247260094E-1,7.138388157E0
5.859025993E0,8.866005898E0,5.066801906E-1,7.448258877E0
5.875691931E0,8.964410782E0,4.112663865E-1,8.040183067E0
5.892357868E0,8.837591171E0,3.104687333E-1,8.655437469E0
5.909023806E0,8.556734085E0,2.333002090E-1,9.147461891E0
5.925689743E0,8.429914474E0,1.872383654E-1,9.237193108E0
5.942355681E0,8.321339607E0,2.730808854E-1,8.961120605E0
5.959021618E0,8.002795219E0,4.301098585E-1,8.678768158E0
5.975687556E0,7.539783955E0,6.125625968E-1,8.700901031E0
5.992353493E0,7.284948349E0,7.112665176E-1,9.057432175E0
6.009019431E0,7.142874718E0,7.651050687E-1,9.627820969E0
6.025685368E0,6.890431881E0,9.251250625E-1,1.015424156E1
6.042351306E0,6.372983932E0,1.127617717E0,1.050568771E1
6.059017243E0,5.687440395E0,1.556830287E0,1.067049313E1
6.075683181E0,5.184947491E0,2.031506538E0,1.048714352E1
6.092349118E0,4.775176525E0,2.497508526E0,1.014496994E1
6.109015056E0,4.541278362E0,2.813660383E0,9.789037704E0
6.125680993E0,4.113561153E0,3.066402197E0,9.538688660E0
6.142346931E0,3.364607811E0,3.335594654E0,9.252745628E0
6.159012868E0,2.769991398E0,3.608675718E0,8.765208244E0
6.175678806E0,2.604587555E0,3.778865099E0,7.870592117E0
6.192344743E0,2.448754787E0,3.943969965E0,7.248756886E0
6.209010681E0,2.295315027E0,3.927220106E0,7.413861752E0
6.225676618E0,2.061117649E0,3.888635874E0,8.231907845E0
6.242342556E0,2.177169561E0,3.934996843E0,9.177371979E0
6.259008493E0,3.177369356E0,4.182653904E0,1.035404301E1
6.275674431E0,5.467599869E0,4.587639332E0,1.250548935E1
6.292340368E0,8.561519623E0,4.773980141E0,1.513490200E1
6.309006306E0,1.200598717E1,4.251148701E0,1.714517212E1
6.325672243E0,1.421815205E1,3.711566925E0,1.819113541E1
6.342338181E0,1.504756451E1,3.003590584E0,1.849621964E1
6.359004118E0,1.545912933E1,1.581057549E0,1.785883141E1
6.375670056E0,1.516840172E1,3.080759048E-1,1.599990749E1
6.392335993E0,1.423370552E1,-6.520441771E-1,1.345633698E1
6.409001931E0,1.256830120E1,-1.554437399E0,1.107697392E1
6.425667868E0,1.017996502E1,-2.310868502E0,9.190532684E0
6.442333806E0,7.858627796E0,-3.058924675E0,7.257730007E0
6.458999743E0,6.100800514E0,-3.500699520E0,5.154139996E0
6.475665681E0,5.106582642E0,-3.731307745E0,3.076571703E0
6.492331618E0,4.333102703E0,-4.462913513E0,5.243272781E-1
6.508997556E0,3.351148129E0,-4.787140846E0,-1.229910851E0
6.525663493E0,2.445763826E0,-4.787738800E0,-2.737389088E0
6.542329431E0,1.834995866E0,-4.561916351E0,-3.669692516E0
6.558995368E0,1.237986565E0,-4.247559071E0,-3.783351660E0
6.575661306E0,1.011565804E0,-4.022634029E0,-3.506083488E0
6.592327243E0,2.359024048E0,-3.750749588E0,-3.878167391E0
6.608993181E0,4.732405186E0,-3.243770123E0,-4.904688358E0
6.625659118E0,6.285048008E0,-2.669791937E0,-4.447659016E0
6.642325056E0,7.592725277E0,-2.298007011E0,-1.816451430E0
6.658990993E0,9.433403969E0,-1.093519926E0,1.731207132E0
6.675656931E0,1.391845131E1,1.470090389E0,8.032406807E0
6.692322868E0,2.082832527E1,3.227020502E0,1.507567978E1
6.708988806E0,2.392613220E1,2.332104683E0,2.148365974E1
6.725654743E0,2.087887383E1,2.876172781E0,2.755574608E1
6.742320681E0,1.648355675E1,4.676173687E0,2.681756020E1
6.758986618E0,1.354756355E1,5.431707382E0,2.215155602E1
6.775652556E0,9.727721214E0,5.983851433E0,1.674946022E1
6.792318493E0,5.692824364E0,6.489634037E0,1.161476135E1
6.808984431E0,2.890529871E0,7.251150131E0,6.674778938E0
6.825650368E0,1.576870084E0,7.739883900E0,3.382254839E0
6.842316306E0,1.026820064E0,7.775776386E0,2.229811668E0
6.858982243E0,3.200400174E-1,7.538887024E0,2.274677038E0
6.875648181E0,1.103689447E-1,7.287640572E0,2.818745136E0
6.892314118E0,1.144068360E0,7.317251682E0,3.464807272E0
6.908980056E0,1.913959026E0,7.973782539E0,3.499503136E0
6.925645993E0,7.190431952E-1,8.693722725E0,3.267698526E0
6.942311931E0,-1.468295813E0,8.522336960E0,3.538685560E0
6.958977868E0,-2.774178743E0,7.557730198E0,4.222135544E0
6.975643806E0,-1.982154489E0,6.412465572E0,5.315954685E0
6.992309743E0,2.721835673E-1,5.816054344E0,6.783951283E0
7.008975681E0,2.686840773E0,6.279963017E0,7.795815945E0
7.025641618E0,5.554638863E0,8.245068550E0,7.417750359E0
7.042307556E0,7.354340553E0,1.215105247E1,7.008278370E0
7.058973493E0,1.003400230E1,1.650718689E1,9.335597992E0
7.075639431E0,1.735065651E1,1.847917175E1,1.534098434E1
7.092305368E0,2.524308205E1,1.584796333E1,1.832902145E1
7.108971306E0,2.766162872E1,1.156032467E1,1.804666901E1
7.125637243E0,2.359891510E1,6.717251301E0,1.727857208E1
7.142303181E0,1.653739548E1,2.016252279E0,1.608904076E1
7.158969118E0,9.603892326E0,-1.665703654E0,1.399561977E1
7.175635056E0,4.429712772E0,-4.307379723E0,1.013479996E1
7.192300993E0,1.883151412E0,-6.099305153E0,5.441577911E0
7.208966931E0,9.346963167E-1,-7.259823799E0,1.480558991E0
7.225632868E0,5.991029739E-1,-7.671090126E0,-1.821835399E0
7.242298806E0,1.136590719E0,-7.752147198E0,-3.582653761E0
7.258964743E0,1.118046403E0,-7.849654675E0,-5.429912567E0
7.275630681E0,1.068993568E0,-7.479365349E0,-6.021239281E0
7.292296618E0,-2.093719784E-3,-6.548856258E0,-5.850152493E0
7.308962556E0,-3.457628787E-1,-4.291527271E0,-5.689234734E0
7.325628493E0,-2.353939265E-1,-2.540280342E0,-5.662913799E0
7.342294431E0,1.754836321E0,-2.496312141E0,-5.089832783E0
7.358960368E0,3.689134359E0,-2.199003935E0,-3.335295677E0
7.375626306E0,5.985346794E0,-1.261615753E0,-2.260020971E0
7.392292243E0,9.692427635E0,-1.389033556E0,-1.497009635E0
7.408958181E0,1.072253704E1,1.202692509E0,8.189435601E-1
7.425624118E0,1.181276703E1,6.150451660E0,8.732905388E0
7.442290056E0,1.612642860E1,8.862715721E0,2.452822685E1
7.458955993E0,2.235434723E1,8.090133667E0,3.927758408E1
7.475621931E0,2.424527550E1,8.044670105E0,3.742284775E1
7.492287868E0,1.873968887E1,1.116550827E1,2.611167717E1
7.508953806E0,1.228594780E1,1.288415337E1,1.506969833E1
7.525619743E0,8.151748657E0,1.215763283E1,8.124231339E0
7.542285681E0,5.877071381E0,1.095284653E1,4.884349346E0
7.558951618E0,4.699204445E0,9.773782730E0,4.172783375E0
7.575617556E0,3.346661568E0,9.415159225E0,3.553042412E0
7.592283493E0,1.639382601E0,9.833603859E0,2.313560486E0
7.608949431E0,-1.010967612E0,1.082453156E1,1.845165372E0
7.625615368E0,-2.405683994E0,1.271187019E1,2.059622049E0
7.642281306E0,-4.637589455E0,1.333310699E1,4.386941433E0
7.658947243E0,-4.656432629E0,1.184836006E1,6.707081795E0
7.675613181E0,-5.076074123E0,1.051196861E1,7.816154957E0
7.692279118E0,-4.550550461E0,9.013164520E0,7.945965767E0
7.708945056E0,-2.055434704E0,7.881359577E0,7.916653633E0
7.725610993E0,4.671986103E-1,8.266005516E0,8.357830048E0
7.742276931E0,2.369193554E0,9.457332611E0,1.035254669E1
7.758942868E0,4.073780537E0,1.171376419E1,1.462852097E1
7.775608806E0,6.919744015E0,1.367258835E1,1.941416740E1
7.792274743E0,1.188275719E1,1.387478256E1,2.371406937E1
7.808940681E0,1.501316738E1,1.161715412E1,2.211895370E1
7.825606618E0,1.593021679E1,8.633603096E0,1.847588158E1
7.842272556E0,1.407637787E1,5.333601475E0,1.553450394E1
7.858938493E0,1.116939735E1,1.513759375E0,1.315095329E1
7.875604431E0,9.213563919E0,-1.865803480E0,8.769993782E0
7.892270368E0,7.893024445E0,-3.930809498E0,1.612762451E0
7.908936306E0,7.297510624E0,-4.680959225E0,-6.027520180E0
7.925602243E0,7.047760010E0,-5.354239941E0,-9.279067039E0
7.942268181E0,5.804389477E0,-7.270890713E0,-6.678368092E0
7.958934118E0,3.690629721E0,-9.515059471E0,-2.607578516E0
7.975600056E0,1.216152072E0,-1.039262676E1,3.954139352E-1
7.992265993E0,-7.163512707E-1,-9.984052658E0,4.301098585E-1
8.008931931E0,-2.046162367E0,-8.705088615E0,-4.322933197E0
8.025597868E0,-1.810469389E0,-7.313961506E0,-8.809774399E0
8.042263806E0,7.992027402E-1,-6.367300987E0,-9.529116631E0
8.058929743E0,6.277271271E0,-6.312864304E0,-8.001299858E0
8.075595681E0,1.245972633E1,-5.558228016E0,-5.499005318E0
8.092261618E0,1.545912933E1,-2.419442892E0,-1.395314693E0
8.108927556E0,1.730040741E1,5.088636398E0,6.613163471E0
8.125593493E0,2.873839760E1,1.164497089E1,1.406471252E1
8.142259431E0,4.108685684E1,1.471944809E1,1.391246891E1
8.158925368E0,3.844488144E1,1.691306877E1,1.049103165E1
8.175591306E0,2.700898552E1,1.613928986E1,1.014257717E1
8.192257243E0,1.713081551E1,1.384337616E1,1.043898773E1
8.208923181E0,1.073868847E1,1.146162033E1,8.802297592E0
8.225589118E0,5.874080658E0,1.009621620E1,5.662016392E0
8.242255056E0,2.651845694E0,9.819247246E0,2.604587555E0
8.258920993E0,1.421934843E0,9.600901604E0,2.132603228E-1
8.275586931E0,1.301097274E0,9.147461891E0,-6.705885530E-1
8.292252868E0,1.287637711E0,8.545068741E0,-4.872384965E-1
8.308918806E0,6.011967063E-1,8.182855606E0,6.131608039E-2
8.325584743E0,-1.145264745E0,8.525926590E0,2.500499785E-1
8.342250681E0,-2.365305185E0,9.360123634E0,7.854440212E-1
8.358916618E0,-7.387840152E-1,1.046441174E1,2.295614243E0
8.375582556E0,3.731606960E0,1.251087284E1,4.719244480E0
8.392248493E0,8.037192345E0,1.534367657E1,7.014559746E0
8.408914431E0,7.622037411E0,1.627179146E1,7.046862602E0
8.425580368E0,5.731707573E0,1.451456261E1,7.974679470E0
8.442246306E0,3.259622574E0,1.483161163E1,1.137428284E1
8.458912243E0,4.361517429E0,1.649761391E1,1.282463169E1
8.475578181E0,7.507780075E0,1.775534248E1,1.042343426E1
8.492244118E0,1.039292622E1,1.938066673E1,6.669095993E0
8.508910056E0,1.477597904E1,1.917996979E1,5.122136116E0
8.525575993E0,1.875733757E1,1.506670666E1,5.571687698E0
8.542241931E0,1.852792549E1,1.004835987E1,7.718049526E0
8.558907868E0,1.567717552E1,4.622634411E0,9.662816048E0
8.575573806E0,1.231107235E1,-7.004988194E-1,1.013749218E1
8.592239743E0,9.961619377E0,-5.086842060E0,8.897710800E0
8.608905681E0,8.447261810E0,-8.530712128E0,5.512166023E0
8.625571618E0,7.835896015E0,-1.047667503E1,1.229312658E0
8.642237556E0,7.260721207E0,-1.058285618E1,-3.500998735E0
8.658903493E0,4.974379063E0,-8.787641525E0,-7.995317936E0
8.675569431E0,2.669791937E0,-5.626124382E0,-9.970891953E0
8.692235368E0,3.335893869E0,-2.775973320E0,-9.073583603E0
8.708901306E0,6.137589931E0,-9.807581902E-1,-7.258627415E0
8.725567243E0,7.943274021E0,3.714857101E-1,-5.624030590E0
8.742233181E0,7.773084164E0,1.494018674E0,-3.045764208E0
8.758899118E0,5.565705299E0,2.718246460E0,-7.160521746E-1
8.775565056E0,3.089133978E0,4.252345085E0,1.590628862E0
8.792230993E0,6.912266612E-1,7.315157890E0,2.729014158E0
8.808896931E0,5.473581553E-1,1.167787170E1,3.822833300E0
8.825562868E0,6.842276573E0,1.382513142E1,6.180361748E0
8.842228806E0,1.591436386E1,1.340967751E1,8.801100731E0
8.858894743E0,1.764796448E1,1.317577839E1,9.028717995E0
8.875560681E0,1.223659611E1,1.308036518E1,6.486942291E0
8.892226618E0,4.402793884E0,1.413320732E1,4.959125042E0
8.908892556E0,-9.257232547E-1,1.577946854E1,4.695914268E0
8.925558493E0,-1.770389676E0,1.614168167E1,5.733502388E0
8.942224431E0,-1.407278776E0,1.547318745E1,6.860222340E0
8.958890368E0,-2.964109182E-1,1.359033489E1,7.129116058E0
8.975556306E0,1.477568030E0,1.123161030E1,6.958328247E0
8.992222243E0,1.875673890E0,8.534300804E0,6.047261238E0
9.008888181E0,1.233201027E0,5.736493111E0,4.038187504E0
9.025554118E0,7.540382147E-1,3.379862070E0,1.772184253E0
9.042220056E0,9.610173702E-1,1.931606054E0,6.011966988E-2
9.058885993E0,1.317248821E0,1.655235052E0,-1.561017632E0
9.075551931E0,1.170090318E0,3.227319479E0,-2.877967358E0
9.092217868E0,1.190728426E0,7.575078487E0,-3.710071564E0
9.108883806E0,2.606980324E0,1.565235043E1,-2.230409861E0
9.125549743E0,1.264875984E1,1.907857323E1,3.959822416E0
9.142215681E0,2.214168549E1,2.088096619E1,1.078534889E1
9.158881618E0,2.583889580E1,2.263729858E1,1.337976646E1
9.175547556E0,2.757518768E1,2.354776764E1,1.474367619E1
9.192213493E0,2.793889618E1,2.293849564E1,1.864816475E1
9.208879431E0,2.709512711E1,1.862842369E1,1.986999893E1
9.225545368E0,2.554248428E1,1.175444221E1,1.502752399E1
9.242211306E0,1.857578087E1,5.670690536E0,6.288337708E0
9.258877243E0,9.243772507E0,2.834298372E0,-1.466202021E0
9.275543181E0,3.217149973E0,2.095215321E0,-6.582654953E0
9.292209118E0,1.574178219E0,3.051746130E0,-6.066403389E0
9.308875056E0,1.156929731E0,5.910272121E0,-3.146561861E0
9.325540993E0,2.238186598E0,9.279366493E0,-3.360719442E0
9.342206931E0,5.332704544E0,1.168953705E1,-5.535795212E0
9.358872868E0,8.372785568E0,1.322842121E1,-8.180761337E0
9.375538806E0,9.551549911E0,1.244178009E1,-6.473482609E0
9.392204743E0,8.259724617E0,9.830313683E0,-3.206681490E0
9.408870681E0,6.896713257E0,6.719345093E0,9.616156220E-1
9.425536618E0,5.281258583E0,4.800899506E0,4.985146999E0
9.442202556E0,3.551846027E0,4.082454681E0,5.871687889E0
9.458868493E0,3.085544825E0,3.851547241E0,3.367897987E0
9.475534431E0,5.306682587E0,1.309472203E0,-5.282155871E-1
9.492200368E0,4.177868366E0,1.845165372E0,-4.498805523E0
9.508866306E0,2.884248495E0,2.507379055E0,-6.228816509E0
9.525532243E0,2.454736948E0,2.154437780E0,-5.443970680E0
9.542198181E0,8.350951076E-1,1.791925073E0,-4.007678986E0
9.558864118E0,-1.349252820E0,1.486840129E0,-2.627618313E0
9.575530056E0,-2.768495798E0,1.580160260E0,-7.112665176E-1
9.592195993E0,-3.275774240E0,2.267797709E0,2.877369225E-1
9.608861931E0,-3.111267567E0,1.876272082E0,-1.450050473E0
9.625527868E0,-2.597109795E0,1.302592874E0,-4.954937458E0
9.642193806E0,-1.144666553E0,2.280958176E0,-7.738089561E0
9.658859743E0,-2.871387303E-1,4.542175770E0,-8.246265411E0
9.675525681E0,-2.075773627E-1,5.895316601E0,-5.761617661E0
9.692191618E0,5.491527915E-1,5.465207100E0,-2.382952213E0
9.708857556E0,1.352542996E0,3.639184237E0,2.817548811E-1
9.725523493E0,1.820040703E0,1.881655931E0,2.314756870E0
9.742189431E0,2.445464849E0,1.022632599E0,3.527319670E0
9.758855368E0,2.387438774E0,3.690928817E-1,5.094020367E0
9.775521306E0,1.199402332E0,1.537388563E0,7.279265404E0
9.792187243E0,1.492523104E-1,4.998008251E0,4.046861172E0
9.808853181E0,-2.602194622E-2,8.351848602E0,-1.669292927E0
9.825519118E0,-5.997011662E-1,8.662615776E0,-6.104988098E0
9.842185056E0,-6.339185238E0,7.287939548E0,-8.490632057E0
9.858850993E0,-8.575876236E0,6.362515450E0,-1.347308731E1
9.875516931E0,-6.012565136E0,4.065106392E0,-2.351995087E1
9.892182868E0,-3.788137436E0,1.639980793E0,-2.952145004E1
9.908848806E0,-2.619542599E0,-2.476870537E0,-2.481207466E1
9.925514743E0,-2.417049885E0,-2.140080690E0,-1.567867088E1
9.942180681E0,4.156631947E0,-8.904291391E-1,-1.244327641E1
9.958846618E0,1.240140152E1,-5.934200287E-1,-9.886843681E0
9.975512556E0,1.529940891E1,1.435693651E-1,-1.013180923E1
9.992178493E0,1.362144184E1,1.246660590E0,-9.056833267E0
1.000884443E1,9.260223389E0,7.968099117E-1,-9.971191406E0
1.002551037E1,7.445865631E0,2.088934183E0,-1.329153156E1
1.004217631E1,8.008777618E0,4.188935280E0,-1.793450546E1
1.005884224E1,9.112466812E0,7.225427151E0,-2.019901276E1
1.007550818E1,9.931410789E0,1.045603657E1,-1.896611023E1
1.009217412E1,1.153490067E1,1.269721413E1,-1.745055580E1
1.010884006E1,1.131087303E1,1.352303696E1,-1.701895142E1
1.012550599E1,9.909276962E0,1.289851093E1,-1.609861183E1
1.014217193E1,7.010970116E0,1.101117134E1,-1.371326637E1
1.015883787E1,3.481257915E0,9.515956879E0,-1.011505985E1
1.017550381E1,1.356431365E0,8.358428955E0,-7.648358345E0
1.019216974E1,2.330310106E0,7.718049526E0,-7.583453178E0
1.020883568E1,4.472783566E0,7.409674644E0,-8.447561264E0
1.022550162E1,4.309473515E0,7.280461788E0,-8.488538742E0
1.024216756E1,3.143271685E0,7.660621643E0,-6.336792469E0
1.025883349E1,2.856132984E0,8.824729919E0,-3.343371391E0
1.027549943E1,5.377869129E0,9.386445045E0,-2.073679924E0
1.029216537E1,8.297710419E0,9.282357216E0,-2.681157827E0
1.030883131E1,8.830412865E0,8.676973343E0,-2.649153709E0
1.032549724E1,6.755536556E0,8.000701904E0,-6.332007051E-1
1.034216318E1,5.555535793E0,7.739883900E0,1.549352646E0
1.035882912E1,7.012465954E0,8.646464348E0,3.443570852E0
1.037549506E1,1.016710377E1,1.174995518E1,2.729014158E0
1.039216099E1,1.363370514E1,1.539362621E1,2.937189937E-1
1.040882693E1,1.525813293E1,1.669143295E1,-1.524527073E0
1.042549287E1,1.344646645E1,1.626910019E1,-1.070189953E0
1.044215881E1,1.414517117E1,1.455883026E1,-7.471588850E-1
1.045882474E1,1.651077461E1,1.015364361E1,-1.756929994E0
1.047549068E1,1.869302940E1,3.333201885E0,-1.460219979E0
1.049215662E1,1.972732735E1,-3.241078377E0,-1.064207911E0
1.050882256E1,1.740898132E1,-7.635497093E0,-2.012363911E0
1.052548849E1,1.144487095E1,-9.257532120E0,-1.952842355E0
1.054215443E1,4.812564373E0,-8.744570732E0,-5.201398134E-1
1.055882037E1,3.675973713E-1,-8.025228500E0,5.105685592E-1
1.057548631E1,-7.977072597E-1,-8.084749222E0,-7.396813035E-1
1.059215224E1,1.558325738E-1,-7.863413334E0,-3.298506021E0
1.060881818E1,1.250548959E0,-7.050152779E0,-5.065306664E0
1.062548412E1,1.827219248E0,-5.705685616E0,-5.642574787E0
1.064215006E1,1.423729420E0,-4.597509384E0,-4.686642170E0
1.065881599E1,1.809871197E0,-3.810869217E0,-4.325325966E0
1.067548193E1,3.935894251E0,-3.375973701E0,-5.877370834E0
1.069214787E1,7.022336483E0,-3.489931822E0,-8.134101868E0
1.070881381E1,9.703793526E0,-2.484946251E0,-8.827122688E0
1.072547974E1,1.499761391E1,8.063812256E-1,-7.913363457E0
1.074214568E1,2.723421097E1,5.969195366E0,-4.832305431E0
1.075881162E1,4.393641281E1,1.019910717E1,-2.104188442E0
1.077547756E1,4.971089172E1,1.147657585E1,1.058824062E0
1.079214349E1,3.621477127E1,1.054337502E1,6.652047157E0
1.080880943E1,1.908395767E1,8.820841789E0,7.809275627E0
1.082547537E1,8.860322952E0,7.375576496E0,4.507180691E0
1.084214131E1,6.070889950E0,7.311867714E0,2.121536493E0
1.085880724E1,6.076872349E0,6.893722057E0,2.898904562E0
1.087547318E1,4.587040901E0,7.700103283E0,5.901896954E0
1.089213912E1,2.868994236E0,8.875576973E0,8.189734459E0
1.090880506E1,2.799901485E0,1.086969566E1,9.792028427E0
1.092547099E1,1.960319996E0,1.318265820E1,9.442975044E0
1.094213693E1,1.267896891E0,1.425883007E1,7.459325314E0
1.095880287E1,4.103690982E-1,1.366122246E1,5.373980522E0
1.097546881E1,-1.025922656E0,1.209661579E1,5.376672268E0
1.099213474E1,-1.395912886E0,9.560223579E0,7.762017727E0
1.100880068E1,1.063310504E0,7.123732090E0,1.163330555E1
1.102546662E1,4.870889664E0,5.652744293E0,1.451635742E1
1.104213256E1,7.523333549E0,5.665306568E0,1.464706516E1
1.105879849E1,1.054008484E1,6.578168392E0,1.413739395E1
1.107546443E1,1.423908901E1,7.805088520E0,1.379851055E1
1.109213037E1,2.097219276E1,9.090632439E0,1.422891998E1
1.110879631E1,2.725843811E1,8.012665749E0,1.177268696E1
1.112546224E1,2.604826736E1,4.396811485E0,1.031186962E1
1.114212818E1,1.957867241E1,1.525424421E-1,1.269841099E1
1.115879412E1,1.310698509E1,-3.678964853E0,1.501885033E1
1.117546006E1,8.684749603E0,-6.334100723E0,1.413649750E1
1.119212599E1,6.748956203E0,-7.558328629E0,7.483552933E0
1.120879193E1,5.935097694E0,-7.990531921E0,-4.767699242E-1
1.122545787E1,4.818546772E0,-7.513463020E0,-4.214358807E0
1.124212381E1,3.766602039E0,-8.403293610E0,-4.780859470E0
1.125878974E1,1.212562919E0,-8.828618050E0,-3.483351469E0
1.127545568E1,-9.511470199E-1,-9.140283585E0,-2.312064886E0
1.129212162E1,-2.413759947E0,-9.206983566E0,-2.959622622E0
1.130878756E1,-3.001496792E0,-8.415556908E0,-4.473680973E0
1.132545349E1,-2.126621008E0,-7.552944660E0,-6.187540054E0
1.134211943E1,2.440679073E-1,-6.685546398E0,-7.075576782E0
1.135878537E1,3.477070332E0,-6.547061920E0,-6.532704830E0
1.137545131E1,9.263513565E0,-6.699604511E0,-5.048556805E0
1.139211724E1,1.231047440E1,-3.772883177E0,-2.733500719E0
1.140878318E1,1.340818214E1,5.812166214E0,3.672683716E0
1.142544912E1,2.838635445E1,1.348026562E1,1.220997620E1
1.144211506E1,4.974020386E1,1.686940002E1,1.620000839E1
1.145878099E1,4.906572723E1,1.936421585E1,1.515583992E1
1.147544693E1,3.088057327E1,1.789412498E1,1.264846039E1
1.149211287E1,1.662712669E1,1.450319672E1,9.812067986E0
1.150877881E1,9.454340935E0,1.138923740E1,5.564508915E0
1.152544474E1,4.858626366E0,9.568898201E0,1.983350873E0
1.154211068E1,1.909472466E0,8.570791245E0,1.077966571E0
1.155877662E1,-1.369891018E-1,8.092824936E0,1.656132340E0
1.157544256E1,-1.475474238E0,8.153244019E0,1.900499344E0
1.159210849E1,-2.309073925E0,8.790931702E0,1.642373681E0
1.160877443E1,-2.577668190E0,9.768099785E0,1.843071699E0
1.162544037E1,-3.048455954E0,1.112632656E1,1.398305774E0
1.164210631E1,-5.069792747E0,1.246750355E1,7.342974544E-1
1.165877224E1,-6.328417778E0,1.312134171E1,2.268395901E0
1.167543818E1,-5.641079426E0,1.275733376E1,4.805984497E0
1.169210412E1,-2.535793781E0,1.220010567E1,7.484150887E0
1.170877006E1,1.793121457E0,1.262871933E1,8.378767967E0
1.172543599E1,4.727918625E0,1.473829174E1,7.584051132E0
1.174210193E1,8.072485924E0,1.769432449E1,8.474779129E0
1.175876787E1,1.387298775E1,1.967348862E1,1.128544903E1
1.177543381E1,2.438675117E1,1.942553329E1,1.144397354E1
1.179209974E1,3.223730469E1,1.721994781E1,7.386045456E0
1.180876568E1,2.999672318E1,1.363968754E1,2.629412889E0
1.182543162E1,2.388246346E1,7.503592491E0,4.044468403E0
1.184209756E1,1.710359764E1,9.583254457E-1,8.449356079E0
1.185876349E1,1.141077328E1,-3.837489367E0,1.074616623E1
1.187542943E1,8.775976181E0,-7.415955544E0,8.022834778E0
1.189209537E1,7.677670479E0,-1.022423172E1,2.986541748E0
1.190876131E1,5.867799282E0,-1.225663567E1,-5.234299600E-2
1.192542724E1,3.756731510E0,-1.419571972E1,-1.707877219E-1
1.194209318E1,1.168295622E0,-1.521595955E1,-7.686942816E-1
1.195875912E1,-1.129113197E0,-1.513191128E1,-3.614059448E0
1.197542506E1,-2.754138947E0,-1.388315678E1,-6.608078957E0
1.199209099E1,-3.860819340E0,-1.114726353E1,-8.089534760E0
1.200875693E1,-2.900100946E0,-9.131011009E0,-8.797212601E0
1.202542287E1,3.037090063E0,-7.922635555E0,-7.294818878E0
1.204208881E1,1.123759270E1,-6.530013084E0,-5.992525101E0
1.205875474E1,1.416521072E1,-2.845664263E0,-4.423730850E0
1.207542068E1,1.620658684E1,6.406184196E0,-2.282154560E-1
1.209208662E1,3.233451080E1,1.381107330E1,6.118148327E0
1.210875256E1,4.621288300E1,1.957837486E1,7.577171803E0
1.212541849E1,4.202364731E1,2.180848503E1,5.996413708E0
1.214208443E1,2.603510666E1,1.980419731E1,6.161219120E0
1.215875037E1,1.342433357E1,1.629332733E1,4.675874710E0
1.217541631E1,7.003193855E0,1.362174129E1,9.840483069E-1
1.219208224E1,4.292424679E0,1.180977631E1,-9.433703423E-1
1.220874818E1,2.591127872E0,1.093101215E1,-2.344966233E-1
1.222541412E1,1.956132531E0,1.038604641E1,7.707880139E-1
1.224208006E1,3.489931822E0,1.016112137E1,1.928016901E0
1.225874599E1,3.670889139E0,1.074407291E1,2.530410051E0
1.227541193E1,-3.487538993E-1,1.125135136E1,1.869392633E0
1.229207787E1,-5.377869129E0,1.137906837E1,1.078265667E0
1.230874381E1,-8.434102058E0,1.148644638E1,1.098604679E0
1.232540974E1,-8.823533058E0,1.107727337E1,2.156232357E0
1.234207568E1,-6.581458569E0,1.005194855E1,4.749154568E0
1.235874162E1,-2.605783939E0,9.182756424E0,7.165905476E0
1.237540756E1,5.772684813E-1,7.800003529E0,6.801598549E0
1.239207349E1,-1.454537034E0,6.833602428E0,5.693721294E0
1.240873943E1,-6.150451660E0,1.085623646E1,6.308976173E0
1.242540537E1,3.792623997E0,1.592991734E1,8.826524734E0
1.244207131E1,2.939522743E1,1.502722549E1,1.121695423E1
1.245873724E1,4.473979950E1,1.180977631E1,1.037767220E1
1.247540318E1,3.920998764E1,8.108976364E0,8.397910118E0
1.249206912E1,2.517189598E1,5.382953644E0,7.312166691E0
1.250873506E1,1.717597961E1,3.421736479E0,4.727619171E0
1.252540099E1,1.437996674E1,1.897209287E0,9.523434043E-1
1.254206693E1,1.212772274E1,5.419743061E-1,-2.640778780E0
1.255873287E1,1.268674564E1,-3.320041299E-1,-6.570691109E0
1.257539881E1,1.052183914E1,6.981059909E-1,-1.173111248E1
1.259206474E1,5.261518002E0,2.607279301E0,-1.588265896E1
1.260873068E1,3.251546860E0,3.873680830E0,-1.694208145E1
1.262539662E1,4.398307323E0,4.262514591E0,-1.556919956E1
1.264206256E1,5.805286884E0,4.702793598E0,-1.265474129E1
1.265872849E1,7.325327396E0,5.745765209E0,-8.683553696E0
1.267539443E1,8.795717239E0,6.976872444E0,-3.986143351E0
1.269206037E1,1.026550865E1,8.482556343E0,8.171489239E-1
1.270872631E1,9.640383720E0,1.141555882E1,4.682754040E0
1.272539224E1,7.921738625E0,1.840918159E1,7.101598740E0
1.274205818E1,1.121904850E1,2.365245438E1,8.697610855E0
1.275872412E1,1.583540154E1,2.471397018E1,8.972785950E0
1.277539006E1,1.939562225E1,2.471696091E1,8.374580383E0
1.279205599E1,2.222453690E1,2.248027039E1,5.221737385E0
1.280872193E1,2.044936180E1,1.620748520E1,3.317050338E-1
1.282538787E1,1.182652569E1,1.031306553E1,-1.602892041E0
1.284205381E1,4.784748077E0,6.359823704E0,-1.485045552E0
1.285871974E1,2.517548561E0,3.403491020E0,-6.586244106E-1
1.287538568E1,2.660519600E0,1.479362607E0,3.293122053E-1
1.289205162E1,2.554039001E0,1.206879973E0,1.637288928E0
1.290871756E1,1.715055585E0,1.919043779E0,4.545465946E0
1.292538349E1,1.814058661E0,2.396710873E0,5.746961594E0
1.294204943E1,2.785843849E0,2.966202736E0,3.870390654E0
1.295871537E1,5.538786411E0,3.666103363E0,-6.598208547E-1
1.297538131E1,8.094919205E0,3.773481369E0,-6.502495766E0
1.299204724E1,6.816852570E0,3.550948858E0,-9.611071587E0
1.300871318E1,1.959123492E0,2.365903378E0,-7.918448448E0
1.302537912E1,-4.185944080E0,1.770090580E0,-3.766302824E0
1.304204506E1,-8.508578300E0,2.056032896E0,6.711867452E-1
1.305871099E1,-1.035284615E1,2.082054853E0,2.188834429E0
1.307537693E1,-9.710971832E0,1.340578914E0,-8.811569214E-1
1.309204287E1,-5.387440205E0,9.074779749E-1,-6.904788971E0
1.310870881E1,-1.506281853E0,1.596910000E0,-1.312373447E1
1.312537474E1,-1.890329868E-1,2.600699186E0,-1.532513142E1
1.314204068E1,-6.702894568E-1,3.461217880E0,-1.467518139E1
1.315870662E1,-4.624129832E-1,4.121936321E0,-1.290150166E1
1.317537256E1,4.037888348E-2,4.156631947E0,-9.847063065E0
1.319203849E1,1.631306887E0,3.260220766E0,-5.708676815E0
1.320870443E1,3.492623806E0,1.760220170E0,-1.777867198E0
1.322537037E1,4.073182583E0,1.531406492E-1,6.293123364E-1
1.324203631E1,2.742773056E0,-1.003789067E0,1.773679733E0
1.325870224E1,1.215254784E0,-1.612164259E0,2.995215654E0
1.327536818E1,1.387837082E-1,-2.231008053E0,3.331407309E0
1.329203412E1,-1.532902002E0,-2.880360365E0,3.367598772E0
1.330870006E1,-3.597908020E0,-3.335893869E0,3.549453259E0
1.332536599E1,-5.657829285E0,-3.620041609E0,3.615255833E0
1.334203193E1,-8.621041298E0,-4.492225647E0,3.495614767E0
1.335869787E1,-9.780662537E0,-5.801996708E0,3.865604877E0
1.337536381E1,-1.418883991E1,-6.347560406E0,4.832903385E0
1.339202974E1,-1.246989632E1,-9.136096001E0,6.542276382E0
1.340869568E1,-3.885943890E0,-1.251057434E1,1.141675472E1
1.342536162E1,7.909774303E0,-1.416371536E1,1.933251190E1
1.344202756E1,1.636182213E1,-1.061127090E1,2.249731827E1
1.345869349E1,2.504088974E1,-3.248854876E0,2.033749771E1
1.347535943E1,3.262673569E1,2.900400162E0,1.700070572E1
1.349202537E1,3.867489243E1,3.859622955E0,1.361845112E1
1.350869131E1,3.724458313E1,7.722237110E0,1.620688629E1
1.352535724E1,3.239313507E1,1.243579865E1,1.327837086E1
1.354202318E1,3.283460999E1,1.826950073E1,1.093669510E1
1.355868912E1,3.410549927E1,1.892064667E1,9.427422523E0
1.357535506E1,2.969044304E1,1.825484467E1,8.544769287E0
1.359202099E1,2.358874512E1,1.781695747E1,1.075723362E1
1.360868693E1,2.045025826E1,1.702553177E1,1.343091393E1
1.362535287E1,1.992024803E1,1.571456337E1,1.157527924E1
1.364201881E1,1.880040741E1,1.478973770E1,4.260121822E0
1.365868474E1,1.652004814E1,1.465005684E1,-1.903191328E0
1.367535068E1,1.658435440E1,1.366152191E1,-2.702394009E0
1.369201662E1,1.703151321E1,1.160429287E1,2.195414752E-1
1.370868256E1,1.513430405E1,9.053842545E0,2.783151865E0
1.372534849E1,1.218335533E1,6.576673031E0,4.563411713E0
1.374201443E1,1.050808048E1,4.493122578E0,5.752644539E0
1.375868037E1,1.050359440E1,3.204886913E0,5.979663849E0
1.377534631E1,1.099561787E1,2.488236427E0,6.097211361E0
1.379201224E1,1.059332466E1,2.410469770E0,6.203392506E0
1.380867818E1,9.174081802E0,2.510370016E0,6.454938412E0
1.382534412E1,7.376473904E0,3.097508907E0,6.680461884E0
1.384201006E1,5.148756027E0,4.276572227E0,6.124728680E0
1.385867599E1,3.998705626E0,5.139782906E0,4.575973988E0
1.387534193E1,3.645764351E0,6.178566933E0,2.668894529E0
1.389200787E1,4.577768803E0,7.275975227E0,1.316351533E0
1.390867381E1,6.113661766E0,7.617550850E0,1.627119422E0
1.392533974E1,6.246164322E0,7.423433304E0,4.809274197E0
1.394200568E1,3.837190151E0,8.622536659E0,1.047129059E1
1.395867162E1,3.675973892E0,1.100459099E1,1.302323627E1
1.397533756E1,6.181558132E0,1.549143314E1,1.077876854E1
1.399200349E1,1.141047382E1,1.854706764E1,1.148554897E1
1.400866943E1,1.730788422E1,1.436620808E1,2.149412727E1
1.402533537E1,1.515554047E1,3.636791229E0,3.240330505E1
1.404200131E1,1.268435287E1,-8.558229446E0,3.182992554E1
1.405866724E1,1.397617817E1,-1.467129326E1,2.119023895E1
1.407533318E1,1.720499229E1,-1.550249958E1,8.274680138E0
1.409199912E1,1.485284805E1,-1.233380413E1,-4.690231323E0
1.410866506E1,1.107488060E1,-1.087208843E1,-9.811769485E0
1.412533099E1,8.904889107E0,-1.152024460E1,-7.749155998E0
1.414199693E1,5.535496235E0,-1.135842991E1,-5.641079426E0
1.415866287E1,2.236391783E0,-9.969097137E0,-7.310073376E0
1.417532881E1,2.073679924E0,-8.865407944E0,-1.123220825E1
1.419199474E1,2.306082726E0,-7.638787270E0,-1.463869095E1
1.420866068E1,2.465504646E0,-6.704988003E0,-1.546660709E1
1.422532662E1,3.542573929E0,-6.125925064E0,-1.405484200E1
1.424199256E1,5.612066269E0,-6.488736629E0,-1.226381397E1
1.425865849E1,8.750253677E0,-7.587640762E0,-9.301798820E0
1.427532443E1,1.339143181E1,-6.942176819E0,-3.716651678E0
1.429199037E1,2.010898209E1,-1.273280740E0,4.379463673E0
1.430865631E1,3.272304535E1,6.289833546E0,1.441197109E1
1.432532224E1,4.392085648E1,1.220967674E1,1.906272125E1
1.434198818E1,4.198297119E1,1.559671688E1,1.716790390E1
1.435865412E1,3.002304459E1,1.588146305E1,1.304596806E1
1.437532006E1,1.718674850E1,1.409821224E1,9.015557289E0
1.439198599E1,7.075576782E0,1.255603790E1,5.192724228E0
1.440865193E1,1.305882931E0,1.243908882E1,2.542374134E0
1.442531787E1,-2.033899166E-2,1.247707462E1,1.830808401E0
1.444198381E1,-2.757728100E-1,1.261555958E1,1.776670814E0
1.445864974E1,1.037587762E0,1.308784294E1,1.631306887E0
1.447531568E1,2.078465462E0,1.383978748E1,2.380858511E-1
1.449198162E1,1.477568030E0,1.410329628E1,-8.222336769E-1
1.450864756E1,-1.085444212E0,1.442722511E1,7.262216806E-1
1.452531349E1,-3.502195120E0,1.407637787E1,4.703989983E0
1.454197943E1,-3.882653952E0,1.233948708E1,9.980762482E0
1.455864537E1,-1.832902193E0,9.849455833E0,1.343270779E1
1.457531131E1,8.033902049E-1,8.361719131E0,1.197817135E1
1.459197724E1,2.813660383E0,9.424430847E0,8.333902359E0
1.460864318E1,4.467699051E0,1.249083328E1,5.643173218E0
1.462530912E1,9.116354942E0,1.528086472E1,6.942774773E0
1.464197506E1,1.724836349E1,1.758784485E1,1.128096199E1
1.465864099E1,2.890828896E1,1.757528305E1,1.673181152E1
1.467530693E1,3.682942963E1,1.394327641E1,1.689781380E1
1.469197287E1,3.336133194E1,9.058628082E0,1.320718479E1
1.470863881E1,2.425095749E1,4.183252335E0,1.026610661E1
1.472530474E1,1.689871216E1,3.023929596E-1,8.427521706E0
1.474197068E1,1.330289745E1,-2.825325251E0,6.592525482E0
1.475863662E1,1.152233791E1,-4.883152962E0,4.782654285E0
1.477530256E1,9.468399048E0,-5.710172176E0,2.544467688E0
1.479196849E1,7.844869137E0,-6.332305908E0,1.872383654E-1
1.480863443E1,7.103991508E0,-7.049255371E0,-1.691426516E0
1.482530037E1,7.121937275E0,-8.721240044E0,-4.457529545E0
1.484196631E1,6.512964249E0,-1.069771194E1,-8.483453751E0
1.485863224E1,4.349852562E0,-1.100130081E1,-1.203410339E1
1.487529818E1,1.214955688E0,-9.973584175E0,-1.285424328E1
1.489196412E1,-1.904088616E0,-9.669396400E0,-8.425128937E0
1.490863006E1,-3.137588739E0,-1.148584747E1,-2.279163599E-1
1.492529599E1,-2.493919373E0,-1.256919861E1,6.011966705E0
1.494196193E1,-2.009671926E0,-1.144845963E1,4.834399223E0
1.495862787E1,-2.173879385E0,-5.553442478E0,-9.152546525E-2
1.497529381E1,2.341077805E0,3.521935940E0,-6.661019921E-1
1.499195974E1,1.955145454E1,8.307282448E0,9.216854095E0
1.500862568E1,3.704209137E1,1.325055408E1,1.906870270E1
1.502529162E1,4.105545425E1,1.798804474E1,1.981586075E1
1.504195756E1,3.372175217E1,1.995973015E1,1.440449333E1
1.505862349E1,2.184736824E1,1.983859253E1,7.619345665E0
1.507528943E1,1.196830082E1,1.733540154E1,2.194218397E0
1.509195537E1,5.012664318E0,1.428903961E1,-2.264208496E-1
1.510862131E1,7.749754190E-1,1.229103279E1,-4.268197417E-1
1.512528724E1,-1.593919039E0,1.173799133E1,-3.993022740E-1
1.514195318E1,-3.361616611E0,1.212772274E1,-7.782655358E-1
1.515861912E1,-5.102096081E0,1.280967712E1,-9.541380405E-1
1.517528506E1,-6.107978821E0,1.372194099E1,-7.827520967E-1
1.519195099E1,-5.705386639E0,1.445743465E1,8.225327730E-2
1.520861693E1,-4.064807415E0,1.358794212E1,1.614557028E0
1.522528287E1,-1.999203324E0,1.099412251E1,3.398406267E0
1.524194881E1,-7.489534616E-1,8.863015175E0,4.568795681E0
1.525861474E1,-3.939184248E-1,9.224929810E0,4.320839405E0
1.527528068E1,1.371087432E0,1.250997543E1,4.207778454E0
1.529194662E1,3.904488325E0,1.814656830E1,7.126723289E0
1.530861256E1,9.938289642E0,2.224816513E1,1.416012573E1
1.532527849E1,2.073590279E1,2.336710930E1,1.760997772E1
1.534194443E1,3.011217690E1,2.191735840E1,1.258146191E1
1.535861037E1,3.159094238E1,1.788395691E1,6.686742783E0
1.537527631E1,2.494487762E1,1.142303658E1,8.350353241E0
1.539194224E1,1.514806271E1,3.569493294E0,1.272383404E1
1.540860818E1,6.724429607E0,-2.367099762E0,1.458365536E1
1.542527412E1,3.172284603E0,-5.938686848E0,1.176700401E1
1.544194006E1,2.746362209E0,-8.057231903E0,6.651149750E0
1.545860599E1,4.263710976E0,-9.678070068E0,1.972284079E0
1.547527193E1,5.843572140E0,-1.128574753E1,-1.654636860E0
1.549193787E1,5.992525101E0,-1.222223854E1,-3.688236952E0
1.550860381E1,4.443770885E0,-1.221595764E1,-5.072484970E0
1.552526974E1,1.245464206E0,-1.130907822E1,-7.558627605E0
1.554193568E1,-1.966900229E0,-9.502496719E0,-9.900901794E0
1.555860162E1,-3.527917862E0,-7.657032490E0,-1.079252720E1
1.557526756E1,-1.907976985E0,-6.618846416E0,-1.055115128E1
1.559193349E1,2.248655081E0,-6.244668961E0,-8.651549339E0
1.560859943E1,5.560919762E0,-4.936692238E0,-7.193423271E0
1.562526537E1,7.804789066E0,-2.915953398E0,-7.217650414E0
1.564193131E1,1.347009563E1,3.518346548E0,-8.081758618E-1
1.565859724E1,3.046063232E1,9.256933212E0,2.211775780E1
1.567526318E1,4.732106018E1,1.429053497E1,4.162614059E1
1.569192912E1,4.458217239E1,1.836341858E1,3.639662552E1
1.570859506E1,3.089911652E1,2.008834457E1,2.089861298E1
1.572526099E1,1.797069550E1,1.825005913E1,7.880462170E0
1.574192693E1,7.849355698E0,1.416311741E1,5.054837838E-2
1.575859287E1,6.281159520E-1,1.175025463E1,-1.614557028E0
1.577525881E1,-9.553344250E-1,9.338887215E0,-1.920240223E-1
1.579192474E1,-1.083649516E0,8.108677864E0,9.873384237E-1
1.580859068E1,-1.478764415E0,7.648956776E0,1.402792335E-1
1.582525662E1,-2.429313183E0,7.984848976E0,-1.363011599E0
1.584192256E1,-4.057928085E0,9.178568840E0,-1.331605792E0
1.585858849E1,-6.014359951E0,1.007557774E1,2.018345833E0
1.587525443E1,-7.197311401E0,9.625727654E0,8.063512802E0
1.589192037E1,-5.767899036E0,7.478168964E0,1.317069435E1
1.590858631E1,-3.903890133E0,6.100202084E0,1.394267845E1
1.592525224E1,-3.673580885E0,6.784549713E0,9.903294563E0
1.594191818E1,-3.691227913E0,8.368897438E0,5.216652393E0
1.595858412E1,-3.883551121E0,1.085115147E1,3.863810301E0
1.597525006E1,-4.698307037E0,1.471466255E1,6.129813194E0
1.599191599E1,2.702992201E0,1.687777519E1,1.346590900E1
1.600858193E1,1.782473373E1,1.475803280E1,2.108286095E1
1.602524787E1,2.709273529E1,1.110897827E1,1.763480377E1
1.604191381E1,2.362553406E1,7.225726128E0,1.131176949E1
1.605857974E1,1.570678711E1,2.619243383E0,1.162702465E1
1.607524568E1,9.878469467E0,-6.900302172E-1,1.328704548E1
1.609191162E1,8.597112656E0,-3.033800125E0,1.215763283E1
1.610857756E1,1.006630611E1,-4.435994148E0,8.161319733E0
1.612524349E1,1.090648556E1,-4.554438591E0,3.050848961E0
1.614190943E1,9.996913910E0,-3.454936743E0,-1.539482236E0
1.615857537E1,7.966304779E0,-2.384746790E0,-4.496711731E0
1.617524131E1,4.858027935E0,-1.347458243E0,-6.144170284E0
1.619190724E1,1.490728498E0,-1.612164229E-1,-7.081558704E0
1.620857318E1,-1.430907965E0,1.661217093E0,-8.273782730E0
1.622523912E1,-1.308275819E0,4.061816216E0,-8.373682976E0
1.624190506E1,4.845465720E-1,6.565905571E0,-8.437092781E0
1.625857099E1,-5.563312769E-2,9.877572060E0,-8.579166412E0
1.627523693E1,1.812563092E-1,1.455853081E1,-4.457230568E0
1.629190287E1,6.809075832E0,1.926999855E1,6.490830421E0
1.630856881E1,1.686610985E1,2.200679016E1,1.640758514E1
1.632523474E1,2.396830559E1,2.213181496E1,2.260200500E1
1.634190068E1,2.190658951E1,1.982393646E1,2.226970100E1
1.635856662E1,1.395344639E1,1.644975853E1,1.763988876E1
1.637523256E1,9.279067039E0,1.230748367E1,1.160279655E1
1.639189849E1,8.833703041E0,8.021040916E0,5.977570057E0
1.640856443E1,7.903792381E0,4.806582451E0,5.940182209E-1
1.642523037E1,6.049354553E0,3.796512127E0,-3.998107433E0
1.644189631E1,5.089234829E0,4.582853794E0,-5.831607819E0
1.645856224E1,5.042275429E0,6.075974941E0,-4.240679741E0
1.647522818E1,4.733003139E0,8.370392799E0,-1.304387450E0
1.649189412E1,5.112265587E0,1.077757263E1,3.562314808E-1
1.650856006E1,8.837890625E0,1.245613766E1,5.288137794E-1
1.652522599E1,1.207986641E1,1.195394325E1,-6.771687865E-1
1.654189193E1,8.916254997E0,1.040788078E1,-9.212366939E-1
1.655855787E1,2.592324257E0,8.923732758E0,5.452644825E-1
1.657522381E1,-1.053440213E0,7.254140854E0,2.625524759E0
1.659188974E1,-1.564307809E0,5.653342724E0,4.219742775E0
1.660855568E1,-1.044467092E0,3.927220106E0,3.267698526E0
1.662522162E1,-4.486542661E-3,2.406282187E0,2.234298140E-1
1.664188756E1,6.305087805E-1,1.521237016E0,-3.049652576E0
1.665855349E1,5.503492355E-1,1.466501236E0,-5.558825970E0
1.667521943E1,-2.099701911E-1,1.571486235E0,-7.334599495E0
1.669188537E1,-1.630409479E0,2.140379906E0,-7.156334400E0
1.670855131E1,-2.416451693E0,2.801098108E0,-5.440680504E0
1.672521724E1,-2.114956141E0,3.034398317E0,-3.871287823E0
1.674188318E1,-1.563709617E0,2.825923443E0,-2.128714800E0
1.675854912E1,-1.050449133E0,1.924427629E0,-4.402793646E-1
1.677521506E1,-7.510471940E-1,4.304089844E-1,9.804590940E-1
1.679188099E1,-1.228415370E0,-8.503493667E-1,1.574776411E0
1.680854693E1,-3.394518137E0,-8.985049129E-1,1.578365684E0
1.682521287E1,-5.458626747E0,1.175474152E-1,1.775773525E0
1.684187881E1,-6.106483459E0,1.392622828E0,1.741974831E0
1.685854474E1,-4.800002098E0,2.991626501E0,8.060821295E-1
1.687521068E1,-2.402992249E0,5.443671703E0,-6.786643267E-1
1.689187662E1,-3.652045429E-1,9.100502968E0,-1.240379453E0
1.690854256E1,-1.842473447E-1,1.315274811E1,-3.412763178E-1
1.692520849E1,1.510170221E0,1.569332695E1,1.943570137E0
1.694187443E1,5.857928753E0,1.591346741E1,6.783652306E0
1.695854037E1,9.930213928E0,1.489023590E1,1.269033527E1
1.697520631E1,1.230838013E1,1.291167068E1,1.659930992E1
1.699187224E1,1.273190975E1,1.102792168E1,1.602144241E1
1.700853818E1,1.202363491E1,9.732806206E0,1.312433338E1
1.702520412E1,1.202094269E1,8.869296074E0,1.015663528E1
1.704187006E1,1.404257870E1,8.862417221E0,6.739085674E0
1.705853599E1,1.552792358E1,8.849555016E0,3.155235767E0
1.707520193E1,1.651137352E1,9.198608398E0,-1.454537034E0
1.709186787E1,1.712244034E1,8.501698494E0,-3.312264681E0
1.710853381E1,1.651077461E1,7.539484978E0,-1.372582912E0
1.712519974E1,1.350628757E1,7.977969646E0,1.900200248E0
1.714186568E1,1.082034397E1,8.546863556E0,4.760221481E0
1.715853162E1,1.034357452E1,8.993423462E0,7.603792191E0
1.717519756E1,1.019880867E1,8.953044891E0,8.592027664E0
1.719186349E1,1.134377384E1,8.418847084E0,1.076590729E1
1.720852943E1,1.339023590E1,7.357929707E0,1.307318687E1
1.722519537E1,1.431207085E1,6.466603279E0,1.222852039E1
1.724186131E1,1.326790237E1,6.115157604E0,7.639086246E0
1.725852724E1,1.107577801E1,5.810072422E0,2.377568483E0
1.727519318E1,9.250054359E0,5.694319725E0,-1.456929922E0
1.729185912E1,8.268099785E0,5.563013554E0,-3.504587889E0
1.730852506E1,7.196712971E0,5.705386639E0,-4.116552353E0
1.732519099E1,6.395416737E0,5.688337803E0,-4.594518661E0
1.734185693E1,5.618945599E0,5.733202934E0,-4.810471058E0
1.735852287E1,5.685645580E0,5.440979481E0,-5.564209938E0
1.737518881E1,4.207479477E0,6.996314526E0,-6.454339981E0
1.739185474E1,4.162015915E0,9.777072906E0,-6.754938126E0
1.740852068E1,5.397011280E0,1.250040436E1,-6.614359856E0
1.742518662E1,6.814758778E0,1.412961769E1,-6.052345753E0
1.744185256E1,6.304190159E0,1.488245964E1,-4.791028976E0
1.745851849E1,5.586941719E0,1.387478256E1,-2.750250578E0
1.747518443E1,4.756333351E0,1.237029457E1,9.717850685E-1
1.749185037E1,3.110370398E0,1.150020504E1,5.790929794E0
1.750851631E1,4.187439755E-2,1.352513123E1,9.528518677E0
1.752518224E1,-2.820539773E-1,1.766740608E1,1.487109375E1
1.754184818E1,5.544469357E0,2.037279129E1,2.042244148E1
1.755851412E1,1.359601784E1,2.094347954E1,1.871157455E1
1.757518006E1,1.787289047E1,2.183839417E1,1.125942707E1
1.759184599E1,1.840469360E1,2.064467621E1,6.215057850E0
1.760851193E1,1.663998795E1,1.713889122E1,6.419344902E0
1.762517787E1,1.383111286E1,1.192792225E1,6.083452702E0
1.764184381E1,1.152981567E1,5.934200287E0,4.452145576E0
1.765850974E1,9.628718376E0,8.126623631E-1,4.488337040E0
1.767517568E1,8.170592308E0,-3.716651678E0,5.684449196E0
1.769184162E1,7.269095898E0,-7.919046402E0,7.094419956E0
1.770850756E1,6.122036934E0,-1.130728340E1,7.389335632E0
1.772517349E1,3.750749588E0,-1.231855011E1,6.296413898E0
1.774183943E1,1.134197950E0,-1.197188950E1,3.890729666E0
1.775850537E1,-6.801598072E-1,-1.148106194E1,4.109672904E-1
1.777517131E1,-2.006979942E0,-1.021466064E1,-2.919841766E0
1.779183724E1,-2.218744755E0,-8.476573944E0,-4.938786030E0
1.780850318E1,-1.182054400E0,-7.336693287E0,-5.655735493E0
1.782516912E1,2.811566554E-2,-7.156932354E0,-5.017150879E0
1.784183506E1,1.114457130E0,-6.996015072E0,-3.186940670E0
1.785850099E1,2.825923443E0,-6.306283951E0,-1.255334616E0
1.787516693E1,5.259424210E0,-2.317747831E0,-1.369891018E-1
1.789183287E1,1.008514881E1,5.273781300E0,2.590230405E-1
1.790849881E1,2.281077766E1,1.292752361E1,2.124527454E0
1.792516474E1,3.790380478E1,1.924128532E1,5.794818401E0
1.794183068E1,3.876581955E1,2.301805687E1,1.136201954E1
1.795849662E1,3.013969421E1,2.095305061E1,1.889193344E1
1.797516256E1,2.003719711E1,1.786660767E1,2.180848503E1
1.799182849E1,1.211456203E1,1.445534039E1,1.681705666E1
1.800849443E1,4.450351238E0,1.148943710E1,1.029930687E1
1.802516037E1,-3.218346357E0,1.005165005E1,5.970690727E0
1.804182631E1,-7.250850677E0,9.245567322E0,2.922234535E0
1.805849224E1,-7.976474285E0,8.825327873E0,9.343972206E-1
1.807515818E1,-6.393023968E0,8.607880592E0,3.176472187E-1
1.809182412E1,-3.655335665E0,8.669196129E0,1.141675472E0
1.810849006E1,-1.357328653E0,9.558728218E0,2.586641312E0
1.812515599E1,-1.948953986E0,1.041954613E1,3.960420609E0
1.814182193E1,-4.202693939E0,9.788140297E0,6.897012234E0
1.815848787E1,-6.227620125E0,7.972586155E0,1.110688496E1
1.817515381E1,-6.887141705E0,5.278566837E0,1.259880924E1
1.819181974E1,-4.776672363E0,4.099802494E0,1.095553875E1
1.820848568E1,-5.715855360E-1,5.931508064E0,7.416553974E0
1.822515162E1,1.817947030E0,1.203888893E1,5.362016678E0
1.824181756E1,3.818645954E0,2.076760674E1,7.897511005E0
1.825848349E1,1.576750469E1,2.545036125E1,9.384650230E0
1.827514943E1,3.262493896E1,2.622354126E1,9.247661591E0
1.829181537E1,3.903052521E1,2.286491585E1,8.476275444E0
1.830848131E1,3.156312561E1,1.519412422E1,1.145115185E1
1.832514724E1,2.048914146E1,7.162017345E0,1.399173164E1
1.834181318E1,1.252313614E1,2.090728760E0,1.277827072E1
1.835847912E1,8.431110382E0,-4.423730969E-1,7.836493969E0
1.837514506E1,6.663712025E0,-2.130509377E0,2.704487801E0
1.839181099E1,4.648955345E0,-3.770191193E0,-6.302096844E-1
1.840847693E1,3.321537018E0,-5.631208897E0,-2.535793781E0
1.842514287E1,2.823530674E0,-7.130611420E0,-3.099004507E0
1.844180881E1,2.027917147E0,-7.593323708E0,-2.855534792E0
1.845847474E1,1.146461129E0,-7.699205875E0,-3.016751051E0
1.847514068E1,4.235295951E-1,-7.352844715E0,-4.056133270E0
1.849180662E1,-9.475577474E-1,-6.810870647E0,-5.760720730E0
1.850847256E1,-1.737488389E0,-6.374778748E0,-7.555935860E0
1.852513849E1,-1.945663929E0,-5.823532104E0,-8.901300430E0
1.854180443E1,-6.092724800E-1,-5.649454117E0,-8.795118332E0
1.855847037E1,1.377966762E0,-5.835496426E0,-6.967899323E0
1.857513631E1,2.882753134E0,-6.257829189E0,-5.141577721E0
1.859180224E1,4.162913322E0,-4.449154377E0,-2.164308071E0
1.860846818E1,1.045723343E1,3.366103172E0,4.325325966E0
1.862513412E1,2.801516724E1,1.396212006E1,1.118734360E1
1.864180006E1,5.251049423E1,2.142294121E1,1.123669529E1
1.865846599E1,5.517848969E1,2.322712898E1,1.008425236E1
1.867513193E1,3.452513885E1,1.992353821E1,1.687717628E1
1.869179787E1,1.571546078E1,1.518694592E1,1.784208298E1
1.870846381E1,5.706283569E0,1.157139111E1,1.145294666E1
1.872512974E1,1.114756227E0,9.976574898E0,3.689732552E0
1.874179568E1,-9.179465771E-1,9.075676918E0,-1.161117196E0
1.875846162E1,-2.883052111E0,8.823533058E0,-2.943470955E0
1.877512756E1,-5.231009483E0,8.768498421E0,-2.948854923E0
1.879179349E1,-6.569793701E0,8.590831757E0,-1.902892232E0
1.880845943E1,-5.625525951E0,8.813961983E0,1.534397453E-1
1.882512537E1,-4.284049988E0,9.358030319E0,2.192124605E0
1.884179131E1,-3.786941051E0,9.924830437E0,3.860221148E0
1.885845724E1,-3.570988655E0,1.008724308E1,5.902495384E0
1.887512318E1,-3.446262836E0,9.615557671E0,7.387241840E0
1.889178912E1,-2.887538671E0,8.993423462E0,7.756334782E0
1.890845506E1,-8.673982024E-1,9.808479309E0,7.775477409E0
1.892512099E1,2.371287346E0,1.256112289E1,7.288537979E0
1.894178693E1,6.967002392E0,1.623619843E1,5.760122299E0
1.895845287E1,1.243131161E1,2.046132469E1,3.732205153E0
1.897511881E1,2.106820488E1,2.385315132E1,2.541775942E0
1.899178474E1,3.119343376E1,2.320619202E1,9.655039310E-1
1.900845068E1,3.428525925E1,1.793211174E1,2.579761982E0
1.902511662E1,2.797987366E1,1.087657547E1,6.604190350E0
1.904178256E1,1.905883217E1,4.354039669E0,9.571290970E0
1.905844849E1,1.205922794E1,-4.564309120E-1,1.058524895E1
1.907511443E1,7.719544888E0,-3.475873947E0,8.985347748E0
1.909178037E1,5.791528225E0,-5.686542988E0,5.639284611E0
1.910844631E1,4.901697159E0,-7.827520847E0,2.656332254E0
1.912511224E1,3.771387577E0,-8.951549530E0,6.909275651E-1
1.914177818E1,2.379961252E0,-9.695418358E0,-1.104287624E0
1.915844412E1,1.745564103E0,-1.061067295E1,-2.832204819E0
1.917511006E1,2.047059774E0,-1.123579788E1,-4.438984871E0
1.919177599E1,1.616949916E0,-1.017458057E1,-6.405287266E0
1.920844193E1,-1.459023595E0,-6.601797581E0,-9.912865639E0
1.922510787E1,-3.890430450E0,-3.853341818E0,-1.310698509E1
1.924177381E1,-8.760721684E-1,-3.870390654E0,-1.145294666E1
1.925843974E1,5.331807137E0,-5.164309502E0,-7.090830803E0
1.927510568E1,8.510073662E0,-3.258725405E0,-2.998505831E0
1.929177162E1,9.143872261E0,6.156732559E0,6.525526524E0
1.930843756E1,2.357109833E1,1.572263908E1,2.078315926E1
1.932510349E1,4.045844269E1,2.166461563E1,2.538485718E1
1.934176943E1,4.086941147E1,2.501008224E1,1.416670609E1
1.935843537E1,3.005056190E1,2.212314034E1,5.929414749E0
1.937510131E1,1.638245964E1,1.791506386E1,3.115754128E0
1.939176724E1,5.918347836E0,1.362742424E1,1.266999602E0
1.940843318E1,-6.442674994E-1,1.063968563E1,7.477570791E-3
1.942509912E1,-3.261716366E0,8.670691490E0,6.041877344E-2
1.944176506E1,-3.642175198E0,7.374380112E0,7.037889361E-1
1.945843099E1,-3.391526937E0,5.720341682E0,7.618148923E-1
1.947509693E1,-1.814058661E0,4.261318207E0,1.093519926E0
1.949176287E1,-1.534397453E-1,4.714159489E0,2.414657116E0
1.950842881E1,-6.699903607E-1,6.713063717E0,1.604985833E0
1.952509474E1,-2.453839540E0,8.803493500E0,-3.248256743E-1
1.954176068E1,-3.336791277E0,9.883553505E0,-4.806582630E-1
1.955842662E1,-3.267698526E0,9.746265411E0,9.230313301E-1
1.957509256E1,-2.510669231E0,8.105985641E0,2.509173632E0
1.959175849E1,-1.253240824E0,6.602096558E0,4.850849628E0
1.960842443E1,-2.297109663E-1,6.108876228E0,5.760421276E0
1.962509037E1,5.832505226E-2,7.505985737E0,3.384348631E0
1.964175631E1,1.537388563E-1,1.152891827E1,1.533201098E0
1.965842224E1,3.061616659E0,1.652184296E1,3.985545158E0
1.967508818E1,1.362323666E1,1.940878296E1,1.011505985E1
1.969175412E1,3.335265732E1,1.969053841E1,1.845913124E1
1.970842006E1,4.475236511E1,1.829911041E1,1.889103508E1
1.972508599E1,4.101357651E1,1.433988667E1,1.198146152E1
1.974175193E1,2.842733192E1,9.173483849E0,1.028255749E1
1.975841787E1,1.635165215E1,4.291228294E0,1.047787094E1
1.977508381E1,8.298309326E0,3.720839322E-1,1.094148064E1
1.979174974E1,4.392324924E0,-2.457428932E0,1.031396294E1
1.980841568E1,4.300201416E0,-5.159523964E0,8.027621269E0
1.982508162E1,5.317450047E0,-7.596912861E0,4.978267670E0
1.984174756E1,5.916851997E0,-9.270393372E0,1.872682810E0
1.985841349E1,5.734997749E0,-1.001575756E1,-1.596610904E0
1.987507943E1,4.534698009E0,-9.920044899E0,-5.167300701E0
1.989174537E1,2.564806700E0,-9.419645309E0,-8.338687897E0
1.990841131E1,2.691925466E-1,-8.945567131E0,-1.059093189E1
1.992507724E1,-2.079362869E0,-8.795417786E0,-1.045573807E1
1.994174318E1,-3.810869217E0,-9.285049438E0,-7.729116440E0
1.995840912E1,-4.504787922E0,-9.917950630E0,-4.054039955E0
1.997507506E1,-4.661218643E0,-9.846764565E0,-2.178066730E0
1.999174099E1,-4.278666019E0,-9.426525116E0,-3.553640842E0
2.000840693E1,-3.957130432E0,-8.572287560E0,-7.418049335E0
2.002507287E1,-2.312064916E-1,-5.556433201E0,-8.308178902E0
2.004173881E1,1.590868092E1,-4.614558697E0,9.050851464E-1
2.005840474E1,4.044528198E1,-6.684948206E-1,1.556560993E1
2.007507068E1,5.254159927E1,4.287040710E0,1.860987854E1
2.009173662E1,4.987419891E1,5.024329185E0,1.991157532E1
2.010840256E1,3.736243057E1,7.050152779E0,1.867777443E1
2.012506849E1,2.328994179E1,7.683951855E0,1.035464096E1
2.014173443E1,1.479362583E1,7.201199532E0,4.735694885E0
2.015840037E1,1.024098206E1,6.256932259E0,2.631506681E0
2.017506631E1,6.608377934E0,5.498407364E0,1.765604019E0
2.019173224E1,3.659822226E0,4.867001057E0,1.286142230E0
2.020839818E1,1.973480463E0,4.333401680E0,1.289133191E0
2.022506412E1,1.912164450E0,4.606781960E0,2.193919182E0
2.024173006E1,2.630908489E0,5.674878120E0,3.102892876E0
2.025839599E1,2.352742910E0,6.956533432E0,2.967100143E0
2.027506193E1,1.966900229E0,7.270292282E0,2.065604210E0
2.029172787E1,1.385743380E0,7.441678524E0,1.562214136E0
2.030839381E1,7.698906660E-1,7.202096939E0,1.599601984E0
2.032505974E1,5.955137610E-1,6.870092869E0,2.239981174E0
2.034172568E1,4.169493318E-1,6.672086716E0,2.467897415E0
2.035839162E1,2.404786795E-1,6.469594002E0,1.708176255E0
2.037505756E1,3.795614839E-1,6.498607159E0,1.075573802E0
2.039172349E1,1.357029557E0,6.821638107E0,7.100701332E-1
2.040838943E1,4.097409725E0,7.246962547E0,1.167099237E0
2.042505537E1,1.107278633E1,6.093621731E0,4.694717884E0
2.044172131E1,2.199063873E1,4.854738235E0,1.035553837E1
2.045838724E1,3.508565903E1,5.291428089E0,1.632353783E1
2.047505318E1,4.693072891E1,3.623331785E0,1.782592964E1
2.049171912E1,5.030341339E1,4.268197417E-1,1.566132355E1
2.050838506E1,4.218456650E1,-3.159722328E0,1.451934910E1
2.052505099E1,2.727339172E1,-5.342874050E0,1.212772274E1
2.054171693E1,1.467906952E1,-6.115157604E0,8.939884186E0
2.055838287E1,7.466504097E0,-5.887240887E0,8.021638870E0
2.057504881E1,4.556233406E0,-5.604588985E0,8.519944191E0
2.059171474E1,4.069592953E0,-5.606981754E0,7.819445133E0
2.060838068E1,5.077569485E0,-5.875277042E0,6.007181168E0
2.062504662E1,6.405885220E0,-6.579664230E0,3.302992582E0
2.064171256E1,6.190531254E0,-7.098308563E0,-3.939184248E-1
2.065837849E1,5.754439354E0,-7.284350395E0,-3.752244949E0
2.067504443E1,5.918646812E0,-7.649854183E0,-5.831607819E0
2.069171037E1,6.092425346E0,-7.654041290E0,-7.004390240E0
2.070837631E1,4.983053207E0,-7.105486870E0,-7.901399612E0
2.072504224E1,3.870689631E0,-6.972385883E0,-8.425128937E0
2.074170818E1,2.251047850E0,-7.235895634E0,-8.426624298E0
2.075837412E1,6.418746710E-1,-7.952845097E0,-8.787042618E0
2.077504006E1,-2.102692872E-1,-9.273384094E0,-8.147561073E0
2.079170599E1,-9.556335211E-1,-1.029182911E1,-6.152245998E0
2.080837193E1,-6.436693072E-1,-1.133809090E1,-4.557130814E0
2.082503787E1,2.458625287E-1,-1.208195972E1,-3.349353552E0
2.084170381E1,1.737189293E0,-1.130070305E1,-2.199602127E0
2.085836974E1,7.720741272E0,-7.073781967E0,1.736291885E0
2.087503568E1,2.516023064E1,-8.581260443E-1,8.746066093E0
2.089170162E1,4.931009293E1,7.274180889E0,1.476700592E1
2.090836756E1,5.752165985E1,1.192702484E1,1.657059669E1
2.092503349E1,3.965983963E1,1.478255939E1,1.873639870E1
2.094169943E1,2.103231239E1,1.276810169E1,1.512234020E1
2.095836537E1,1.035613632E1,1.130997562E1,1.038335514E1
2.097503131E1,6.436692715E0,9.729815483E0,7.402794838E0
2.099169724E1,4.899902344E0,7.812565804E0,5.854638577E0
2.100836318E1,3.948157310E0,6.538387775E0,4.628317356E0
2.102502912E1,3.817150354E0,5.899504185E0,3.608077526E0
2.104169506E1,3.697509289E0,6.093621731E0,2.893520832E0
2.105836099E1,3.317947626E0,6.152245998E0,2.117947102E0
2.107502693E1,3.023032188E0,6.130112648E0,1.626820326E0
2.109169287E1,3.114557743E0,5.979364872E0,1.795215130E0
2.110835881E1,3.614059448E0,5.632106304E0,1.948953986E0
2.112502474E1,3.892225027E0,4.725824833E0,2.545065880E0
2.114169068E1,3.904787540E0,4.418346882E0,3.917050600E0
2.115835662E1,3.262314558E0,4.468895435E0,4.378566265E0
2.117502256E1,2.988635540E0,4.627419949E0,4.563112736E0
2.119168849E1,3.181257725E0,4.418646336E0,5.204389095E0
2.120835443E1,4.164408684E0,4.392923355E0,6.489335060E0
2.122502037E1,5.578866005E0,4.188635826E0,7.811070442E0
2.124168631E1,5.870192051E0,5.140979290E0,9.978967667E0
2.125835224E1,6.410371780E0,6.392724991E0,1.323679543E1
2.127501818E1,7.863114357E0,6.194120407E0,1.484357643E1
2.129168412E1,8.516056061E0,4.878965378E0,1.429232979E1
2.130835006E1,6.637690067E0,4.167698860E0,1.239900875E1
2.132501599E1,4.011268139E0,4.020540237E0,1.107458115E1
2.134168193E1,1.388136268E0,4.372883320E0,9.662218094E0
2.135834787E1,-7.836494446E-1,4.519443989E0,8.985946655E0
2.137501381E1,-2.131705761E0,4.578367233E0,8.707780838E0
2.139167974E1,-2.687438965E0,4.263710976E0,8.628518105E0
2.140834568E1,-2.219941139E0,4.267300129E0,9.004789352E0
2.142501162E1,-8.503493667E-1,4.205984116E0,8.980263710E0
2.144167756E1,5.087739229E-1,4.147359848E0,8.627920151E0
2.145834349E1,1.266999602E0,4.267898083E0,7.335496902E0
2.147500943E1,1.989033818E0,4.157529354E0,6.102894306E0
2.149167537E1,2.316551447E0,4.654638290E0,5.510371208E0
2.150834131E1,2.588735104E0,5.073980331E0,5.188836098E0
2.152500724E1,2.803191662E0,5.201697350E0,5.232205868E0
2.154167318E1,2.691327333E0,5.217250824E0,6.283851147E0
2.155833912E1,2.500798702E0,5.331807137E0,7.154839039E0
2.157500506E1,2.366501570E0,5.471487999E0,6.672984123E0
2.159167099E1,2.146661043E0,5.558526993E0,5.748157978E0
2.160833693E1,2.231307030E0,5.427220821E0,5.365904808E0
2.162500287E1,2.830709219E0,4.923531532E0,6.042475224E0
2.164166881E1,3.266501904E0,4.451846600E0,7.250252724E0
2.165833474E1,2.915654421E0,4.201198578E0,8.447860718E0
2.167500068E1,2.521137714E0,3.384946823E0,9.083154678E0
2.169166662E1,1.365105271E0,3.922733545E0,1.021466064E1
2.170833256E1,1.374975681E0,3.855136395E0,8.672187805E0
2.172499849E1,2.526820660E0,4.333701134E0,8.373383522E0
2.174166443E1,2.761018276E0,4.477569580E0,8.523832321E0
2.175833037E1,2.346461773E0,4.007080555E0,9.135198593E0
2.177499631E1,2.340778828E0,3.570390463E0,8.993124962E0
2.179166224E1,2.627020121E0,2.988934517E0,8.738288879E0
2.180832818E1,2.831905603E0,2.385644197E0,9.293125153E0
2.182499412E1,2.605185747E0,1.865803480E0,1.038514900E1
2.184166006E1,2.599801779E0,1.691426516E0,1.063998508E1
2.185832599E1,2.854039192E0,1.817049742E0,9.725926399E0
2.187499193E1,3.221038342E0,1.992623091E0,8.577970505E0
2.189165787E1,3.188137054E0,2.313560486E0,7.861020565E0
2.190832381E1,3.163311481E0,2.536092997E0,7.664809227E0
2.192498974E1,3.267399311E0,2.513360977E0,8.076075554E0
2.194165568E1,3.219841957E0,2.266601324E0,9.365208626E0
2.195832162E1,2.866302490E0,1.989332914E0,1.017398262E1
2.197498756E1,2.612962246E0,1.587936878E0,1.051705360E1
2.199165349E1,2.632104874E0,1.225424290E0,1.101177025E1
2.200831943E1,2.742773056E0,1.201795220E0,1.123699379E1
2.202498537E1,2.922234535E0,1.354337573E0,1.075872898E1
2.204165131E1,3.227319479E0,1.601994753E0,9.940682411E0
2.205831724E1,3.030509949E0,1.680658817E0,9.262616158E0
2.207498318E1,2.706282377E0,1.805384636E0,8.846863747E0
2.209164912E1,2.558525562E0,1.923829436E0,8.550452232E0
2.210831506E1,2.590230465E0,2.192722797E0,8.277670860E0
2.212498099E1,2.559721947E0,2.361416817E0,8.357531548E0
2.214164693E1,2.636292458E0,2.458924294E0,8.238488197E0
2.215831287E1,2.764308453E0,2.518445730E0,8.227421761E0
2.217497881E1,2.973381281E0,2.439183474E0,8.235497475E0
2.219164474E1,3.208476067E0,2.400300264E0,8.411668777E0
2.220831068E1,3.355933666E0,2.408675194E0,8.621639252E0
2.222497662E1,3.284149170E0,2.391327143E0,8.642875671E0
2.224164256E1,3.013461113E0,2.387139797E0,8.505288124E0
2.225830849E1,2.848954439E0,2.379363060E0,7.709973812E0
2.227497443E1,2.587837696E0,2.461915493E0,8.610871315E0
2.229164037E1,2.627319336E0,2.454138756E0,9.209974289E0
2.230830631E1,2.817847729E0,2.603091955E0,9.738489151E0
2.232497224E1,2.836092949E0,2.627618313E0,9.668199539E0
2.234163818E1,2.908475876E0,2.718246460E0,9.569196701E0
