"Time (s)","Gyroscope x (rad/s)","Gyroscope y (rad/s)","Gyroscope z (rad/s)"
3.705849300E-2,5.543597788E-2,5.971203372E-2,-1.450803876E-2
5.372443100E-2,1.565340906E-2,4.337139800E-2,-1.069013402E-2
7.039036800E-2,-4.344775900E-2,2.664897591E-2,-1.404988952E-2
8.705630600E-2,-6.979130208E-2,2.191477455E-2,-1.320995111E-2
1.037222430E-1,-5.703949928E-2,3.436114267E-2,-5.421424750E-3
1.203881810E-1,-3.413207084E-2,3.352120519E-2,7.864884101E-3
1.370541180E-1,-7.635809598E-4,2.985601686E-2,1.817322709E-2
1.537200560E-1,4.375318810E-2,5.039634649E-3,4.245510325E-2
1.703859930E-1,3.665188700E-2,-2.619082667E-2,5.627591908E-2
1.870519310E-1,-1.802051067E-2,4.298960790E-2,3.237583488E-2
2.037178680E-1,-3.993528336E-2,1.298851222E-1,2.138026757E-3
2.203838060E-1,-5.933023989E-2,1.859319657E-1,-1.504254527E-2
2.370497430E-1,-8.063415438E-2,1.849393100E-1,-2.038761228E-2
2.537156810E-1,-6.215549260E-2,1.406516135E-1,-4.207331315E-2
2.703816180E-1,-3.840812296E-2,5.108356848E-2,-6.467530876E-2
2.870475560E-1,-2.496909723E-2,-2.649625950E-2,-5.902481079E-2
3.037134930E-1,-1.458439697E-2,-8.216131479E-2,-4.978547990E-2
3.203794310E-1,-3.199404106E-2,-8.452841640E-2,-6.559160352E-2
3.370453680E-1,-9.277509153E-2,-2.237292193E-2,-1.017089859E-1
3.537113060E-1,-1.727983803E-1,6.253728271E-2,-1.379027218E-1
3.703772430E-1,-2.274707705E-1,1.223256737E-1,-1.683696061E-1
3.870431810E-1,-1.944077164E-1,1.875354946E-1,-1.832594275E-1
4.037091180E-1,-1.094211563E-1,2.141844630E-1,-1.485928595E-1
4.203750560E-1,-7.124210149E-2,1.498909444E-1,-1.003345400E-1
4.370409930E-1,-1.213330179E-1,2.512181364E-2,-1.205694377E-1
4.537069310E-1,-2.015090138E-1,-5.642863363E-2,-1.922696829E-1
4.703728680E-1,-2.770271897E-1,-6.330086291E-2,-2.928332984E-1
4.870388060E-1,-3.270417452E-1,-5.375609919E-2,-3.606393039E-1
5.037047430E-1,-2.771798968E-1,-8.513928205E-2,-3.791179657E-1
5.203706810E-1,-1.319467872E-1,-1.620318890E-1,-3.946186602E-1
5.370366180E-1,1.557705179E-2,-2.616792023E-1,-4.169152081E-1
5.537025560E-1,1.133154184E-1,-3.852266073E-1,-4.328740537E-1
5.703684930E-1,2.143371850E-1,-5.156462193E-1,-4.345539212E-1
5.870344310E-1,3.446804583E-1,-6.108647585E-1,-4.174497128E-1
6.037003680E-1,4.989238083E-1,-6.569850445E-1,-3.861429095E-1
6.203663060E-1,6.197986603E-1,-6.398044825E-1,-3.723220825E-1
6.370322430E-1,6.811142564E-1,-5.971203446E-1,-3.983601928E-1
6.536981810E-1,6.970730424E-1,-5.599339008E-1,-4.173733592E-1
6.703641180E-1,7.383064628E-1,-5.794052482E-1,-4.134027362E-1
6.870300560E-1,8.864411712E-1,-6.815723777E-1,-3.975966275E-1
7.036959930E-1,1.056414247E0,-8.062651753E-1,-3.633118272E-1
7.203619310E-1,1.107345104E0,-8.503237963E-1,-3.570504785E-1
7.370278680E-1,1.022740364E0,-7.990111113E-1,-3.994292021E-1
7.536938060E-1,8.654426932E-1,-6.788998246E-1,-4.691441655E-1
7.703597430E-1,7.147881389E-1,-5.481747985E-1,-5.324450135E-1
7.870256810E-1,6.979893446E-1,-4.848739207E-1,-5.028180480E-1
8.036916180E-1,8.014546037E-1,-5.168679357E-1,-3.730092943E-1
8.203575560E-1,9.425643682E-1,-5.871174335E-1,-2.131918073E-1
8.370234930E-1,1.044960618E0,-6.159043908E-1,-9.949459881E-2
8.536894310E-1,1.025031090E0,-6.050615907E-1,-2.099847607E-2
8.703553680E-1,8.943060637E-1,-5.759691000E-1,2.695440874E-2
8.870213060E-1,7.568614483E-1,-5.161044002E-1,1.351538301E-2
9.036872430E-1,6.452259421E-1,-4.347830117E-1,-3.772090003E-2
9.203531810E-1,5.853611827E-1,-3.490328491E-1,-9.758564830E-2
9.370191180E-1,5.569559336E-1,-2.669478953E-1,-1.755472720E-1
9.536850560E-1,5.629118681E-1,-2.335030586E-1,-2.252563834E-1
9.703509930E-1,6.185769439E-1,-1.954003721E-1,-2.009745091E-1
9.870169310E-1,7.197514176E-1,-1.326340139E-1,-1.175914705E-1
1.003682868E0,8.186351657E-1,-4.077522457E-2,-3.565923125E-2
1.020348806E0,8.755983114E-1,9.544762224E-2,-1.030834299E-2
1.037014743E0,8.772782087E-1,2.609156072E-1,-3.726275265E-2
1.053680681E0,8.286380768E-1,4.056142271E-1,-2.367101051E-2
1.070346618E0,7.702241540E-1,4.631882310E-1,7.887791097E-2
1.087012556E0,7.096721530E-1,4.670061171E-1,2.369391769E-1
1.103678493E0,6.499601007E-1,4.864010811E-1,4.232529402E-1
1.120344431E0,6.272054315E-1,5.290852785E-1,5.343539715E-1
1.137010368E0,6.021599770E-1,5.648971796E-1,5.141954422E-1
1.153676306E0,5.635227561E-1,6.036871076E-1,4.502837062E-1
1.170342243E0,5.360338688E-1,6.048324704E-1,4.294379354E-1
1.187008181E0,5.149590373E-1,5.254200697E-1,4.735729098E-1
1.203674118E0,4.485274553E-1,3.904953003E-1,5.495492220E-1
1.220340056E0,3.385718167E-1,2.877936661E-1,5.988765359E-1
1.237005993E0,2.217439115E-1,2.751182318E-1,6.029235125E-1
1.253671931E0,2.067013681E-1,2.282343507E-1,5.843685269E-1
1.270337868E0,3.004691005E-1,1.288161129E-1,5.293906927E-1
1.287003806E0,4.862483740E-1,-2.519817278E-2,4.461603761E-1
1.303669743E0,7.309760451E-1,-2.735910714E-1,3.857611120E-1
1.320335681E0,9.509637356E-1,-5.966621637E-1,3.656025827E-1
1.337001618E0,1.002429128E0,-8.025999665E-1,4.284452796E-1
1.353667556E0,7.267763615E-1,-6.186532974E-1,5.949059129E-1
1.370333493E0,2.477056682E-1,-2.179260105E-1,7.410553098E-1
1.386999431E0,-1.966984570E-1,1.415679157E-1,8.077923059E-1
1.403665368E0,-3.587303460E-1,2.062432170E-1,7.776308656E-1
1.420331306E0,-2.366337478E-1,-3.680460155E-2,6.882155538E-1
1.436997243E0,3.886627033E-2,-3.809505403E-1,5.881100893E-1
1.453663181E0,2.997055352E-1,-5.780308247E-1,5.500074029E-1
1.470329118E0,3.606393039E-1,-5.367210507E-1,4.978547990E-1
1.486995056E0,2.434296161E-1,-2.890917659E-1,3.653734922E-1
1.503660993E0,3.779725730E-2,-3.214675933E-2,2.216675580E-1
1.520326931E0,-1.225547493E-1,1.179732606E-1,1.232419685E-1
1.536992868E0,-1.403461844E-1,1.366046369E-1,5.054906011E-2
1.553658806E0,-3.856083751E-2,7.024945319E-2,-3.130682046E-3
1.570324743E0,6.841685623E-2,-1.221729559E-3,-5.497783050E-2
1.586990681E0,1.455385387E-1,1.069013379E-3,-1.153007299E-1
1.603656618E0,1.243109852E-1,1.179732606E-1,-1.643226296E-1
1.620322556E0,7.345648855E-2,2.784016132E-1,-1.840993762E-1
1.636988493E0,4.314232618E-2,3.721693754E-1,-1.924224049E-1
1.653654431E0,7.841976732E-2,3.632354736E-1,-1.834121495E-1
1.670320368E0,2.097556889E-1,2.652680278E-1,-1.450040340E-1
1.686986306E0,3.910298049E-1,1.454621702E-1,-1.276707351E-1
1.703652243E0,5.730675459E-1,8.552107029E-3,-1.442404389E-1
1.720318181E0,6.478984356E-1,-8.781181276E-2,-1.376736462E-1
1.736984118E0,5.253437161E-1,-7.108938694E-2,-8.872810751E-2
1.753650056E0,3.181078434E-1,1.679878100E-3,-3.672824427E-2
1.770315993E0,8.223766834E-2,1.127809063E-1,4.344775900E-2
1.786981931E0,-4.062250629E-2,1.843284518E-1,1.780670881E-1
1.803647868E0,-4.046979360E-3,1.671478748E-1,3.323104382E-1
1.820313806E0,1.240055487E-1,9.476039559E-2,3.804160357E-1
1.836979743E0,2.236528695E-1,8.643736690E-2,2.505309284E-1
1.853645681E0,2.354883701E-1,1.016326249E-1,2.275471389E-2
1.870311618E0,1.756999791E-1,8.972076327E-2,-1.340084672E-1
1.886977556E0,8.429934084E-2,1.191186346E-2,-1.718057245E-1
1.903643493E0,-2.787070535E-2,-5.184714869E-2,-1.389717311E-1
1.920309431E0,-1.450803876E-1,-4.642572254E-2,-8.758273721E-2
1.936975368E0,-2.351829410E-1,-5.650499370E-3,-7.696896046E-2
1.953641306E0,-2.308305353E-1,-3.298669681E-2,-1.177441850E-1
1.970307243E0,-1.472184062E-1,-1.304196268E-1,-1.629481763E-1
1.986973181E0,-7.796161622E-2,-2.448040545E-1,-1.907425225E-1
2.003639118E0,-6.566796452E-2,-3.459785283E-1,-1.797469556E-1
2.020305056E0,-1.319467872E-1,-3.714057803E-1,-1.410334110E-1
2.036970993E0,-2.369391769E-1,-2.729802132E-1,-1.434005052E-1
2.053636931E0,-3.177260458E-1,-1.316413581E-1,-1.937968582E-1
2.070302868E0,-3.470475674E-1,-3.833176568E-2,-2.696204484E-1
2.086968806E0,-2.619846463E-1,-6.452259421E-2,-3.300196826E-1
2.103634743E0,-6.918043643E-2,-1.752418280E-1,-3.257436454E-1
2.120300681E0,1.343902498E-1,-3.043633699E-1,-2.751182318E-1
2.136966618E0,2.228129357E-1,-3.543015718E-1,-2.377791107E-1
2.153632556E0,1.298087686E-1,-2.729038298E-1,-2.241873741E-1
2.170298493E0,-6.276635826E-2,-1.603520066E-1,-2.196822464E-1
2.186964431E0,-2.049451321E-1,-7.406735420E-2,-2.549596727E-1
2.203630368E0,-2.499200553E-1,-1.259908639E-2,-3.260490894E-1
2.220296306E0,-2.289979309E-1,4.130972922E-2,-3.855320215E-1
2.236962243E0,-1.563050300E-1,1.049160287E-1,-4.236347377E-1
2.253628181E0,-7.032580674E-2,1.666133702E-1,-4.069886506E-1
2.270294118E0,-3.130681813E-2,2.212857604E-1,-3.310887218E-1
2.286960056E0,-1.320995111E-2,2.581667304E-1,-2.364810258E-1
2.303625993E0,-1.023198478E-2,2.951240540E-1,-1.531743407E-1
2.320291931E0,-3.329212964E-2,3.180314898E-1,-1.081230640E-1
2.336957868E0,-4.543306679E-2,3.017672002E-1,-1.114828214E-1
2.353623806E0,-1.488982886E-2,2.768744528E-1,-1.317177117E-1
2.370289743E0,3.229947388E-2,2.890917659E-1,-1.561523080E-1
2.386955681E0,2.626718581E-2,3.059668839E-1,-1.749363989E-1
2.403621618E0,-5.314523727E-2,2.600756884E-1,-2.028071135E-1
2.420287556E0,-1.980729103E-1,1.782961637E-1,-2.917642891E-1
2.436953493E0,-2.777144015E-1,1.560759544E-1,-3.696495593E-1
2.453619431E0,-1.650862098E-1,1.790597439E-1,-3.090975881E-1
2.470285368E0,5.184714869E-2,2.043342739E-1,-1.857028902E-1
2.486951306E0,2.470948100E-1,1.999054998E-1,-1.141553521E-1
2.503617243E0,2.986365259E-1,1.243873388E-1,-1.200349256E-1
2.520283181E0,2.109774202E-1,-8.704823442E-3,-1.775325835E-1
2.536949118E0,-5.039634649E-3,-1.256090701E-1,-2.424369603E-1
2.553615056E0,-2.485456020E-1,-1.925751269E-1,-2.586248815E-1
2.570280993E0,-3.791179657E-1,-2.060141414E-1,-2.162461281E-1
2.586946931E0,-3.956113160E-1,-1.996000707E-1,-1.004872546E-1
2.603612868E0,-3.100902438E-1,-1.824194938E-1,-1.603520103E-2
2.620278806E0,-1.905898154E-1,-1.442404389E-1,-2.275471389E-2
2.636944743E0,-7.750347257E-2,-1.915061027E-1,-1.001818255E-1
2.653610681E0,-1.656970754E-2,-3.161988854E-1,-1.886808574E-1
2.670276618E0,-2.703076601E-2,-3.995819092E-1,-2.138026655E-1
2.686942556E0,-9.918916970E-2,-3.568977416E-1,-1.767689884E-1
2.703608493E0,-1.871536970E-1,-1.985310465E-1,-1.366809905E-1
2.720274431E0,-2.453385741E-1,-5.108356848E-2,-1.393535286E-1
2.736940368E0,-2.439641207E-1,4.466948658E-2,-1.776852906E-1
2.753606306E0,-1.987601221E-1,5.238165334E-2,-2.323576957E-1
2.770272243E0,-1.437059343E-1,3.764454275E-2,-2.643517256E-1
2.786938181E0,-1.181259751E-1,6.268999726E-2,-2.567159235E-1
2.803604118E0,-1.219438836E-1,1.460730433E-1,-2.161697745E-1
2.820270056E0,-1.275943816E-1,2.696968019E-1,-1.487455666E-1
2.836935993E0,-7.399099320E-2,3.850739002E-1,-5.306887627E-2
2.853601931E0,8.017600514E-3,4.670824707E-1,4.360047355E-2
2.870267868E0,4.955640435E-2,4.954876900E-1,9.407317638E-2
2.886933806E0,4.153880477E-2,4.640281498E-1,1.062141135E-1
2.903599743E0,1.458439697E-2,4.114174247E-1,8.185587823E-2
2.920265681E0,-7.024944760E-3,3.714057803E-1,3.115410358E-2
2.936931618E0,-1.389717404E-2,3.408625424E-1,-1.863137633E-2
2.953597556E0,-6.185005885E-3,3.035234511E-1,-5.551233515E-2
2.970263493E0,-1.756236190E-3,2.596175373E-1,-5.711585656E-2
2.986929431E0,-1.794415340E-2,2.204458266E-1,-3.260490671E-2
3.003595368E0,-5.719221383E-2,1.855501831E-1,-1.603520103E-2
3.020261306E0,-9.674570709E-2,1.365282834E-1,-1.565340906E-2
3.036927243E0,-8.849903196E-2,6.475166976E-2,8.704823442E-3
3.053593181E0,-3.649916872E-2,8.933897130E-3,6.062832847E-2
3.070259118E0,-1.878409274E-2,-9.773836471E-3,6.788235158E-2
3.086925056E0,-8.452841640E-2,-8.704823442E-3,-1.466075517E-2
3.103590993E0,-2.158643454E-1,-5.383246019E-2,-1.488219351E-1
3.120256931E0,-3.154352903E-1,-1.679114550E-1,-2.839757502E-1
3.136922868E0,-3.636936247E-1,-3.242928386E-1,-4.172206521E-1
3.153588806E0,-3.365101218E-1,-4.314996004E-1,-4.877755344E-1
3.170254743E0,-3.037525117E-1,-3.938550651E-1,-4.960221946E-1
3.186920681E0,-5.484038591E-1,-1.573740393E-1,-4.872410297E-1
3.203586618E0,-9.266818762E-1,1.075885594E-1,-4.345539212E-1
3.220252556E0,-1.231350660E0,2.218202800E-1,-3.878991306E-1
3.236918493E0,-1.405447125E0,2.707658112E-1,-3.840812445E-1
3.253584431E0,-1.458592415E0,2.340375632E-1,-3.491855860E-1
3.270250368E0,-1.480583549E0,1.480583549E-1,-3.121519089E-1
3.286916306E0,-1.450192928E0,2.275471389E-2,-3.279580176E-1
3.303582243E0,-1.338022947E0,-2.087630332E-1,-4.244746566E-1
3.320248181E0,-1.311526656E0,-4.854084253E-1,-5.527562499E-1
3.336914118E0,-1.460883141E0,-6.549997330E-1,-6.340776682E-1
3.353580056E0,-1.653992772E0,-6.708822250E-1,-6.569086909E-1
3.370245993E0,-1.700418472E0,-4.849502742E-1,-5.684860349E-1
3.386911931E0,-1.584354162E0,-2.643517256E-1,-4.151589870E-1
3.403577868E0,-1.319009781E0,-2.232710719E-1,-3.055087626E-1
3.420243806E0,-1.104214430E0,-3.423133492E-1,-2.700022459E-1
3.436909743E0,-1.040913582E0,-3.992001414E-1,-2.283870727E-1
3.453575681E0,-1.047480345E0,-3.315468729E-1,-1.944840699E-1
3.470241618E0,-1.046793103E0,-1.030834317E-1,-1.766162813E-1
3.486907556E0,-9.953277707E-1,2.000582218E-1,-1.478292793E-1
3.503573493E0,-7.709876895E-1,2.037997693E-1,-9.697478265E-2
3.520239431E0,-5.131264329E-1,5.497782957E-3,-4.802924395E-2
3.536905368E0,-3.006981909E-1,-2.772562504E-1,-4.085158184E-2
3.553571306E0,-1.425605714E-1,-5.414552689E-1,-4.696023092E-2
3.570237243E0,-5.765036494E-2,-6.595812440E-1,-4.726566374E-2
3.586903181E0,-3.688096255E-2,-5.687150955E-1,-4.069886729E-2
3.603569118E0,-5.253437161E-2,-3.301724195E-1,-1.901316643E-2
3.620235056E0,-8.933897316E-2,-1.200349256E-1,4.146244749E-2
3.636900993E0,-1.025489271E-1,-3.016144782E-2,8.315397054E-2
3.653566931E0,-4.894553870E-2,-8.735366166E-2,8.880446851E-2
3.670232868E0,4.932733253E-2,-2.565632164E-1,8.491020650E-2
3.686898806E0,1.337793916E-1,-3.297906220E-1,9.262236953E-2
3.703564743E0,1.634063274E-1,-3.200167716E-1,1.240055487E-1
3.720230681E0,1.913533956E-1,-2.194531709E-1,1.679114550E-1
3.736896618E0,2.092211843E-1,-9.262236953E-2,2.315177470E-1
3.753562556E0,2.312123179E-1,-2.328922041E-2,3.029125631E-1
3.770228493E0,2.351065874E-1,-2.160934173E-2,3.394880891E-1
3.786894431E0,2.299142331E-1,-1.878409274E-2,3.361283541E-1
3.803560368E0,2.239582986E-1,2.748891478E-3,3.307832778E-1
3.820226306E0,2.215912044E-1,7.147117704E-2,3.131445646E-1
3.836892243E0,1.979965419E-1,1.247691289E-1,2.929860055E-1
3.853558181E0,1.117882580E-1,1.317177117E-1,2.637408674E-1
3.870224118E0,1.229365356E-2,1.227838174E-1,2.207512558E-1
3.886890056E0,-5.833758786E-2,1.106428802E-1,1.763108522E-1
3.903555993E0,-6.925679743E-2,9.453132749E-2,1.282052398E-1
3.920221931E0,-6.360629201E-2,7.017309219E-2,8.254310489E-2
3.936887868E0,-8.307760954E-2,8.040507883E-2,5.780307949E-2
3.953553806E0,-1.367573589E-1,1.213330179E-1,6.261363626E-2
3.970219743E0,-2.062432170E-1,1.692095399E-1,8.277218044E-2
3.986885681E0,-2.654971182E-1,1.708130687E-1,9.750928730E-2
4.003551618E0,-3.059668839E-1,1.204167232E-1,1.058323234E-1
4.020217556E0,-3.043633699E-1,6.429351866E-2,1.092684343E-1
4.036883493E0,-2.775616944E-1,4.398226365E-2,1.178205460E-1
4.053549431E0,-2.105956376E-1,6.337722391E-2,1.517999023E-1
4.070215368E0,-1.038470119E-1,8.544471115E-2,2.210566849E-1
4.086881306E0,5.345066893E-4,6.864593178E-2,2.970330119E-1
4.103547243E0,7.475458086E-2,2.344193682E-2,3.393353820E-1
4.120213181E0,1.132390574E-1,-1.947131567E-2,3.283398151E-1
4.136879118E0,1.046869531E-1,-6.261363626E-2,2.852738500E-1
4.153545056E0,8.323032409E-2,-8.170316368E-2,2.247982323E-1
4.170210993E0,6.895136088E-2,-6.895136088E-2,1.591302752E-1
4.186876931E0,5.062541738E-2,-5.627591908E-2,1.062904745E-1
4.203542868E0,7.620538026E-2,-5.535962060E-2,6.192641705E-2
4.220208806E0,1.076649204E-1,-4.955640435E-2,3.581194952E-2
4.236874743E0,1.039233729E-1,-8.544471115E-2,2.588539571E-2
4.253540681E0,5.719221383E-2,-1.276707351E-1,1.756236330E-2
4.270206618E0,-5.650499370E-3,-1.345429718E-1,-2.367100911E-3
4.286872556E0,-7.414371520E-2,-1.320995092E-1,-3.084867075E-2
4.303538493E0,-1.126281917E-1,-1.414151937E-1,-5.726857483E-2
4.320204431E0,-9.903645515E-2,-1.589011997E-1,-9.147699922E-2
4.336870368E0,-6.551524997E-2,-1.630245447E-1,-1.203403622E-1
4.353536306E0,-7.063124329E-2,-1.890626550E-1,-1.335503161E-1
4.370202243E0,-1.316413581E-1,-1.854738146E-1,-1.428660005E-1
4.386868181E0,-1.915824711E-1,-1.520289779E-1,-1.477529258E-1
4.403534118E0,-2.358701676E-1,-1.026252806E-1,-1.433241516E-1
4.420200056E0,-2.519817352E-1,-5.131264031E-2,-1.269835234E-1
4.436865993E0,-2.307541668E-1,-6.398808211E-2,-9.468404204E-2
4.453531931E0,-1.857792437E-1,-8.498656005E-2,-7.414371520E-2
4.470197868E0,-1.486692131E-1,-1.024725661E-1,-8.666644245E-2
4.486863806E0,-1.277471036E-1,-1.237001196E-1,-1.039997265E-1
4.503529743E0,-1.195004210E-1,-1.302669197E-1,-1.058323234E-1
4.520195681E0,-1.276707351E-1,-1.278234571E-1,-7.360920310E-2
4.536861618E0,-1.438586563E-1,-1.050687432E-1,-2.466366626E-2
4.553527556E0,-1.523344070E-1,-5.474875495E-2,3.130682046E-3
4.570193493E0,-1.353829056E-1,-6.185005885E-3,-1.794415340E-2
4.586859431E0,-9.873101860E-2,4.428769462E-3,-4.802924395E-2
4.603525368E0,-6.765327603E-2,-3.207040206E-2,-5.490147322E-2
4.620191306E0,-6.818778068E-2,-6.414080411E-2,-4.085158184E-2
4.636857243E0,-8.368847519E-2,-5.406153202E-2,-1.855501719E-2
4.653523181E0,-1.076649204E-1,-3.100138716E-2,4.581485991E-4
4.670189118E0,-1.279761642E-1,-3.558287397E-2,1.229365356E-2
4.686855056E0,-1.500436664E-1,-9.758564830E-2,3.382663801E-2
4.703520993E0,-1.797469556E-1,-1.545487940E-1,6.956222653E-2
4.720186931E0,-1.959348768E-1,-1.457676142E-1,9.491311759E-2
4.736852868E0,-1.923460513E-1,-7.704532146E-2,1.229365394E-1
4.753518806E0,-1.970038861E-1,-2.138026757E-3,1.598175019E-1
4.770184743E0,-2.065486610E-1,5.910116807E-2,1.938732117E-1
4.786850681E0,-1.916588247E-1,7.124210149E-2,2.146426141E-1
4.803516618E0,-1.458439678E-1,2.977965772E-2,2.248746008E-1
4.820182556E0,-9.781472385E-2,-4.260781780E-2,2.222784162E-1
4.836848493E0,-7.452550530E-2,-1.178205460E-1,2.157116234E-1
4.853514431E0,-5.383246019E-2,-1.857792437E-1,1.950185746E-1
4.870180368E0,-3.565923125E-2,-2.096029818E-1,1.629481763E-1
4.886846306E0,-4.008800164E-2,-1.642462611E-1,1.434005052E-1
4.903512243E0,-6.597339362E-2,-1.018617004E-1,1.419496983E-1
4.920178181E0,-9.926552325E-2,-3.207040206E-2,1.521816850E-1
4.936844118E0,-1.189659163E-1,-4.886918236E-3,1.779143661E-1
4.953510056E0,-1.364519149E-1,-1.733328775E-2,2.027307451E-1
4.970175993E0,-1.320231557E-1,-3.489565104E-2,2.041051984E-1
4.986841931E0,-8.239039034E-2,-5.635227636E-2,2.018908113E-1
5.003507868E0,-1.939495653E-2,-7.635809481E-2,2.072358727E-1
5.020173806E0,-2.977965865E-3,-8.849903196E-2,2.291506529E-1
5.036839743E0,-4.115701467E-2,-7.399099320E-2,2.377791107E-1
5.053505681E0,-9.819651395E-2,-2.199113183E-2,2.360992432E-1
5.070171618E0,-1.111773923E-1,3.153589368E-2,2.414443046E-1
5.086837556E0,-6.757691503E-2,5.635227636E-2,2.507599890E-1
5.103503493E0,-9.697478265E-3,3.107774630E-2,2.552651167E-1
5.120169431E0,3.069595434E-2,-1.168278884E-2,2.554942071E-1
5.136835368E0,4.879282415E-2,-3.245219216E-2,2.485456020E-1
5.153501306E0,7.895427197E-2,1.702785492E-2,2.301433086E-1
5.170167243E0,1.265253723E-1,9.888373315E-2,2.273180634E-1
5.186833181E0,2.124282271E-1,1.540906429E-1,2.481638193E-1
5.203499118E0,3.110828996E-1,1.305723488E-1,2.626718581E-1
5.220165056E0,3.849211633E-1,5.474875495E-2,2.496909797E-1
5.236830993E0,3.984365463E-1,-1.557705179E-2,2.244164497E-1
5.253496931E0,3.563632369E-1,-5.291616172E-2,2.003636509E-1
5.270162868E0,2.793942690E-1,-4.696023092E-2,1.953240186E-1
5.286828806E0,2.088394016E-1,-2.237292193E-2,1.848629564E-1
5.303494743E0,1.782197952E-1,1.007926930E-2,1.582903415E-1
5.320160681E0,1.923460513E-1,1.290451828E-2,1.414915472E-1
5.336826618E0,2.337321341E-1,-2.832885459E-2,1.433241516E-1
5.353492556E0,2.490801066E-1,-8.804088831E-2,1.317940801E-1
5.370158493E0,1.873827726E-1,-1.453094631E-1,1.101847365E-1
5.386824431E0,7.605266571E-2,-1.715766490E-1,7.903063297E-2
5.403490368E0,-2.764163166E-2,-1.408043355E-1,5.047270283E-2
5.420156306E0,-8.078686893E-2,-1.059850380E-1,2.756527252E-2
5.436822243E0,-7.254019380E-2,-1.138499230E-1,2.084576152E-2
5.453488181E0,-4.421133921E-2,-1.898262352E-1,4.398226365E-2
5.470154118E0,-3.191768378E-2,-2.835176289E-1,7.055488229E-2
5.486820056E0,-6.742420048E-2,-3.296379149E-1,6.429351866E-2
5.503485993E0,-1.366046369E-1,-3.092502952E-1,3.512472659E-2
5.520151931E0,-2.009745091E-1,-2.465602905E-1,3.970621154E-2
5.536817868E0,-2.444986254E-1,-1.779143661E-1,1.041524485E-1
5.553483806E0,-2.909243405E-1,-1.729510874E-1,1.989891976E-1
5.570149743E0,-3.437641561E-1,-2.604574561E-1,2.726747692E-1
5.586815681E0,-3.530034721E-1,-3.501018882E-1,3.136027157E-1
5.603481618E0,-3.110828996E-1,-4.341721535E-1,3.868301213E-1
5.620147556E0,-3.565159440E-1,-5.493965149E-1,5.421425104E-1
5.636813493E0,-5.189296007E-1,-5.707767606E-1,7.266236544E-1
5.653479431E0,-6.631700993E-1,-5.161044002E-1,8.572723866E-1
5.670145368E0,-7.488438487E-1,-4.788416326E-1,9.423353076E-1
5.686811306E0,-7.770199776E-1,-5.522981286E-1,9.686024785E-1
5.703477243E0,-7.976366878E-1,-8.215367794E-1,9.294307828E-1
5.720143181E0,-8.568905592E-1,-1.179732561E0,8.155808449E-1
5.736809118E0,-9.584468603E-1,-1.421100497E0,6.675988436E-1
5.753475056E0,-1.104443550E0,-1.432248831E0,5.893318057E-1
5.770140993E0,-1.251891017E0,-1.184695840E0,6.165916324E-1
5.786806931E0,-1.361770272E0,-9.006437659E-1,6.670643687E-1
5.803472868E0,-1.402621865E0,-8.281798959E-1,6.658425927E-1
5.820138806E0,-1.448971272E0,-9.576832652E-1,5.610793233E-1
5.836804743E0,-1.573358655E0,-1.199814796E0,4.085921645E-1
5.853470681E0,-1.765628338E0,-1.282128811E0,2.675587833E-1
5.870136618E0,-1.921704292E0,-1.159574032E0,1.442404389E-1
5.886802556E0,-1.964846611E0,-9.524145722E-1,4.360047355E-2
5.903468493E0,-1.892535448E0,-8.384119272E-1,-4.902189970E-2
5.920134431E0,-1.748218656E0,-9.191223979E-1,-1.262199283E-1
5.936800368E0,-1.623449564E0,-1.059697628E0,-1.956294477E-1
5.953466306E0,-1.583132386E0,-1.117500782E0,-2.709185183E-1
5.970132243E0,-1.626274705E0,-1.094211578E0,-3.023017049E-1
5.986798181E0,-1.685910463E0,-1.038088322E0,-2.889390290E-1
6.003464118E0,-1.711184978E0,-9.800561666E-1,-2.709185183E-1
6.020130056E0,-1.677740097E0,-9.153045416E-1,-2.672533393E-1
6.036795993E0,-1.565264583E0,-8.011491299E-1,-2.534325123E-1
6.053461931E0,-1.355890751E0,-6.068941355E-1,-2.055560052E-1
6.070127868E0,-1.080314398E0,-3.914116025E-1,-1.256090701E-1
6.086793806E0,-7.978657484E-1,-1.830303669E-1,-6.719512492E-2
6.103459743E0,-5.068650246E-1,3.283398226E-3,-7.017309219E-2
6.120125681E0,-1.655443609E-1,1.347720474E-1,-1.462257504E-1
6.136791618E0,2.727511227E-1,1.912006736E-1,-2.110537887E-1
6.153457556E0,7.904590368E-1,1.954003721E-1,-1.967748106E-1
6.170123493E0,1.288771987E0,2.114355713E-1,-1.533270627E-1
6.186789431E0,1.639408350E0,2.994000912E-1,-1.353065521E-1
6.203455368E0,1.846186042E0,4.046979249E-1,-1.790597439E-1
6.220121306E0,2.041815519E0,4.881573021E-1,-2.671006322E-1
6.236787243E0,2.276998520E0,5.063305497E-1,-3.194822669E-1
6.253453181E0,2.480111122E0,5.684860349E-1,-3.089448512E-1
6.270119118E0,2.556621790E0,6.890554428E-1,-2.789361179E-1
6.286785056E0,2.606941700E0,7.963386178E-1,-2.780198455E-1
6.303450993E0,2.734765291E0,9.298889041E-1,-3.881282210E-1
6.320116931E0,2.847546101E0,1.000596523E0,-7.348703146E-1
6.336782868E0,2.846324444E0,9.700532556E-1,-1.134834051E0
6.353448806E0,2.839757681E0,1.029307127E0,-1.346498728E0
6.370114743E0,2.885343313E0,1.241735339E0,-1.398040414E0
6.386780681E0,2.853883982E0,1.421635032E0,-1.404607177E0
6.403446618E0,2.655887365E0,1.478598237E0,-1.403156400E0
6.420112556E0,2.408181667E0,1.396436930E0,-1.298087597E0
6.436778493E0,2.280740023E0,1.070082426E0,-1.029841661E0
6.453444431E0,2.236452341E0,4.376846254E-1,-6.318632364E-1
6.470110368E0,2.144058943E0,-3.998109996E-1,-2.136499584E-1
6.486776306E0,1.949880362E0,-1.008079648E0,1.734092385E-1
6.503442243E0,1.583896041E0,-1.145600557E0,5.175551772E-1
6.520108181E0,1.064584613E0,-1.028925419E0,8.276454210E-1
6.536774118E0,4.423424602E-1,-6.608029604E-1,1.048167586E0
6.553440056E0,-1.110246703E-1,-1.388190240E-1,1.197294950E0
6.570105993E0,-4.395935535E-1,2.782489061E-1,1.331532478E0
6.586771931E0,-5.091558099E-1,4.599048197E-1,1.345429659E0
6.603437868E0,-6.358338594E-1,3.753000498E-1,9.917389750E-1
6.620103806E0,-1.117577076E0,1.915824711E-1,2.910007238E-1
6.636769743E0,-1.651931047E0,2.199113183E-2,-2.022725940E-1
6.653435681E0,-2.096335173E0,-1.540906429E-1,-1.331685185E-1
6.670101618E0,-3.006218195E0,-7.294489145E-1,2.651916742E-1
6.686767556E0,-4.292241573E0,-2.092899084E0,4.924333692E-1
6.703433493E0,-5.342088699E0,-2.766224861E0,2.893208265E-1
6.720099431E0,-4.902189732E0,-1.751196623E0,-1.499672979E-1
6.736765368E0,-2.961319685E0,-7.033344507E-1,-2.925278842E-1
6.753431306E0,-1.061453938E0,-7.912226319E-1,-2.617555559E-1
6.770097243E0,3.586539924E-1,-1.403843641E0,-4.642572403E-1
6.786763181E0,1.326034665E0,-2.117028236E0,-6.026180983E-1
6.803429118E0,1.741804600E0,-2.626031399E0,-4.719693959E-1
6.820095056E0,1.445535183E0,-2.575329542E0,-1.528689116E-1
6.836760993E0,7.493783832E-1,-2.073351383E0,1.827249229E-1
6.853426931E0,6.834049523E-2,-1.492266297E0,4.512000084E-1
6.870092868E0,-3.956113160E-1,-1.036103010E0,6.468294263E-1
6.886758806E0,-5.051088333E-1,-6.554579139E-1,6.005564332E-1
6.903424743E0,-2.636645138E-1,-2.074649483E-1,5.925388262E-2
6.920090681E0,1.559995860E-1,3.077994883E-1,-8.025999665E-1
6.936756618E0,5.254964232E-1,7.309760451E-1,-1.549458504E0
6.953422556E0,8.207731843E-1,1.090088248E0,-1.868482590E0
6.970088493E0,1.089171886E0,1.509370565E0,-1.938961148E0
6.986754431E0,1.508606911E0,1.934685111E0,-2.120388031E0
7.003420368E0,2.169867992E0,2.359694242E0,-2.276234865E0
7.020086306E0,2.814024925E0,2.846782684E0,-2.185597897E0
7.036752243E0,3.144426346E0,3.412595987E0,-1.992488146E0
7.053418181E0,2.946048021E0,3.198640585E0,-1.700953007E0
7.070084118E0,2.164522886E0,1.242804408E0,-1.168889761E0
7.086750056E0,1.558468819E0,-1.125671029E0,-1.079245329E0
7.103415993E0,1.060003161E0,-1.434310555E0,-1.641851783E0
7.120081931E0,5.619956255E-1,2.189950198E-1,-2.187735796E0
7.136747868E0,3.806451261E-1,2.227823734E0,-2.145204306E0
7.153413806E0,7.462477088E-1,3.023475170E0,-1.675525784E0
7.170079743E0,1.545258760E0,2.251647472E0,-9.757801294E-1
7.186745681E0,2.279136419E0,5.912407637E-1,-1.288161129E-1
7.203411618E0,2.653672934E0,-9.995275140E-1,5.487092733E-1
7.220077556E0,2.643593788E0,-1.815566540E0,1.014722705E0
7.236743493E0,2.294408083E0,-1.552436471E0,1.413159251E0
7.253409431E0,1.801287532E0,-7.741183639E-1,1.685986757E0
7.270075368E0,1.155985236E0,1.309541315E-1,1.775402069E0
7.286741306E0,6.310997009E-1,9.112575054E-1,1.716377258E0
7.303407243E0,3.600284159E-1,1.392084479E0,1.635514140E0
7.320073181E0,5.696314201E-2,8.215367794E-1,1.449200273E0
7.336739118E0,-4.757109582E-1,-4.588358104E-1,1.304043531E0
7.353405056E0,-1.038622856E0,-9.928843379E-1,1.094593287E0
7.370070993E0,-1.461264968E0,-6.195695996E-1,8.857539296E-1
7.386736931E0,-1.919337153E0,3.887390792E-1,3.819431961E-1
7.403402868E0,-2.824333191E0,1.610774040E0,-4.104247689E-1
7.420068806E0,-4.760774612E0,2.008981466E0,-5.659661889E-1
7.436734743E0,-6.888187408E0,1.573740393E-1,5.963567272E-2
7.453400681E0,-6.640634537E0,-2.593044519E0,9.272927642E-1
7.470066618E0,-3.412901640E0,-3.560959816E0,1.358410597E0
7.486732556E0,-2.676351368E-1,-2.180787325E0,1.160337687E0
7.503398493E0,8.139009476E-1,-9.320269227E-1,1.039386392E0
7.520064431E0,4.310414493E-1,-6.987529397E-1,9.720385671E-1
7.536730368E0,-3.658316433E-1,-9.926552773E-1,7.270817757E-1
7.553396306E0,-9.680679440E-1,-1.338328362E0,3.857611120E-1
7.570062243E0,-1.137582898E0,-1.804570913E0,3.161225095E-2
7.586728181E0,-1.086423039E0,-1.759748697E0,-3.622428179E-1
7.603394118E0,-1.183474183E0,-1.868940830E0,-7.386882305E-1
7.620060056E0,-1.345353365E0,-2.043648005E0,-1.323591232E0
7.636725993E0,-1.362304807E0,-1.289917350E0,-1.651549339E0
7.653391931E0,-9.373720288E-1,3.097084463E-1,-1.662163019E0
7.670057868E0,-9.025526792E-2,1.766849995E0,-1.764330149E0
7.686723806E0,8.846849203E-1,2.542495489E0,-2.016617298E0
7.703389743E0,1.635361314E0,3.041648388E0,-2.207665205E0
7.720055681E0,2.037386656E0,3.671221018E0,-2.350378513E0
7.736721618E0,2.097709656E0,4.570948601E0,-2.277838469E0
7.753387556E0,2.208657980E0,5.418065071E0,-2.030361891E0
7.770053493E0,2.527300358E0,5.230453491E0,-1.702403784E0
7.786719431E0,2.862894058E0,3.383198261E0,-1.198364019E0
7.803385368E0,3.286910772E0,1.020220518E0,-1.071227789E0
7.820051306E0,3.538739681E0,6.177370250E-2,-1.044349670E0
7.836717243E0,3.716883183E0,1.096502244E-1,-7.920625210E-1
7.853383181E0,4.273915291E0,-4.110356271E-1,-3.534616232E-1
7.870049118E0,5.305055141E0,-1.780212641E0,1.482874304E-1
7.886715056E0,6.101164818E0,-3.070282698E0,5.369501114E-1
7.903380993E0,5.579028130E0,-3.288972378E0,9.521090984E-1
7.920046931E0,3.419315577E0,-2.057392597E0,1.322140455E0
7.936712868E0,8.666644096E-1,-7.544180006E-2,1.572518706E0
7.953378806E0,-5.732202530E-1,1.288924694E0,1.726303816E0
7.970044743E0,-5.429824591E-1,1.320536971E0,1.779525518E0
7.986710681E0,5.280162692E-1,1.306487024E-1,1.809457779E0
8.003376618E0,1.689881086E0,-1.416290045E0,1.974238634E0
8.020042556E0,1.648876786E0,-2.045327902E0,2.372522354E0
8.036708493E0,3.760636151E-1,-1.792659044E0,2.898935080E0
8.053374431E0,-1.324889302E0,-1.347873092E0,3.122282505E0
8.070040368E0,-2.730183840E0,-7.602975965E-1,2.601978540E0
8.086706306E0,-3.606621981E0,-2.419024557E-1,1.740124702E0
8.103372243E0,-4.147619247E0,-5.206094980E-1,2.038303137E0
8.120038181E0,-4.107072830E0,-1.894673467E0,3.715508699E0
8.136704118E0,-3.404654741E0,-3.139081478E0,4.149680614E0
8.153370056E0,-2.979798317E0,-2.214537621E0,2.661385059E0
8.170035993E0,-3.131980181E0,-1.173623949E-1,1.204167247E0
8.186701931E0,-2.877249479E0,8.736893535E-1,6.512582302E-1
8.203367868E0,-1.992182732E0,5.779544115E-1,4.760927260E-1
8.220033806E0,-1.112842917E0,-9.048434347E-2,3.875937164E-1
8.236699743E0,-6.403390169E-1,-6.423243284E-1,5.087739825E-1
8.253365681E0,-6.922625303E-1,-1.063133836E0,7.602212429E-1
8.270031618E0,-1.119486094E0,-1.272278666E0,8.633046746E-1
8.286697556E0,-1.553581834E0,-1.211802959E0,7.358629704E-1
8.303363493E0,-1.776242018E0,-9.307288527E-1,3.531562090E-1
8.320029431E0,-1.797469616E0,-5.427533388E-1,-1.942549944E-1
8.336695368E0,-1.724776745E0,2.672533318E-2,-6.672934294E-1
8.353361306E0,-1.500283957E0,6.124683022E-1,-1.132085204E0
8.370027243E0,-1.121013284E0,9.114102721E-1,-1.986150503E0
8.386693181E0,-6.631700993E-1,1.065271854E0,-3.283780098E0
8.403359118E0,-3.676642478E-1,1.375514746E0,-4.389445305E0
8.420025056E0,-4.049269855E-1,2.270355225E0,-4.783452988E0
8.436690993E0,6.910407543E-2,3.312414169E0,-4.934641838E0
8.453356931E0,1.356654286E0,3.319515467E0,-4.616228580E0
8.470022868E0,2.541808367E0,2.385197878E0,-4.217563152E0
8.486688806E0,2.895269871E0,1.635895848E0,-3.581805706E0
8.503354743E0,2.104276419E0,1.248683929E0,-2.672838926E0
8.520020681E0,7.858011723E-1,1.223943949E0,-2.124969482E0
8.536686618E0,-2.828303874E-1,1.612301230E0,-2.039753914E0
8.553352556E0,-6.935606003E-1,1.879783630E0,-1.902080178E0
8.570018493E0,-3.549887836E-1,1.889328361E0,-1.367115378E0
8.586684431E0,6.749292016E-1,1.655748963E0,-4.885390997E-1
8.603350368E0,1.941404581E0,1.109177709E0,4.172970057E-1
8.620016306E0,2.981478214E0,6.026944518E-1,1.017318964E0
8.636682243E0,3.655796528E0,2.451858521E-1,1.078634501E0
8.653348181E0,3.652436972E0,-2.521344423E-1,6.683624387E-1
8.670014118E0,2.710254192E0,-8.065705895E-1,4.223366380E-1
8.686680056E0,1.198211312E0,-1.165224552E0,6.785180569E-1
8.703345993E0,-2.251800299E-1,-1.165911794E0,9.509637356E-1
8.720011931E0,-1.374369383E0,-6.859247684E-1,6.922625303E-1
8.736677868E0,-2.380463600E0,-9.605848789E-2,2.306014486E-2
8.753343806E0,-2.947651625E0,2.135736048E-1,-5.618428588E-1
8.770009743E0,-2.765155792E0,3.761399984E-1,-6.690496206E-1
8.786675681E0,-2.217286348E0,-3.489565104E-2,-3.452913165E-1
8.803341618E0,-2.027002096E0,-9.472221732E-1,6.735547781E-1
8.820007556E0,-2.208887100E0,-2.179641962E0,2.342131853E0
8.836673493E0,-2.155283689E0,-3.072573423E0,3.262399673E0
8.853339431E0,-1.453170896E0,-2.971857071E0,2.788597822E0
8.870005368E0,-7.044034600E-1,-1.880012751E0,1.836183190E0
8.886671306E0,-4.331031144E-1,-7.334195375E-1,1.109712243E0
8.903337243E0,-5.345830321E-1,-2.473238707E-1,1.107726932E0
8.920003181E0,-6.634755135E-1,-1.934150606E-1,1.634063244E0
8.936669118E0,-3.652207851E-1,-2.124282271E-1,1.914297462E0
8.953335056E0,3.757582009E-1,-1.023962051E-1,1.910785079E0
8.970000993E0,1.355432630E0,1.983783394E-1,1.563202977E0
8.986666931E0,2.421009779E0,5.124391913E-1,8.844558597E-1
9.003332868E0,3.359069109E0,8.064942360E-1,2.168570012E-1
9.019998806E0,3.931220293E0,1.155068994E0,-2.650389671E-1
9.036664743E0,4.105164051E0,1.645058870E0,-5.881864429E-1
9.053330681E0,3.983830929E0,2.077398300E0,-8.150463104E-1
9.069996618E0,3.582111120E0,2.396269798E0,-1.037477493E0
9.086662556E0,2.982089043E0,2.731252670E0,-1.013577342E0
9.103328493E0,2.153756380E0,2.966664791E0,-3.879754841E-1
9.119994431E0,1.133535981E0,2.340528488E0,7.670170665E-1
9.136660368E0,8.540652990E-1,9.950987101E-1,1.096578598E0
9.153326306E0,1.181336164E0,-7.933606207E-2,7.825177908E-1
9.169992243E0,1.358410597E0,-3.072649837E-1,5.367974043E-1
9.186658181E0,1.535943151E0,-2.955822051E-1,2.945131958E-1
9.203324118E0,2.911839724E0,-6.986765862E-1,1.847865991E-2
9.219990056E0,5.609647751E0,-1.253189087E0,-7.181479335E-1
9.236655993E0,8.468876839E0,-1.770057082E0,-2.079383612E0
9.253321931E0,1.015623760E1,-2.496222496E0,-2.990030289E0
9.269987868E0,1.029612541E1,-3.331198454E0,-2.883434534E0
9.286653806E0,9.339893341E0,-3.758192778E0,-2.332663536E0
9.303319743E0,8.615942001E0,-4.324998856E0,-1.965686560E0
9.319985681E0,8.410080910E0,-5.414552689E0,-1.717751741E0
9.336651618E0,7.826704979E0,-6.203560829E0,-1.487303019E0
9.353317556E0,6.159273148E0,-6.072225094E0,-1.527696490E0
9.369983493E0,3.529958487E0,-5.204873562E0,-2.063272238E0
9.386649431E0,1.232572436E0,-3.850357056E0,-2.557461739E0
9.403315368E0,-1.472184062E-1,-2.785543442E0,-2.813490391E0
9.419981306E0,-2.561814189E-1,-2.450178623E0,-2.953073025E0
9.436647243E0,7.869465351E-1,-2.872591734E0,-3.010341644E0
9.453313181E0,2.069991589E0,-3.535227299E0,-2.891070366E0
9.469979118E0,2.780198336E0,-3.790797710E0,-2.687499523E0
9.486645056E0,2.437121391E0,-3.667021275E0,-2.494848013E0
9.503310993E0,1.062828302E0,-2.927263975E0,-1.916206479E0
9.519976931E0,-5.616137981E-1,-1.923536777E0,-1.218904257E0
9.536642868E0,-1.760130525E0,-1.230358005E0,-8.675807118E-1
9.553308806E0,-2.373591423E0,-7.293725610E-1,-7.938951254E-1
9.569974743E0,-2.198502302E0,-2.179260105E-1,-8.334486485E-1
9.586640681E0,-1.017777085E0,1.816559136E-1,-1.104214430E0
9.603306618E0,7.489202023E-1,2.607629001E-1,-1.465311885E0
9.619972556E0,2.113439322E0,-1.571449637E-1,-1.742797256E0
9.636638493E0,2.366795540E0,-6.197223067E-1,-1.887953997E0
9.653304431E0,1.298011303E0,-7.553343177E-1,-2.052429199E0
9.669970368E0,-4.531089365E-1,-3.203985691E-1,-2.097785950E0
9.686636306E0,-1.866573691E0,4.989238083E-1,-2.167882681E0
9.703302243E0,-2.639623165E0,9.387464523E-1,-2.582049131E0
9.719968181E0,-2.858236313E0,1.028925419E0,-3.118541002E0
9.736634118E0,-2.639852047E0,8.316160440E-1,-3.618075848E0
9.753300056E0,-2.234543324E0,-4.451677203E-2,-4.092411995E0
9.769965993E0,-1.430798054E0,-2.480416536E0,-4.759705544E0
9.786631931E0,-3.548360765E-1,-6.374068737E0,-5.404855251E0
9.803297868E0,-1.266780794E-1,-8.124348640E0,-5.478769779E0
9.819963806E0,-5.822305083E-1,-5.423410416E0,-5.109807491E0
9.836629743E0,-7.241802216E-1,-3.474293351E-1,-4.887605667E0
9.853295681E0,-7.936660647E-1,2.468657255E0,-3.854938507E0
9.869961618E0,-1.010064960E0,3.557371140E0,-2.342895508E0
9.886627556E0,-3.479104042E0,4.943957806E0,-6.242274642E-1
9.903293493E0,-6.882613659E0,7.946510792E0,1.226311088E0
9.919959431E0,-7.660397053E0,1.113743973E1,2.549062252E0
9.936625368E0,-6.357117176E0,1.200960159E1,3.791713953E0
9.953291306E0,-4.728322506E0,1.128450489E1,4.239706993E0
9.969957243E0,-3.150382280E0,8.866625786E0,3.514915943E0
9.986623181E0,-1.034957647E0,7.138107777E0,2.085263252E0
1.000328912E1,1.433088779E0,5.070330620E0,7.962622643E-1
1.001995506E1,2.823111534E0,2.953531265E0,2.254854590E-1
1.003662099E1,2.688110352E0,2.361679554E0,2.116646469E-1
1.005328693E1,1.565722823E0,3.311192513E0,4.338667095E-1
1.006995287E1,6.252201200E-1,4.166479588E0,8.014546037E-1
1.008661881E1,2.060141414E-1,3.614868641E0,9.135482907E-1
1.010328474E1,-6.742420048E-2,1.622609615E0,7.293725610E-1
1.011995068E1,-5.604684353E-1,3.432296515E-1,3.590357602E-1
1.013661662E1,-1.162551999E0,5.432878733E-1,9.941824526E-2
1.015328256E1,-1.519449830E0,1.141095400E0,2.313650399E-2
1.016994849E1,-1.291520834E0,1.546556950E0,2.087630332E-1
1.018661443E1,-7.724385262E-1,2.200793028E0,3.814850450E-1
1.020328037E1,-6.433169842E-1,2.922529936E0,2.054032870E-2
1.021994631E1,-1.123380303E0,3.051498652E0,-8.855248690E-1
1.023661224E1,-1.905898094E0,2.587165117E0,-1.691637278E0
1.025327818E1,-2.276311159E0,1.993480802E0,-1.916206479E0
1.026994412E1,-2.100916624E0,1.516700864E0,-1.828165531E0
1.028661006E1,-1.776242018E0,1.267468095E0,-2.164294004E0
1.030327599E1,-1.831754446E0,1.035644889E0,-3.003011227E0
1.031994193E1,-2.235994101E0,8.041270971E-1,-3.713828802E0
1.033660787E1,-2.616028309E0,6.486620307E-1,-3.918544769E0
1.035327381E1,-2.691546679E0,1.599702090E-1,-3.825922489E0
1.036993974E1,-2.246684313E0,-7.289143801E-1,-3.822715521E0
1.038660568E1,-1.568548083E0,-1.417206287E0,-3.886779785E0
1.040327162E1,-1.027016401E0,-1.212261200E0,-4.019566536E0
1.041993756E1,-5.600103140E-1,-3.213912249E-1,-3.862803459E0
1.043660349E1,9.422589093E-2,3.161988854E-1,-2.872209787E0
1.045326943E1,6.347648501E-1,4.504364133E-1,-1.265711784E0
1.046993537E1,7.511346340E-1,7.592285872E-1,1.489746422E-1
1.048660131E1,9.557743073E-1,1.245705962E0,9.581413865E-1
1.050326724E1,1.428049088E0,2.101985693E0,1.065806270E0
1.051993318E1,1.800829411E0,3.384801626E0,8.872811198E-1
1.053659912E1,2.166050196E0,4.585303783E0,9.725731015E-1
1.055326506E1,2.583957911E0,5.217396259E0,1.517617226E0
1.056993099E1,2.922835350E0,5.175857067E0,2.428111076E0
1.058659693E1,2.747211695E0,4.781925678E0,3.165195942E0
1.060326287E1,2.155359983E0,4.233216763E0,3.451691389E0
1.061992881E1,1.539761066E0,3.517664909E0,3.313483238E0
1.063659474E1,1.290222764E0,2.716362953E0,2.977202177E0
1.065326068E1,1.429041743E0,2.039601088E0,2.875874996E0
1.066992662E1,1.490739107E0,1.409723163E0,2.868239164E0
1.068659256E1,1.056490660E0,4.437932670E-1,2.405738115E0
1.070325849E1,2.567922771E-1,-6.226239204E-1,1.790979147E0
1.071992443E1,-7.038689256E-1,-1.431790709E0,2.188194036E0
1.073659037E1,-1.899254918E0,-1.612988472E0,3.820882797E0
1.075325631E1,-2.970559120E0,-1.301447392E0,5.167534351E0
1.076992224E1,-3.838368893E0,-3.901898861E-2,4.495048523E0
1.078658818E1,-4.130438328E0,2.037004948E0,2.527071238E0
1.080325412E1,-3.453294992E0,2.924209595E0,1.230663419E0
1.081992006E1,-2.502483845E0,2.880456448E0,1.338022947E0
1.083658599E1,-2.297233343E0,3.239034176E0,2.135354280E0
1.085325193E1,-2.807992697E0,3.966879606E0,2.554712772E0
1.086991787E1,-3.061119795E0,4.348517418E0,2.211025000E0
1.088658381E1,-2.471864223E0,3.786292553E0,1.530292630E0
1.090324974E1,-1.288390160E0,2.492480993E0,7.040216327E-1
1.091991568E1,1.555414498E-1,9.798271060E-1,-3.388772309E-1
1.093658162E1,1.288084745E0,1.750127524E-1,-1.326187491E0
1.095324756E1,1.720500708E0,5.083922148E-1,-2.227671146E0
1.096991349E1,1.632688880E0,1.544724345E0,-2.923217058E0
1.098657943E1,1.463631988E0,2.444222689E0,-3.239034176E0
1.100324537E1,1.741193652E0,2.720715284E0,-3.326998711E0
1.101991131E1,2.659170628E0,2.552651167E0,-3.401447773E0
1.103657724E1,3.889986992E0,2.453003883E0,-3.514686823E0
1.105324318E1,4.752757072E0,2.349309683E0,-3.451996803E0
1.106990912E1,5.178987980E0,1.844048023E0,-3.219791889E0
1.108657506E1,4.842554092E0,3.942368627E-1,-2.883892536E0
1.110324099E1,3.644113779E0,-1.037248373E0,-2.859610796E0
1.111990693E1,1.896735191E0,8.361211419E-2,-3.135721684E0
1.113657287E1,5.835285783E-1,2.152840137E0,-2.954600334E0
1.115323881E1,6.483566165E-1,2.743393660E0,-2.334267139E0
1.116990474E1,1.980881810E0,1.546098709E0,-1.394222498E0
1.118657068E1,3.697946310E0,-3.409388959E-1,-3.996582925E-1
1.120323662E1,4.280711174E0,-1.292818904E0,3.480401933E-1
1.121990256E1,3.387932539E0,-1.124983907E0,7.157807946E-1
1.123656849E1,2.013028622E0,-3.914879560E-1,8.746820092E-1
1.125323443E1,8.998801708E-1,5.053378940E-1,1.001360059E0
1.126990037E1,5.240456462E-1,7.450259328E-1,1.178205490E0
1.128656631E1,7.648790479E-1,8.345939964E-2,1.311297655E0
1.130323224E1,1.061606646E0,-1.016249895E0,1.526551127E0
1.131989818E1,9.720385671E-1,-1.819155335E0,1.895437002E0
1.133656412E1,3.300196826E-1,-1.907730699E0,2.283794403E0
1.135323006E1,-6.427060962E-1,-1.266857147E0,2.497596979E0
1.136989599E1,-1.437135696E0,-4.265363216E-1,2.245080709E0
1.138656193E1,-1.956218123E0,-1.437823027E-1,1.358563304E0
1.140322787E1,-2.634201527E0,-1.143920660E0,1.462944746E0
1.141989381E1,-3.238117933E0,-3.008738041E0,3.699549913E0
1.143655974E1,-2.949636936E0,-3.556149244E0,4.857749462E0
1.145322568E1,-2.232252598E0,-1.747684121E0,2.921766281E0
1.146989162E1,-1.772347808E0,1.763108522E-1,5.136609077E-1
1.148655756E1,-1.268078923E0,5.900954008E-1,-1.934914142E-1
1.150322349E1,-6.121628881E-1,-9.918916970E-2,-1.120936871E-1
1.151988943E1,-4.691441655E-1,-6.908880472E-1,2.405280061E-2
1.153655537E1,-8.581886292E-1,-8.694133162E-1,2.204458266E-1
1.155322131E1,-1.257159710E0,-1.018387914E0,3.707185686E-1
1.156988724E1,-1.383914113E0,-1.169882417E0,4.741837978E-1
1.158655318E1,-1.342146277E0,-1.213635564E0,4.744892120E-1
1.160321912E1,-1.233183265E0,-1.194927812E0,2.161697745E-1
1.161988506E1,-1.002276421E0,-9.718095064E-1,-3.484983444E-1
1.163655099E1,-8.882737756E-1,-2.754236460E-1,-9.978476167E-1
1.165321693E1,-9.804379940E-1,5.371028781E-1,-1.507308841E0
1.166988287E1,-8.505528569E-1,1.047938585E0,-1.886655927E0
1.168654881E1,-3.003927469E-1,1.248302221E0,-2.170555353E0
1.170321474E1,6.095666885E-1,1.297400475E0,-2.500727654E0
1.171988068E1,1.407508850E0,1.542204499E0,-2.893284559E0
1.173654662E1,1.882608891E0,2.006385326E0,-2.956738234E0
1.175321256E1,2.222173452E0,1.876042128E0,-2.541426659E0
1.176987849E1,2.728427649E0,6.892082095E-1,-1.705839872E0
1.178654443E1,2.888321400E0,-6.341540217E-1,-1.920482516E0
1.180321037E1,1.863366604E0,-3.756054938E-1,-2.874882460E0
1.181987631E1,5.864302069E-2,1.458057880E0,-3.187645197E0
1.183654224E1,-7.922916412E-1,2.740721226E0,-2.943910122E0
1.185320818E1,-2.832885459E-2,2.397338867E0,-2.309374332E0
1.186987412E1,1.669646144E0,1.041524410E0,-1.330310822E0
1.188654006E1,3.002094984E0,-1.303432733E-1,-4.929678738E-1
1.190320599E1,3.306458235E0,-5.668824911E-1,-9.109520912E-2
1.191987193E1,3.216050386E0,-4.224893451E-1,-8.399390499E-4
1.193653787E1,3.572337151E0,-4.462367296E-1,-8.666644245E-2
1.195320381E1,3.991619587E0,-8.219949007E-1,-1.478292793E-1
1.196986974E1,3.737499714E0,-9.217185974E-1,-5.306887627E-2
1.198653568E1,2.595793486E0,-6.214785576E-1,4.815141559E-1
1.200320162E1,8.216131330E-1,-4.883863926E-1,1.464090109E0
1.201986756E1,-1.163621068E0,-7.193696499E-1,2.465984821E0
1.203653349E1,-2.646037102E0,-1.159115911E0,2.706512690E0
1.205319943E1,-3.492848396E0,-1.185612202E0,2.437045097E0
1.206986537E1,-4.119748592E0,-1.090851784E0,3.419468403E0
1.208653131E1,-4.263607025E0,-1.544342518E0,5.496103287E0
1.210319724E1,-3.464901447E0,-2.156276226E0,5.351404667E0
1.211986318E1,-2.728733063E0,-1.150945544E0,3.043251991E0
1.213652912E1,-2.383441687E0,2.374736778E-2,9.779945016E-1
1.215319506E1,-1.675296664E0,7.628174126E-2,4.285216331E-1
1.216986099E1,-1.094898701E0,-7.294489145E-1,7.530435324E-1
1.218652693E1,-1.253876328E0,-1.249905705E0,1.194851518E0
1.220319287E1,-1.739590168E0,-1.288237453E0,1.528001904E0
1.221985881E1,-2.099236727E0,-1.281136155E0,1.758832455E0
1.223652474E1,-2.241950035E0,-1.297324061E0,1.704847217E0
1.225319068E1,-2.033416033E0,-1.222569466E0,1.051909208E0
1.226985662E1,-1.627038360E0,-9.366847873E-1,9.506583214E-2
1.228652256E1,-1.373071313E0,-5.847502947E-1,-5.306124091E-1
1.230318849E1,-1.268918872E0,-2.317468226E-1,-7.530435324E-1
1.231985443E1,-1.163621068E0,1.526398361E-1,-8.779653907E-1
1.233652037E1,-8.371901512E-1,5.278635025E-1,-1.112232089E0
1.235318631E1,-1.389717404E-2,8.380300999E-1,-1.641240954E0
1.236985224E1,1.094822407E0,1.418198943E0,-2.562425137E0
1.238651818E1,1.984088778E0,2.403447390E0,-3.380678415E0
1.240318412E1,2.461403370E0,2.827922106E0,-2.832427263E0
1.241985006E1,2.452774763E0,1.857563496E0,-2.241110206E-1
1.243651599E1,2.367024660E0,5.208385587E-1,2.177809238E0
1.245318193E1,2.479118347E0,3.999637067E-1,1.533576012E0
1.246984787E1,2.696968079E0,1.789222956E0,-6.000219584E-1
1.248651381E1,3.042641163E0,3.002247572E0,-1.502727389E0
1.250317974E1,3.627467871E0,2.763017654E0,-9.530254006E-1
1.251984568E1,4.138914108E0,2.183994293E0,-5.215258151E-2
1.253651162E1,4.589121819E0,1.958050728E0,3.358229101E-1
1.255317756E1,5.012908936E0,1.493640780E0,1.441640854E-1
1.256984349E1,5.335445881E0,5.371792316E-1,-8.610138893E-1
1.258650943E1,5.023370266E0,-4.344775677E-1,-1.787924886E0
1.260317537E1,3.968330383E0,-8.956041336E-1,-1.829845428E0
1.261984131E1,2.719493628E0,-1.217300773E0,-1.614515662E0
1.263650724E1,1.715766430E0,-1.753792763E0,-1.662163019E0
1.265317318E1,9.829577804E-1,-2.554254770E0,-1.914602876E0
1.266983912E1,4.783071280E-1,-3.146029949E0,-2.210261583E0
1.268650506E1,2.635881603E-1,-3.102505922E0,-2.505232811E0
1.270317099E1,3.694968224E-1,-2.599916935E0,-2.943070173E0
1.271983693E1,5.889499784E-1,-2.224311352E0,-2.908709049E0
1.273650287E1,6.450732350E-1,-2.237444878E0,-2.341902733E0
1.275316881E1,8.421534300E-1,-2.124053240E0,-2.116341114E0
1.276983474E1,1.424231291E0,-1.700953007E0,-2.285474300E0
1.278650068E1,2.222326040E0,-1.668500781E0,-2.598695040E0
1.280316662E1,2.746448040E0,-1.370093346E0,-3.322875261E0
1.281983256E1,2.916650295E0,-5.453495383E-1,-4.244059563E0
1.283649849E1,2.991710186E0,-3.954585791E-1,-4.275518894E0
1.285316443E1,3.110065222E0,-8.465822339E-1,-3.723449945E0
1.286983037E1,3.183750868E0,-1.295796871E0,-3.342117548E0
1.288649631E1,3.237048864E0,-1.465311885E0,-3.436190844E0
1.290316224E1,3.418323040E0,-1.681939840E0,-3.806222200E0
1.291982818E1,4.127231598E0,-2.230801821E0,-4.002386093E0
1.293649412E1,5.078500748E0,-2.826165915E0,-3.893423080E0
1.295316006E1,5.533823967E0,-3.263621330E0,-3.464519501E0
1.296982599E1,4.776657104E0,-3.496513605E0,-3.084179878E0
1.298649193E1,2.449414968E0,-3.179093122E0,-3.045695543E0
1.300315787E1,-6.144536138E-1,-1.891160965E0,-2.898400545E0
1.301982381E1,-2.765002966E0,1.508836001E-1,-2.438037634E0
1.303648974E1,-2.954905748E0,2.004400015E0,-1.858327031E0
1.305315568E1,-1.147738576E0,2.684827089E0,-1.224096656E0
1.306982162E1,1.556407094E0,1.796706080E0,-5.890263915E-1
1.308648756E1,3.797899008E0,-1.683696061E-1,-2.582430840E-1
1.310315349E1,4.573315620E0,-1.996458769E0,-6.520981789E-1
1.311981943E1,3.718181133E0,-2.527758360E0,-1.380172610E0
1.313648537E1,2.163301229E0,-1.673387647E0,-1.644448042E0
1.315315131E1,3.727802336E-1,-5.044979453E-1,-1.424918413E0
1.316981724E1,-1.500283957E0,3.066541255E-1,-1.303127289E0
1.318648318E1,-3.109988928E0,7.515927553E-1,-1.553276420E0
1.320314912E1,-4.022544384E0,8.875865340E-1,-2.108628750E0
1.321981506E1,-4.228635311E0,9.917389750E-1,-2.842277527E0
1.323648099E1,-4.099513531E0,1.286328554E0,-3.585623503E0
1.325314693E1,-3.957334757E0,1.700876594E0,-4.104858398E0
1.326981287E1,-3.832642078E0,2.169715405E0,-4.212676048E0
1.328647881E1,-3.637547016E0,3.049055099E0,-4.189310551E0
1.330314474E1,-3.342728376E0,4.134943485E0,-3.925722599E0
1.331981068E1,-2.906494617E0,5.287492752E0,-3.479867458E0
1.333647662E1,-2.461479664E0,6.414080143E0,-2.943146467E0
1.335314256E1,-2.399858713E0,7.506535530E0,-2.056247234E0
1.336980849E1,-3.227809429E0,8.782555580E0,-8.030580878E-1
1.338647443E1,-4.583165646E0,1.142851639E1,1.347262263E0
1.340314037E1,-6.202415466E0,1.377110672E1,3.965505123E0
1.341980631E1,-7.067476273E0,1.240101337E1,5.155851364E0
1.343647224E1,-6.157058716E0,8.672982216E0,5.578951836E0
1.345313818E1,-4.917919636E0,5.854451656E0,6.426755428E0
1.346980412E1,-4.344546795E0,4.331336498E0,6.975388527E0
1.348647006E1,-4.224969864E0,3.924806118E0,6.805033684E0
1.350313599E1,-3.896553755E0,3.955883980E0,5.337889194E0
1.351980193E1,-2.931921959E0,2.167653561E0,3.877311468E0
1.353646787E1,-2.375271320E0,4.890736043E-1,3.489030600E0
1.355313381E1,-2.333045244E0,1.662315726E-1,3.071657181E0
1.356979974E1,-2.352898359E0,1.494175196E0,1.982943416E0
1.358646568E1,-2.216140985E0,2.100916624E0,8.998801708E-1
1.360313162E1,-1.196913123E0,1.034270406E0,4.236347377E-1
1.361979756E1,9.202677608E-1,-6.871465445E-1,3.107774556E-1
1.363646349E1,2.887557745E0,-2.003942013E0,3.168861195E-2
1.365312943E1,3.412214279E0,-2.380005598E0,-3.938550651E-1
1.366979537E1,2.683910847E0,-1.849087715E0,-6.004800797E-1
1.368646131E1,1.899636745E0,-8.023709059E-1,-8.857539296E-1
1.370312724E1,1.748218656E0,-1.459203213E-1,-1.464166522E0
1.371979318E1,2.075871229E0,1.127809063E-1,-1.889939308E0
1.373645912E1,2.562959433E0,5.199986324E-2,-1.913075805E0
1.375312506E1,2.857549191E0,9.132428467E-2,-1.641240954E0
1.376979099E1,2.805854559E0,6.293434501E-1,-1.428583622E0
1.378645693E1,2.592204809E0,1.655443549E0,-1.435608625E0
1.380312287E1,2.436586857E0,2.874195099E0,-1.590691924E0
1.381978881E1,2.544175386E0,3.665875912E0,-1.737604856E0
1.383645474E1,2.974071503E0,3.685118198E0,-1.926972985E0
1.385312068E1,3.501858711E0,3.095099211E0,-2.140470266E0
1.386978662E1,3.698251724E0,2.389855623E0,-2.403676510E0
1.388645256E1,3.231398344E0,2.051207542E0,-2.815323114E0
1.390311849E1,2.244546175E0,2.520122766E0,-3.318064690E0
1.391978443E1,1.290146470E0,3.574780703E0,-3.863567114E0
1.393645037E1,1.226311088E0,4.321028233E0,-4.192670345E0
1.395311631E1,2.244240761E0,3.717264891E0,-3.740401506E0
1.396978224E1,3.017519236E0,2.276845694E0,-2.727740288E0
1.398644818E1,1.837786674E0,1.310992122E0,-1.697516918E0
1.400311412E1,-6.143009067E-1,1.221653223E0,-1.235932112E0
1.401978006E1,-1.159955859E0,1.866497278E0,-1.065195441E0
1.403644599E1,1.126129270E0,2.436586857E0,1.398880333E-1
1.405311193E1,4.234591007E0,2.815552235E0,1.913228512E0
1.406977787E1,6.066116333E0,2.131459951E0,2.610454321E0
1.408644381E1,5.897059441E0,6.594285369E-1,1.732412457E0
1.410310974E1,3.708101988E0,8.838449717E-1,9.964731932E-1
1.411977568E1,1.219362497E0,2.671922445E0,1.255861640E0
1.413644162E1,2.960403562E-1,3.803091288E0,1.603138208E0
1.415310756E1,7.202859521E-1,3.283474445E0,1.911395907E0
1.416977349E1,1.306410670E0,1.763490319E0,2.256305456E0
1.418643943E1,1.290986300E0,7.429642975E-2,2.322660685E0
1.420310537E1,6.142245531E-1,-1.185917616E0,2.337855816E0
1.421977131E1,-3.271180987E-1,-1.772729635E0,2.525085926E0
1.423643724E1,-1.244866014E0,-1.780059934E0,2.658636332E0
1.425310318E1,-2.112981319E0,-1.445382476E0,2.495611668E0
1.426976912E1,-2.750876904E0,-1.455232620E0,2.066784620E0
1.428643506E1,-3.119915485E0,-1.847331405E0,2.147953272E0
1.430310099E1,-3.260796309E0,-2.257069111E0,3.350058794E0
1.431976693E1,-2.712697744E0,-2.560210705E0,3.848066330E0
1.433643287E1,-1.920406103E0,-1.695302486E0,2.639241219E0
1.435309881E1,-1.552741885E0,3.810269013E-2,1.252043724E0
1.436976474E1,-1.495473385E0,1.118493438E0,4.540252388E-1
1.438643068E1,-1.497305989E0,1.006399751E0,1.374445707E-1
1.440309662E1,-1.714239240E0,3.557523787E-1,3.825540543E-1
1.441976256E1,-2.111530542E0,-2.244928032E-1,8.336013556E-1
1.443642849E1,-2.284328938E0,-6.013200283E-1,1.093524337E0
1.445309443E1,-2.068922758E0,-1.074511170E0,1.068402529E0
1.446976037E1,-1.692553639E0,-1.634445071E0,4.638754427E-1
1.448642631E1,-1.677434683E0,-1.425452948E0,-4.443277717E-1
1.450309224E1,-2.060752392E0,-3.023017049E-1,-1.277241945E0
1.451975818E1,-2.296240807E0,8.377246857E-1,-1.902309299E0
1.453642412E1,-1.725769401E0,1.693469882E0,-2.259359837E0
1.455309006E1,-2.855792828E-2,2.060752392E0,-2.449644089E0
1.456975599E1,2.211406946E0,1.960112333E0,-2.663064957E0
1.458642193E1,3.758192778E0,1.930027246E0,-2.795699120E0
1.460308787E1,4.073093414E0,2.040670156E0,-2.671235323E0
1.461975381E1,3.459403515E0,2.058308840E0,-2.305785418E0
1.463641974E1,2.668791771E0,1.564348340E0,-1.656512618E0
1.465308568E1,2.047466040E0,1.101083755E-1,-8.423061967E-1
1.466975162E1,1.935983181E0,-7.476221323E-1,-1.310992122E0
1.468641756E1,1.880394459E0,6.509527564E-1,-2.633743525E0
1.470308349E1,1.614668369E0,2.369926214E0,-3.198029757E0
1.471974943E1,1.487837553E0,2.357479811E0,-3.004614830E0
1.473641537E1,1.557552457E0,1.353676319E0,-2.274936914E0
1.475308131E1,2.022726059E0,6.930260658E-1,-1.420336962E0
1.476974724E1,2.851058722E0,3.148244321E-1,-7.524327040E-1
1.478641318E1,3.712683439E0,-1.902843714E-1,-1.948658675E-1
1.480307912E1,4.447553635E0,-8.197805285E-1,2.652680278E-1
1.481974506E1,5.056509495E0,-1.536172152E0,4.940368831E-1
1.483641099E1,5.217396259E0,-2.087706804E0,3.775908053E-1
1.485307693E1,4.328129768E0,-2.077703714E0,1.385135949E-1
1.486974287E1,2.105345488E0,-1.394909739E0,6.475166976E-2
1.488640881E1,-8.762855530E-1,-5.161807537E-1,1.574503928E-1
1.490307474E1,-3.092884779E0,-9.498947114E-2,3.959930837E-1
1.491974068E1,-3.439244986E0,-3.562105298E-1,6.751583219E-1
1.493640662E1,-2.385732412E0,-9.268345833E-1,9.300416112E-1
1.495307256E1,-1.841604590E0,-1.308930516E0,1.486081243E0
1.496973849E1,-3.017137527E0,-1.605581760E0,3.175580502E0
1.498640443E1,-5.069719315E0,-2.314872026E0,5.283674717E0
1.500307037E1,-5.296961308E0,-3.194441080E0,5.381489754E0
1.501973631E1,-3.739790440E0,-2.321362495E0,4.085539818E0
1.503640224E1,-2.191324711E0,2.351829410E-1,2.689179420E0
1.505306818E1,-1.510439515E0,1.715766430E0,1.318704367E0
1.506973412E1,-1.760588646E0,1.689499259E0,4.909062088E-1
1.508640006E1,-2.390542984E0,1.332525134E0,1.459203213E-1
1.510306599E1,-2.774471521E0,1.100091100E0,1.624900252E-1
1.511973193E1,-2.676885843E0,6.046797633E-1,3.465894163E-1
1.513639787E1,-2.292957306E0,-1.490510106E-1,4.754055142E-1
1.515306381E1,-1.855501771E0,-7.350993752E-1,4.387536347E-1
1.516972974E1,-1.366504550E0,-9.813542962E-1,1.831067204E-1
1.518639568E1,-9.095776677E-1,-8.913280964E-1,-3.180314898E-1
1.520306162E1,-5.291616321E-1,-4.003455043E-1,-1.061988473E0
1.521972756E1,-9.216422588E-2,4.738020003E-1,-1.992717266E0
1.523639349E1,5.710822344E-1,1.383608699E0,-2.984914303E0
1.525305943E1,1.269606113E0,2.241262913E0,-3.539655924E0
1.526972537E1,1.518304467E0,3.213835955E0,-3.316155910E0
1.528639131E1,1.491197228E0,4.060494423E0,-2.802265882E0
1.530305724E1,1.728289127E0,3.548589945E0,-2.134896040E0
1.531972318E1,2.515770197E0,1.482797861E0,-1.570151567E0
1.533638912E1,3.139768600E0,2.935205400E-1,-1.715155602E0
1.535305506E1,1.963853955E0,1.496924162E0,-2.247218847E0
1.536972099E1,-2.496909797E-1,4.107149124E0,-2.814788580E0
1.538638693E1,-1.463555694E0,5.394623280E0,-3.058065414E0
1.540305287E1,-9.656245112E-1,4.846066475E0,-2.520733595E0
1.541971881E1,5.430588126E-1,2.973307848E0,-1.165835381E0
1.543638474E1,1.835343242E0,7.921388745E-1,2.761872411E-1
1.545305068E1,2.383747101E0,-6.157516837E-1,1.288008332E0
1.546971662E1,2.312352180E0,-9.156099558E-1,1.762955785E0
1.548638256E1,1.928041935E0,-5.870410800E-1,1.740582824E0
1.550304849E1,1.592677236E0,-3.442223072E-1,1.365817308E0
1.551971443E1,1.483561516E0,-4.849502742E-1,9.390518665E-1
1.553638037E1,1.221195102E0,-9.652426839E-1,8.231402636E-1
1.555304631E1,5.246564746E-1,-1.622380495E0,1.163162947E0
1.556971224E1,-5.758163929E-1,-2.176358461E0,1.851989269E0
1.558637818E1,-1.840688348E0,-2.279670954E0,2.337703228E0
1.560304412E1,-2.735681534E0,-2.140393734E0,2.077627420E0
1.561971006E1,-3.570275545E0,-1.779219985E0,1.546556950E0
1.563637599E1,-5.570399761E0,-8.237511516E-1,1.812893987E0
1.565304193E1,-7.842358589E0,-6.747764945E-1,2.701091290E0
1.566970787E1,-7.065414906E0,-2.698953390E0,2.636950493E0
1.568637381E1,-3.202534914E0,-2.845331669E0,1.182786942E0
1.570303974E1,-4.153116941E-1,-1.073900223E0,-2.799287736E-1
1.571970568E1,-1.000291109E-2,-1.788306683E-1,-1.062370181E0
1.573637162E1,-8.280271888E-1,-1.873827726E-1,-1.597564101E0
1.575303756E1,-1.791742802E0,-4.416552484E-1,-1.695684314E0
1.576970349E1,-2.254320145E0,-1.121013284E0,-1.367191792E0
1.578636943E1,-2.039677382E0,-2.010050535E0,-1.209512234E0
1.580303537E1,-1.536706686E0,-2.673144341E0,-1.250211120E0
1.581970131E1,-1.317864418E0,-2.922300816E0,-1.432477951E0
1.583636724E1,-1.581070781E0,-2.593426466E0,-1.582445264E0
1.585303318E1,-1.989892006E0,-1.540524602E0,-1.590004683E0
1.586969912E1,-1.903301954E0,-5.280162692E-1,-1.597945929E0
1.588636506E1,-8.035162687E-1,-1.473711245E-2,-1.633910537E0
1.590303099E1,1.191186309E0,5.025889874E-1,-1.856036305E0
1.591969693E1,2.992932081E0,1.313206553E0,-2.104963779E0
1.593636287E1,3.424584389E0,2.303189278E0,-2.160857916E0
1.595302881E1,2.791575670E0,3.596924543E0,-2.030667305E0
1.596969474E1,2.096029758E0,4.241997719E0,-1.631237984E0
1.598636068E1,1.192331672E0,2.517068386E0,-6.711876392E-2
1.600302662E1,7.689260244E-1,-9.110284448E-1,1.094364285E0
1.601969256E1,1.116660833E0,-2.801655054E0,6.131555438E-1
1.603635849E1,5.448150039E-1,-7.942769527E-1,-1.187368408E-1
1.605302443E1,-6.482039094E-1,2.324340582E0,8.323032409E-3
1.606969037E1,-7.026472092E-1,3.432601929E0,7.357866168E-1
1.608635631E1,5.523744822E-1,2.325791359E0,1.642004490E0
1.610302224E1,2.354120255E0,5.370265245E-1,2.201403856E0
1.611968818E1,3.915872335E0,-6.815723777E-1,1.998520494E0
1.613635412E1,4.665709019E0,-8.920152783E-1,1.123914838E0
1.615302006E1,4.636387348E0,-1.819613427E-1,6.383536756E-2
1.616968599E1,4.173657417E0,9.870811105E-1,-8.032872081E-1
1.618635193E1,3.627925873E0,1.889099360E0,-1.302669168E0
1.620301787E1,3.044626474E0,1.560759544E0,-1.477987289E0
1.621968381E1,2.235459566E0,4.037816226E-1,-1.373987556E0
1.623634974E1,1.333441496E0,6.352993846E-2,-1.445458770E0
1.625301568E1,3.039052188E-1,9.855539799E-1,-1.809228778E0
1.626968162E1,-1.281365275E0,2.133216143E0,-1.842291832E0
1.628634756E1,-2.863581419E0,1.787772179E0,-1.270980477E0
1.630301349E1,-3.368461132E0,4.244746566E-1,-3.969093859E-1
1.631967943E1,-2.619998932E0,4.704422355E-1,2.378554791E-1
1.633634537E1,-6.398044825E-1,1.606192589E0,-1.401934624E-1
1.635301131E1,2.039371967E0,2.428416491E0,-6.209440231E-1
1.636967724E1,4.770624638E0,1.961104989E0,-4.428769648E-1
1.638634318E1,7.028228283E0,6.056724191E-1,-1.942549944E-1
1.640300912E1,8.536148071E0,-7.695369124E-1,-4.677697122E-1
1.641967506E1,8.928476334E0,-1.529834509E0,-1.016020894E0
1.643634099E1,8.180319786E0,-1.453094602E0,-1.473253131E0
1.645300693E1,6.947365284E0,-1.024038434E0,-1.674533129E0
1.646967287E1,6.075813770E0,-8.747583628E-1,-1.746920586E0
1.648633881E1,5.594223499E0,-1.363908291E0,-1.402927279E0
1.650300474E1,4.735042095E0,-2.363206863E0,-7.044798136E-1
1.651967068E1,3.276067734E0,-3.021795273E0,-5.530617237E-1
1.653633662E1,1.593822598E0,-2.060370445E0,-1.140179157E0
1.655300256E1,3.872119188E-1,-2.487746775E-1,-1.507232428E0
1.656966849E1,8.445205539E-2,7.964913249E-1,-1.293735266E0
1.658633443E1,8.912517428E-1,5.556578636E-1,-9.022472501E-1
1.660300037E1,2.556545496E0,-5.396226645E-1,-6.043743491E-1
1.661966631E1,4.245051861E0,-1.667889953E0,-5.077813268E-1
1.663633224E1,5.319715977E0,-2.287917614E0,-7.182242870E-1
1.665299818E1,5.473501205E0,-2.374431372E0,-1.117424369E0
1.666966412E1,4.744281292E0,-2.026849270E0,-1.534797788E0
1.668633006E1,3.385794401E0,-1.230052590E0,-1.883677959E0
1.670299599E1,1.923002362E0,-3.943895698E-1,-2.048993111E0
1.671966193E1,6.727148294E-1,1.714239269E-1,-2.155665398E0
1.673632787E1,-3.640754223E-1,6.255255342E-1,-2.435288906E0
1.675299381E1,-1.179274440E0,1.151021957E0,-2.869995356E0
1.676965974E1,-1.709352374E0,1.748600483E0,-3.412901640E0
1.678632568E1,-1.924911261E0,2.334038019E0,-4.030027866E0
1.680299162E1,-1.772271395E0,3.021031857E0,-4.521926403E0
1.681965756E1,-1.408196092E0,3.636096239E0,-4.536587238E0
1.683632349E1,-9.187406301E-1,4.318356037E0,-4.052706242E0
1.685298943E1,-5.409971476E-1,5.161578178E0,-3.384496212E0
1.686965537E1,-5.389354229E-1,6.195390701E0,-2.845789909E0
1.688632131E1,-9.152281284E-1,7.078548431E0,-2.583347082E0
1.690298724E1,-1.613446593E0,7.585566044E0,-2.426202297E0
1.691965318E1,-2.716821194E0,7.732937336E0,-2.051283836E0
1.693631912E1,-3.955883980E0,7.805324554E0,-1.596342444E0
1.695298506E1,-4.636998177E0,8.112666130E0,-1.037095666E0
1.696965099E1,-4.317286968E0,8.540424347E0,-3.193295598E-1
1.698631693E1,-3.307985544E0,8.402673721E0,3.655261993E-1
1.700298287E1,-2.322202444E0,7.686129570E0,1.018387914E0
1.701964881E1,-1.279379964E0,6.503418922E0,2.001269341E0
1.703631474E1,-2.296088040E-1,4.868363380E0,2.938870430E0
1.705298068E1,4.511236250E-1,3.048597097E0,3.186805248E0
1.706964662E1,3.284161687E-1,2.001422167E0,2.863581419E0
1.708631256E1,-6.700422764E-1,2.088012218E0,2.357174397E0
1.710297849E1,-1.649258494E0,2.930852890E0,1.888335705E0
1.711964443E1,-2.063806772E0,3.617235899E0,1.305799842E0
1.713631037E1,-1.948734999E0,3.483150959E0,9.689842463E-1
1.715297631E1,-1.515708208E0,2.399018764E0,7.942005992E-1
1.716964224E1,-7.822123766E-1,8.688787818E-1,6.664534807E-1
1.718630818E1,-4.489856213E-2,-2.569449842E-1,9.029344916E-1
1.720297412E1,1.088790059E0,-1.007621408E0,1.263421059E0
1.721964006E1,2.716057539E0,-1.725158453E0,1.412701130E0
1.723630599E1,4.171519279E0,-2.407265425E0,1.301752806E0
1.725297193E1,4.802313328E0,-2.635728836E0,1.089401007E0
1.726963787E1,4.581867695E0,-2.274096966E0,9.682206511E-1
1.728630381E1,3.876013279E0,-1.474703908E0,9.002619982E-1
1.730296974E1,3.125718832E0,-5.250383019E-1,8.101593852E-1
1.731963568E1,2.516686440E0,2.535088956E-1,6.441569328E-1
1.733630162E1,2.092669964E0,6.532435417E-1,2.545779049E-1
1.735296756E1,1.831830740E0,8.035162687E-1,-3.636936247E-1
1.736963349E1,1.461035848E0,7.783181071E-1,-9.693660736E-1
1.738629943E1,1.089630008E0,8.800270557E-1,-1.071304083E0
1.740296537E1,7.728202939E-1,1.057559609E0,-1.035644889E0
1.741963131E1,3.811032772E-1,1.052901864E0,-1.609323263E0
1.743629724E1,-2.018144578E-1,9.128610492E-1,-2.717737436E0
1.745296318E1,-1.083521366E0,1.232725143E0,-3.731009245E0
1.746962912E1,-2.045557022E0,2.257450819E0,-4.570872307E0
1.748629506E1,-2.403218508E0,3.486052513E0,-5.176926136E0
1.750296099E1,-1.874133110E0,4.290484905E0,-5.261454582E0
1.751962693E1,-7.948877811E-1,4.220464706E0,-4.217410564E0
1.753629287E1,8.929315805E-1,2.634583473E0,-2.650160551E0
1.755295881E1,2.933525324E0,1.559995860E-1,-1.898873210E0
1.756962474E1,4.004600525E0,-1.159726739E0,-2.142302752E0
1.758629068E1,3.149771452E0,-6.622537971E-1,-2.374202251E0
1.760295662E1,1.560683131E0,4.082867503E-1,-2.142684460E0
1.761962256E1,4.132500291E-1,5.656607747E-1,-1.661552191E0
1.763628849E1,-4.353938699E-1,1.908952445E-1,-1.133077860E0
1.765295443E1,-1.220889568E0,1.427896414E-2,-7.319687009E-1
1.766962037E1,-1.687055826E0,7.330377400E-2,-3.575085998E-1
1.768628631E1,-1.505705357E0,5.288561583E-1,-3.428478539E-2
1.770295224E1,-6.170498133E-1,1.194011569E0,1.957821548E-1
1.771961818E1,6.643918157E-1,1.676060200E0,3.391826749E-1
1.773628412E1,1.964464784E0,1.524031281E0,5.067123175E-1
1.775295006E1,2.907410860E0,7.399099469E-1,7.413607836E-1
1.776961599E1,3.120373726E0,-2.060905099E-1,1.004185319E0
1.778628193E1,2.510196209E0,-8.403208852E-1,1.305723429E0
1.780294787E1,1.271667719E0,-7.599157691E-1,1.652007461E0
1.781961381E1,-2.451858521E-1,2.055560052E-1,2.044487953E0
1.783627974E1,-1.541211843E0,1.528154612E0,2.373286009E0
1.785294568E1,-2.099007845E0,2.485608816E0,2.461555958E0
1.786961162E1,-1.994549870E0,2.323271513E0,2.278373003E0
1.788627756E1,-2.006690741E0,7.498365045E-1,2.380311012E0
1.790294349E1,-2.838306904E0,-1.760894060E0,3.156796455E0
1.791960943E1,-4.041710377E0,-3.241095781E0,3.233307362E0
1.793627537E1,-5.120497704E0,-2.441473722E0,1.969657183E0
1.795294131E1,-5.413712978E0,-8.139009476E-1,6.938660145E-1
1.796960724E1,-4.015825272E0,-8.509346247E-1,-2.568686306E-1
1.798627318E1,-1.653305531E0,-1.974467635E0,-7.430406213E-1
1.800293912E1,4.214967042E-2,-2.562348604E0,-1.027016401E0
1.801960506E1,8.172607422E-1,-2.634278059E0,-9.000328779E-1
1.803627099E1,9.453896284E-1,-2.596862555E0,-7.681624591E-2
1.805293693E1,5.679515004E-1,-2.359999657E0,9.626465440E-1
1.806960287E1,-9.269873053E-2,-1.934226990E0,1.791284561E0
1.808626881E1,-6.934078932E-1,-1.536859393E0,2.075794935E0
1.810293474E1,-8.917098641E-1,-1.203556299E0,1.535714030E0
1.811960068E1,-8.379537463E-1,-5.129737258E-1,3.089448512E-1
1.813626662E1,-7.939714789E-1,4.778489769E-1,-8.964440823E-1
1.815293256E1,-2.428187430E-1,1.503261805E0,-1.656970739E0
1.816959849E1,1.285030365E0,2.420857191E0,-1.904294610E0
1.818626443E1,3.197571754E0,3.017061234E0,-1.768759012E0
1.820293037E1,4.456640244E0,3.044626474E0,-1.573129535E0
1.821959631E1,4.585685730E0,2.974758863E0,-1.618638992E0
1.823626224E1,4.206033230E0,2.752480268E0,-1.304349065E0
1.825292818E1,3.732765675E0,1.780823588E0,-7.635809743E-5
1.826959412E1,2.766224861E0,6.202568412E-1,6.535489559E-1
1.828626006E1,1.066035390E0,2.557996213E-1,-5.342776179E-1
1.830292599E1,-5.577958822E-1,1.805868983E0,-2.112446785E0
1.831959193E1,-7.035635114E-1,3.346928120E0,-2.665737629E0
1.833625787E1,5.207622051E-1,3.235827208E0,-2.478889227E0
1.835292381E1,1.832136154E0,2.052047491E0,-1.776929259E0
1.836958974E1,2.267377377E0,1.203632712E0,-9.405790567E-1
1.838625568E1,2.007988930E0,9.901354313E-1,-2.731329203E-1
1.840292162E1,1.479972601E0,9.141591191E-1,3.172678947E-1
1.841958756E1,8.788053393E-1,9.343940616E-1,7.221949100E-1
1.843625349E1,4.818195999E-1,1.055039883E0,9.031635523E-1
1.845291943E1,5.581013560E-1,1.112537503E0,9.789871573E-1
1.846958537E1,9.932661057E-1,8.898772597E-1,9.753983617E-1
1.848625131E1,1.438052058E0,3.685805500E-1,8.830813766E-1
1.850291724E1,1.487913847E0,-4.763218164E-1,8.584177494E-1
1.851958318E1,9.632573724E-1,-1.365970016E0,1.013501048E0
1.853624912E1,-1.503490955E-1,-2.029598236E0,1.311221242E0
1.855291506E1,-1.379332662E0,-2.060523272E0,1.562744856E0
1.856958099E1,-2.217286348E0,-1.411784887E0,1.630169034E0
1.858624693E1,-2.644204617E0,-8.899536133E-1,1.604054570E0
1.860291287E1,-2.846706152E0,-1.637499452E0,2.334496021E0
1.861957881E1,-2.850982189E0,-4.016436100E0,4.239783287E0
1.863624474E1,-2.722777128E0,-5.668061733E0,5.228391647E0
1.865291068E1,-3.378769398E0,-2.982852697E0,3.173213482E0
1.866957662E1,-3.940917730E0,1.436677575E0,3.199404180E-1
1.868624256E1,-2.570748091E0,1.905592680E0,-9.695187807E-1
1.870290849E1,-8.857539296E-2,-1.262962967E-1,-1.091539025E0
1.871957443E1,1.435379505E0,-1.657810688E0,-6.447677612E-1
1.873624037E1,1.488830209E0,-1.893069983E0,-9.529490769E-2
1.875290631E1,7.192169428E-1,-1.459890485E0,2.945895493E-1
1.876957224E1,-2.750418782E-1,-9.317978621E-1,5.659661889E-1
1.878623818E1,-1.137888312E0,-4.667770565E-1,8.374956250E-1
1.880290412E1,-1.687513947E0,-1.237001196E-1,9.124792814E-1
1.881957006E1,-1.743789911E0,-6.406444311E-2,4.941132367E-1
1.883623599E1,-1.378645420E0,-1.328630932E-2,-2.004400045E-1
1.885290193E1,-7.628937364E-1,3.029889166E-1,-9.336304665E-1
1.886956787E1,1.764635593E-1,8.030580878E-1,-1.620624304E0
1.888623381E1,1.317024469E0,1.625511169E0,-1.971031547E0
1.890289974E1,2.332739830E0,2.119929790E0,-1.997222424E0
1.891956568E1,3.122664452E0,1.713093877E0,-1.958814263E0
1.893623162E1,3.587303400E0,8.355103135E-1,-2.100611210E0
1.895289756E1,3.593412161E0,1.347720474E-1,-2.370766163E0
1.896956349E1,2.899011612E0,-3.856847584E-1,-1.794033527E0
1.898622943E1,1.289077401E0,-6.094903350E-1,-1.089553714E0
1.900289537E1,-7.444151044E-1,2.557996213E-1,-1.814802885E0
1.901956131E1,-2.180558205E0,1.709199667E0,-2.834947109E0
1.903622724E1,-2.515006542E0,2.466290236E0,-3.126176834E0
1.905289318E1,-1.820300698E0,2.381074667E0,-2.723845959E0
1.906955912E1,-4.689150751E-1,1.835801363E0,-1.924147725E0
1.908622506E1,8.520036340E-1,1.236466646E0,-1.059697628E0
1.910289099E1,1.666744590E0,8.856012225E-1,-4.118755758E-1
1.911955693E1,2.135125160E0,8.565851450E-1,-4.100430012E-2
1.913622287E1,2.688263178E0,1.152778149E0,2.816850245E-1
1.915288881E1,3.330587387E0,1.559308648E0,6.243801713E-1
1.916955474E1,3.886474371E0,1.968511701E0,7.564033270E-1
1.918622068E1,3.943819284E0,2.150778532E0,6.152935624E-1
1.920288662E1,3.146793604E0,1.488524795E0,3.231474757E-1
1.921955256E1,1.210352182E0,1.601992846E-1,3.305542171E-1
1.923621849E1,-1.504101753E0,-9.285144806E-1,8.510873318E-1
1.925288443E1,-3.755902052E0,-1.220355153E0,1.185917616E0
1.926955037E1,-5.012832642E0,-6.624065042E-1,1.048243999E0
1.928621631E1,-5.611174583E0,1.773035079E-1,1.657199740E0
1.930288224E1,-5.303070068E0,-1.084590435E0,3.611967087E0
1.931954818E1,-2.992932081E0,-4.123719215E0,4.110127449E0
1.933621412E1,-2.816086709E-1,-4.463512421E0,2.632598162E0
1.935288006E1,-1.160643063E-2,-1.575802088E0,1.021442294E0
1.936954599E1,-6.543125510E-1,8.345940113E-1,-1.324049383E-1
1.938621193E1,-1.057788730E0,1.048167586E0,-6.223948598E-1
1.940287787E1,-1.313435674E0,1.708894223E-1,-4.203513265E-1
1.941954381E1,-1.508377910E0,-6.890554428E-1,2.960403562E-1
1.943620974E1,-1.542433619E0,-1.270904183E0,1.109406829E0
1.945287568E1,-1.405523539E0,-1.515708208E0,1.842062712E0
1.946954162E1,-1.195767760E0,-1.396207809E0,2.423147917E0
1.948620756E1,-8.189405799E-1,-1.308395982E0,2.457356215E0
1.950287349E1,-1.822667718E-1,-1.578398228E0,1.944382548E0
1.951953943E1,1.263726503E-1,-1.625816584E0,1.361083031E0
1.953620537E1,-9.315688163E-2,-1.122464061E0,9.485203028E-1
1.955287131E1,-3.491092324E-1,-2.989419401E-1,6.126973629E-1
1.956953724E1,-2.582430840E-1,6.038398147E-1,2.612974048E-1
1.958620318E1,2.912297845E-1,1.403690934E0,-2.009745091E-1
1.960286912E1,1.399262190E0,1.803654671E0,-7.717512846E-1
1.961953506E1,2.541197538E0,1.980881810E0,-1.267849803E0
1.963620099E1,2.969719172E0,2.444451809E0,-1.421558738E0
1.965286693E1,2.701702118E0,2.490419388E0,-6.795107126E-1
1.966953287E1,1.717064500E0,7.900008559E-1,9.690605998E-1
1.968619881E1,1.223104000E0,-1.397735000E0,1.830532670E0
1.970286474E1,1.595349789E0,-2.603505611E0,8.038216829E-1
1.971953068E1,1.473253131E0,-5.209913254E-1,-1.231656075E0
1.973619662E1,3.488801420E-1,3.035005331E0,-2.600069523E0
1.975286256E1,-2.441168427E-1,4.853473186E0,-2.916421175E0
1.976952849E1,1.979965419E-1,4.655247688E0,-2.625420570E0
1.978619443E1,1.300225735E0,3.202993155E0,-1.740277410E0
1.980286037E1,2.613966703E0,1.479056358E0,-5.855138898E-1
1.981952631E1,3.724213600E0,2.625955045E-1,2.435059696E-1
1.983619224E1,4.367683411E0,-3.820195496E-1,5.006800294E-1
1.985285818E1,4.499171734E0,-8.050433993E-1,2.479347438E-1
1.986952412E1,4.117686749E0,-1.054276228E0,-3.410916328E-1
1.988619006E1,3.145037413E0,-9.862411618E-1,-9.711222649E-1
1.990285599E1,1.616806388E0,-5.939896107E-1,-1.455843449E0
1.991952193E1,-3.197877109E-1,-4.161516204E-2,-1.670409799E0
1.993618787E1,-2.155359983E0,2.283870727E-1,-1.558850527E0
1.995285381E1,-3.204443932E0,-4.253146052E-2,-1.142775297E0
1.996951974E1,-3.163974047E0,-6.304888129E-1,-4.622719288E-1
1.998618568E1,-2.652145863E0,-1.457141519E0,4.485274553E-1
2.000285162E1,-2.723006010E0,-2.389932156E0,1.498909473E0
2.001951756E1,-4.174497128E0,-3.269806385E0,2.683681726E0
2.003618349E1,-6.467301846E0,-4.199466228E0,4.558349133E0
2.005284943E1,-7.613894939E0,-4.894401550E0,6.386591434E0
2.006951537E1,-6.302291870E0,-3.627696753E0,6.860011578E0
2.008618131E1,-4.443430424E0,-3.956876695E-1,5.376373768E0
2.010284724E1,-2.146502495E0,1.632001638E0,2.889848471E0
2.011951318E1,-1.931096315E-1,7.192169428E-1,1.287626624E0
2.013617912E1,1.853974611E-1,-6.928733587E-1,1.008690476E0
2.015284506E1,-1.750891209E-1,-9.775363803E-1,1.262122989E0
2.016951099E1,-6.091849208E-1,-6.117047071E-1,1.476231098E0
2.018617693E1,-9.961677194E-1,-1.902080178E-1,1.722791433E0
2.020284287E1,-1.295186043E0,1.456148922E-1,1.996458769E0
2.021950881E1,-1.377729177E0,2.205985487E-1,2.101985693E0
2.023617474E1,-1.100701928E0,-1.640935540E-1,1.817704558E0
2.025284068E1,-5.606974959E-1,-9.303470850E-1,1.178510904E0
2.026950662E1,-8.116865903E-2,-1.624213099E0,5.503128171E-1
2.028617256E1,2.375500351E-1,-1.830379963E0,1.027780026E-1
2.030283849E1,4.925860763E-1,-1.483179688E0,-6.834049523E-2
2.031950443E1,7.795398235E-1,-8.062651753E-1,-4.657844082E-2
2.033617037E1,1.309541345E0,-1.853974611E-1,-1.143080741E-1
2.035283631E1,1.884136081E0,1.892917305E-1,-3.105483949E-1
2.036950224E1,2.212934017E0,3.398698866E-1,-5.513054729E-1
2.038616818E1,2.219500780E0,2.990946770E-1,-7.633519173E-1
2.040283412E1,1.884670615E0,1.499672979E-1,-8.553634286E-1
2.041950006E1,1.307479739E0,-1.656207144E-1,-6.958513260E-1
2.043616599E1,6.674461365E-1,-9.752455950E-1,-2.477056682E-1
2.045283193E1,1.557705179E-2,-2.005850792E0,4.090503156E-1
2.046949787E1,-4.482220411E-1,-2.543717384E0,5.994110703E-1
2.048616381E1,-9.281326532E-1,-1.139797330E0,-4.109592736E-1
2.050282974E1,-1.678274632E0,1.610697746E0,-2.336023331E0
2.051949568E1,-1.825111270E0,4.229703903E0,-3.866010427E0
2.053616162E1,-1.608330607E0,5.679057121E0,-4.140059471E0
2.055282756E1,-1.177441835E0,5.983420372E0,-3.582569122E0
2.056949349E1,-2.806160152E-1,5.186089039E0,-2.716973782E0
2.058615943E1,1.115897179E0,3.619602919E0,-1.868253589E0
2.060282537E1,2.677420378E0,1.900782108E0,-1.294040680E0
2.061949131E1,4.102491379E0,2.587775886E-1,-1.164384604E0
2.063615724E1,5.133402348E0,-1.141019106E0,-1.304196358E0
2.065282318E1,5.475409985E0,-2.068235397E0,-1.320765972E0
2.066948912E1,5.195786953E0,-2.335717916E0,-1.315039158E0
2.068615506E1,4.584005833E0,-2.185750484E0,-1.520900607E0
2.070282099E1,3.745440960E0,-1.946902394E0,-1.931401730E0
2.071948693E1,2.652909279E0,-1.643684387E0,-2.295248032E0
2.073615287E1,1.419115186E0,-1.146975040E0,-2.479729176E0
2.075281881E1,1.818849891E-1,-6.120101213E-1,-2.349538565E0
2.076948474E1,-1.131856084E0,-1.575267613E-1,-2.057163477E0
2.078615068E1,-2.221486092E0,-3.833176568E-2,-1.699731231E0
2.080281662E1,-2.916344881E0,-5.010618567E-1,-1.161635756E0
2.081948256E1,-3.347080946E0,-1.322827697E0,-4.208094776E-1
2.083614849E1,-3.854709387E0,-2.259817839E0,6.916516423E-1
2.085281443E1,-4.676628113E0,-3.129612923E0,2.418795347E0
2.086948037E1,-5.349190235E0,-4.043695927E0,4.965261459E0
2.088614631E1,-5.384391308E0,-3.990474224E0,6.324053764E0
2.090281224E1,-4.562549114E0,-8.244383931E-1,4.479776859E0
2.091947818E1,-4.033387184E0,2.038074017E0,1.255556226E0
2.093614412E1,-2.994459152E0,2.015242815E0,-5.370265245E-1
2.095281006E1,-2.162461281E0,9.439387918E-1,-6.317868829E-1
2.096947599E1,-1.799073100E0,-9.926552325E-2,-5.337430909E-2
2.098614193E1,-1.615355492E0,-7.186824083E-1,4.321104586E-1
2.100280787E1,-1.458057880E0,-8.760564327E-1,6.988292933E-1
2.101947381E1,-1.361541271E0,-8.214604259E-1,7.120392323E-1
2.103613974E1,-1.350316644E0,-8.691841960E-1,4.008036554E-1
2.105280568E1,-1.407585144E0,-9.996802211E-1,-7.437278330E-2
2.106947162E1,-1.616348147E0,-9.705114365E-1,-5.073232055E-1
2.108613756E1,-1.946444273E0,-7.170788646E-1,-8.077923059E-1
2.110280349E1,-2.285092354E0,-2.448804229E-1,-1.096425891E0
2.111946943E1,-2.588845015E0,5.468766689E-1,-1.481881618E0
2.113613537E1,-2.700098753E0,1.257312417E0,-2.033797979E0
2.115280131E1,-2.483852625E0,1.617799044E0,-2.675740480E0
2.116946724E1,-2.235841513E0,1.762573957E0,-3.191997528E0
2.118613318E1,-2.128787279E0,1.814802885E0,-3.546986341E0
2.120279912E1,-2.024329424E0,1.808007002E0,-3.711308956E0
2.121946506E1,-1.853134632E0,1.833968759E0,-3.751931429E0
2.123613099E1,-1.706527114E0,1.715919137E0,-3.805534840E0
2.125279693E1,-1.717369914E0,9.012545943E-1,-3.886168957E0
2.126946287E1,-1.796324253E0,-2.183077931E-1,-4.020483017E0
2.128612881E1,-1.795942426E0,-3.310887218E-1,-4.190455914E0
2.130279474E1,-1.879096389E0,7.853430510E-1,-4.301862717E0
2.131946068E1,-2.038837671E0,2.345109940E0,-4.184652805E0
2.133612662E1,-2.034637928E0,3.612196207E0,-3.993146658E0
2.135279256E1,-1.963166714E0,4.100430012E0,-3.766668558E0
2.136945849E1,-1.766849995E0,3.782703876E0,-3.445964575E0
2.138612443E1,-1.442480803E0,3.146259069E0,-2.893361092E0
2.140279037E1,-9.916626215E-1,2.505614519E0,-2.087859392E0
2.141945631E1,-3.929387629E-1,1.979507327E0,-1.196989536E0
2.143612224E1,2.017380893E-1,1.520595193E0,-4.820486605E-1
2.145278818E1,6.294198036E-1,1.085735798E0,-5.268708803E-3
2.146945412E1,6.842449307E-1,6.486620307E-1,2.689332068E-1
2.148612006E1,5.024362803E-1,1.995237023E-1,3.344484568E-1
2.150278599E1,2.539670467E-1,-2.590830326E-1,3.362047076E-1
2.151945193E1,4.581485991E-4,-6.872228980E-1,3.185659945E-1
2.153611787E1,-1.524871141E-1,-9.815070033E-1,2.952004075E-1
2.155278381E1,-3.787361458E-2,-1.137735605E0,3.193295598E-1
2.156944974E1,1.672242284E-1,-1.452331066E0,2.916879356E-1
2.158611568E1,1.604283601E-1,-1.836335897E0,1.781434417E-1
2.160278162E1,-1.824194938E-1,-2.105650902E0,7.070759684E-2
2.161944756E1,-6.583595276E-1,-2.131459951E0,-4.886918142E-2
2.163611349E1,-1.024114847E0,-1.949345827E0,-2.720639110E-1
2.165277943E1,-1.114599109E0,-1.422398686E0,-4.839576185E-1
2.166944537E1,-1.024801970E0,-9.324087501E-1,-5.754346251E-1
2.168611131E1,-8.097012639E-1,-6.020836234E-1,-5.358811021E-1
2.170277724E1,-5.369501114E-1,-7.584649920E-1,-4.373791814E-1
2.171944318E1,-7.526617646E-1,-1.140560865E0,-5.523744822E-1
2.173610912E1,-9.820414782E-1,-1.512348533E0,-8.167262077E-1
2.175277506E1,-1.159574032E0,-1.462563038E0,-9.975422025E-1
2.176944099E1,-1.285183191E0,-1.204319954E0,-9.847140312E-1
2.178610693E1,-1.413770199E0,-7.589231133E-1,-8.702532649E-1
2.180277287E1,-1.541440964E0,-3.966803253E-1,-8.309288025E-1
2.181943881E1,-1.486310363E0,-3.776671588E-1,-9.036980867E-1
2.183610474E1,-1.170264244E0,-7.092903852E-1,-1.018387914E0
2.185277068E1,-8.518509269E-1,-1.156825185E0,-1.128801703E0
2.186943662E1,-7.696132660E-1,-1.352607369E0,-1.188971877E0
2.188610256E1,-8.604030609E-1,-1.148578525E0,-1.190346360E0
2.190276849E1,-9.879974127E-1,-7.725912333E-1,-1.134375930E0
2.191943443E1,-1.078863502E0,-4.425715208E-1,-1.090393662E0
2.193610037E1,-1.075885534E0,-2.945131958E-1,-1.134452224E0
2.195276631E1,-8.847612739E-1,-4.596757591E-1,-1.245858669E0
2.196943224E1,-6.641627550E-1,-7.534253597E-1,-1.324507594E0
2.198609818E1,-5.087739825E-1,-9.978476167E-1,-1.346422315E0
2.200276412E1,-3.716348708E-1,-1.154458046E0,-1.346575022E0
2.201943006E1,-2.824485898E-1,-1.134910345E0,-1.324125767E0
2.203609599E1,-3.097084463E-1,-8.560506105E-1,-1.281976104E0
2.205276193E1,-4.397462904E-1,-3.717112243E-1,-1.241888046E0
2.206942787E1,-5.526035428E-1,9.911280870E-2,-1.187368393E0
2.208609381E1,-5.768854022E-1,3.310887218E-1,-1.176067472E0
2.210275974E1,-5.435932875E-1,3.356702030E-1,-1.222187757E0
2.211942568E1,-4.696022868E-1,2.018144578E-1,-1.306639791E0
2.213609162E1,-3.775144219E-1,-1.023198478E-2,-1.374063969E0
2.215275756E1,-3.372737169E-1,-1.978438348E-1,-1.405447125E0
2.216942349E1,-3.209330738E-1,-3.636936247E-1,-1.415297389E0
2.218608943E1,-3.123809695E-1,-4.939605296E-1,-1.427743673E0
2.220275537E1,-2.869537175E-1,-4.859429300E-1,-1.439808249E0
2.221942131E1,-2.831358314E-1,-3.046688139E-1,-1.438510180E0
2.223608724E1,-3.643044829E-1,-4.199695215E-2,-1.372078657E0
2.225275318E1,-5.121337771E-1,2.070067972E-1,-1.224783897E0
2.226941912E1,-7.062360644E-1,4.179842174E-1,-1.066111803E0
2.228608506E1,-6.434696913E-1,3.838521540E-1,-9.393573403E-1
2.230275099E1,-3.730856776E-1,1.261435747E-1,-9.250019789E-1
2.231941693E1,6.719512399E-3,-1.659261435E-1,-9.134719372E-1
2.233608287E1,2.540434003E-1,-3.793470263E-1,-8.676570654E-1
