"Time (s)","Linear Acceleration x (m/s^2)","Linear Acceleration y (m/s^2)","Linear Acceleration z (m/s^2)"
4.816911800E-2,0.000000000E0,0.000000000E0,0.000000000E0
6.483505600E-2,-5.717873573E-3,-3.014206886E-2,-3.607749939E-3
8.150099300E-2,3.226995468E-4,-6.415724754E-2,9.805393219E-2
9.816693100E-2,-1.597046852E-3,-6.818675995E-2,2.170438766E-1
1.148328680E-1,2.411282063E-2,-1.162266731E-1,2.594909668E-1
1.314988060E-1,6.187558174E-2,-1.257135868E-1,3.476991653E-1
1.481647430E-1,5.850315094E-3,-5.351662636E-2,3.509960175E-1
1.648306810E-1,1.470463276E-1,-2.699780464E-2,1.686925888E-1
1.814966180E-1,3.286910057E-1,7.157897949E-2,7.247447968E-2
1.981625560E-1,3.506233692E-1,7.395410538E-2,1.248207092E-1
2.148284930E-1,2.436326742E-1,6.709837914E-2,-1.877784729E-3
2.314944310E-1,1.351891756E-1,1.009876728E-1,-1.171569824E-1
2.481603680E-1,1.236165762E-1,1.065447330E-1,-6.398391724E-2
2.648263060E-1,5.508661270E-2,1.419138908E-1,-9.649753571E-2
2.814922430E-1,-1.931905746E-2,1.522948742E-1,-1.648387909E-1
2.981581810E-1,9.105324745E-3,7.384729385E-2,-1.518411636E-1
3.148241180E-1,1.245115995E-1,3.738117218E-2,-2.634811401E-1
3.314900560E-1,2.527211905E-1,1.626634598E-2,-4.517726898E-1
3.481559930E-1,2.595856190E-1,-1.564478874E-2,-4.940738678E-1
3.648219310E-1,1.460360289E-1,-6.692743301E-2,-3.774423599E-1
3.814878680E-1,-2.688896656E-2,8.325242996E-2,-1.585102081E-1
3.981538060E-1,-1.719439030E-1,1.559457779E-1,-9.587383270E-2
4.148197430E-1,-5.477678776E-2,3.962237835E-1,-2.666254044E-1
4.314856810E-1,2.693144083E-1,6.583271027E-1,-4.527359009E-1
4.481516180E-1,6.359353065E-1,8.010187149E-1,-4.268960953E-1
4.648175560E-1,8.957136869E-1,9.471416473E-1,-1.296520233E-1
4.814834930E-1,9.442731142E-1,1.010125160E0,3.040151596E-1
4.981494310E-1,9.274395704E-1,1.027328730E0,9.294586182E-1
5.148153680E-1,8.841418028E-1,1.035198450E0,1.353487968E0
5.314813060E-1,7.554714680E-1,1.047746897E0,1.428950310E0
5.481472430E-1,6.011881828E-1,1.079560518E0,1.388451576E0
5.648131810E-1,4.418119192E-1,1.112264872E0,1.479404449E0
5.814791180E-1,4.269509315E-1,1.103095055E0,1.643215179E0
5.981450560E-1,4.919459820E-1,1.048051834E0,1.770364761E0
6.148109930E-1,6.138930321E-1,8.931241035E-1,1.714002609E0
6.314769310E-1,6.000877619E-1,7.038216591E-1,1.586688995E0
6.481428680E-1,3.257755041E-1,4.888958931E-1,1.440589905E0
6.648088060E-1,-4.123961926E-2,1.995434761E-1,1.541606903E0
6.814747430E-1,-3.873010874E-1,-1.451134682E-1,1.655657768E0
6.981406810E-1,-6.340454817E-1,-3.442642689E-1,1.446698189E0
7.148066180E-1,-5.529581308E-1,-4.327683449E-1,9.144773483E-1
7.314725560E-1,-4.393531084E-1,-4.948239326E-1,5.198116302E-1
7.481384930E-1,-4.786520004E-1,-6.445980072E-1,2.589683533E-1
7.648044310E-1,-6.390415430E-1,-9.312903881E-1,3.409204483E-1
7.814703680E-1,-1.111936450E0,-1.192163467E0,7.179498672E-1
7.981363060E-1,-1.568166018E0,-1.356339216E0,9.748735428E-1
8.148022430E-1,-1.710745573E0,-1.300229549E0,9.693088531E-1
8.314681810E-1,-1.701685905E0,-1.098285675E0,7.081985474E-1
8.481341180E-1,-1.773156881E0,-7.736463547E-1,3.121271133E-1
8.648000560E-1,-1.647736549E0,-5.082654953E-1,5.710601807E-3
8.814659930E-1,-1.382151365E0,-4.346137047E-1,1.718235016E-2
8.981319310E-1,-1.280702114E0,-4.013657570E-1,1.878080368E-1
9.147978680E-1,-1.152094483E0,-5.008888245E-1,4.787244797E-1
9.314638060E-1,-9.345233440E-1,-8.629398346E-1,7.045469284E-1
9.481297430E-1,-8.665214777E-1,-1.298608780E0,8.884921074E-1
9.647956810E-1,-9.896144867E-1,-1.528334618E0,9.739127159E-1
9.814616180E-1,-9.997197390E-1,-1.635648727E0,9.556117058E-1
9.981275560E-1,-7.826038599E-1,-1.702427864E0,6.725745201E-1
1.014793493E0,-4.549880028E-1,-1.784775734E0,2.427325249E-1
1.031459431E0,-1.111724377E-1,-1.832513809E0,-2.531199455E-1
1.048125368E0,-1.876263618E-1,-1.863563061E0,-6.429009438E-1
1.064791306E0,-4.319438934E-1,-1.933486462E0,-8.178944588E-1
1.081457243E0,-5.872527361E-1,-1.913354874E0,-9.144654274E-1
1.098123181E0,-4.848409891E-1,-1.831719875E0,-9.977226257E-1
1.114789118E0,-9.564018250E-2,-1.634662151E0,-9.865188599E-1
1.131455056E0,3.711218834E-1,-1.367285728E0,-1.152148724E0
1.148120993E0,4.965240955E-1,-1.156333447E0,-1.312558651E0
1.164786931E0,3.482527733E-1,-1.050920486E0,-1.393129826E0
1.181452868E0,2.196414471E-1,-9.591841698E-1,-1.401033878E0
1.198118806E0,3.481042385E-1,-8.368000984E-1,-1.504693031E0
1.214784743E0,6.605124474E-1,-6.967072487E-1,-1.526525497E0
1.231450681E0,7.756204605E-1,-6.271624565E-1,-1.480099678E0
1.248116618E0,6.826205254E-1,-5.275774002E-1,-1.050951004E0
1.264782556E0,6.075668335E-1,-5.024003983E-1,-7.876152992E-1
1.281448493E0,5.081303120E-1,-5.454449654E-1,-6.125364304E-1
1.298114431E0,3.374402523E-1,-8.119702339E-1,-5.331611633E-1
1.314780368E0,3.377914429E-3,-1.060914993E0,-6.132950783E-1
1.331446306E0,-4.509782791E-1,-8.850393295E-1,-1.225042343E0
1.348112243E0,-5.345740318E-1,-2.780776024E-1,-2.359109402E0
1.364778181E0,-9.066295624E-2,1.982865334E-1,-2.756499767E0
1.381444118E0,3.213655949E-1,4.674258232E-1,-2.298956871E0
1.398110056E0,5.641026497E-1,4.276084900E-1,-1.013985634E0
1.414775993E0,6.040816307E-1,3.094487190E-1,9.040212631E-2
1.431441931E0,4.266495705E-1,3.643469810E-1,6.922602654E-1
1.448107868E0,2.908837795E-1,9.113450050E-1,6.971530914E-1
1.464773806E0,5.316588879E-1,1.128155708E0,9.002590179E-2
1.481439743E0,7.176938057E-1,1.506893158E0,-3.596177101E-1
1.498105681E0,4.871721268E-1,1.548719883E0,-4.069218636E-1
1.514771618E0,7.704281807E-2,1.398486137E0,-8.783721924E-2
1.531437556E0,-2.551307678E-1,1.234255791E0,5.195093155E-1
1.548103493E0,-3.808767796E-1,1.042900562E0,8.921132088E-1
1.564769431E0,-2.409467697E-1,7.677955627E-1,1.002567291E0
1.581435368E0,5.827784538E-2,4.893507957E-1,9.104266167E-1
1.598101306E0,2.796428204E-1,2.797107697E-1,6.124138832E-1
1.614767243E0,2.886452675E-1,2.617979050E-2,5.136313438E-1
1.631433181E0,2.291464806E-1,-3.397283554E-1,5.325303078E-1
1.648099118E0,7.445955276E-2,-7.772593498E-1,6.898646355E-1
1.664765056E0,-9.392690659E-2,-1.032309532E0,8.911180496E-1
1.681430993E0,-1.312372684E-1,-1.149624825E0,8.172898293E-1
1.698096931E0,-9.925460815E-2,-1.104317665E0,6.489710808E-1
1.714762868E0,-2.342963219E-1,-7.805948257E-1,6.872987747E-2
1.731428806E0,-1.043624878E-1,-7.388687134E-1,-5.944294930E-1
1.748094743E0,8.421754837E-2,-8.280630112E-1,-8.234834671E-1
1.764760681E0,2.425704002E-1,-1.056226730E0,-9.153261185E-1
1.781426618E0,1.599485874E-1,-1.100524426E0,-5.624928474E-1
1.798092556E0,1.733913422E-1,-7.956409454E-1,-2.059397697E-1
1.814758493E0,8.617362976E-1,-3.528165817E-1,-3.684616089E-2
1.831424431E0,1.723623276E0,-6.135940552E-3,-2.989726067E-1
1.848090368E0,2.069525480E0,1.102371216E-1,-6.310653687E-1
1.864756306E0,1.697735071E0,1.729445457E-1,-8.995566368E-1
1.881422243E0,1.092982292E0,1.593589783E-1,-9.839329720E-1
1.898088181E0,5.361695290E-1,1.518797874E-1,-1.099051952E0
1.914754118E0,2.909131050E-1,1.800885201E-1,-1.110478878E0
1.931420056E0,1.771149635E-1,2.216572762E-1,-9.172620773E-1
1.948085993E0,3.010272980E-2,3.837609291E-1,-5.440707207E-1
1.964751931E0,7.866430283E-2,2.949414253E-1,-2.986288071E-1
1.981417868E0,1.715233326E-1,2.744679451E-1,-3.504257202E-1
1.998083806E0,3.218104839E-1,2.618207932E-1,-4.033908844E-1
2.014749743E0,4.688072205E-1,3.866577148E-1,-4.654588699E-1
2.031415681E0,6.635196209E-1,5.382752419E-1,-3.998003006E-1
2.048081618E0,7.053821087E-1,6.032190323E-1,-1.694302559E-1
2.064747556E0,5.040009022E-1,5.312032700E-1,1.317892075E-1
2.081413493E0,-2.777194977E-2,4.560317993E-1,5.615596771E-1
2.098079431E0,-5.144324303E-1,2.986388206E-1,8.166818619E-1
2.114745368E0,-7.752127647E-1,2.435464859E-1,7.331414223E-1
2.131411306E0,-6.800761223E-1,2.871665955E-1,2.597932816E-1
2.148077243E0,-5.956695080E-1,4.598412514E-1,-2.674579620E-1
2.164743181E0,-5.830376148E-1,6.305279732E-1,-3.216762543E-1
2.181409118E0,-4.684798717E-1,5.345335007E-1,-7.067680359E-3
2.198075056E0,-3.241598606E-1,2.985577583E-1,4.281921387E-1
2.214740993E0,-2.671449184E-1,-4.449653625E-2,6.514110565E-1
2.231406931E0,-3.664717674E-1,-2.811899185E-1,7.836627960E-1
2.248072868E0,-6.866600513E-1,-4.040656090E-1,7.137722969E-1
2.264738806E0,-9.814813137E-1,-4.102578163E-1,4.370837212E-1
2.281404743E0,-1.099544525E0,-3.425269127E-1,2.997169495E-1
2.298070681E0,-9.555013180E-1,-2.879104614E-1,9.648180008E-2
2.314736618E0,-6.457567215E-1,-2.589001656E-1,-4.966306686E-2
2.331402556E0,-2.738137245E-1,-2.628798485E-1,7.997035980E-3
2.348068493E0,1.939654350E-2,-2.068605423E-1,9.088134766E-2
2.364734431E0,4.307525158E-1,-6.774091721E-2,9.259462357E-2
2.381400368E0,8.348281384E-1,-1.838603020E-1,-1.548652649E-1
2.398066306E0,1.467957735E0,-6.761655807E-1,-3.530440331E-1
2.414732243E0,2.277570009E0,-1.370219231E0,-4.531421661E-1
2.431398181E0,2.185461760E0,-1.650037289E0,-1.372303963E-1
2.448064118E0,1.292466640E0,-1.290263176E0,3.986744881E-1
2.464730056E0,6.635832787E-1,-8.455567360E-1,3.457279205E-1
2.481395993E0,4.093177319E-1,-4.174656868E-1,-2.423028946E-1
2.498061931E0,1.147396564E-1,1.727390289E-2,-1.033141136E0
2.514727868E0,-4.903101921E-2,3.631720543E-1,-1.651666164E0
2.531393806E0,-1.651632786E-1,5.481629372E-1,-2.068778276E0
2.548059743E0,-2.104151249E-1,4.116659164E-1,-1.839843750E0
2.564725681E0,-2.756822109E-1,2.134733200E-1,-1.161773205E0
2.581391618E0,-2.775938511E-1,1.980023384E-1,-4.749855995E-1
2.598057556E0,-7.396602631E-2,4.114451408E-1,2.498722076E-2
2.614723493E0,4.642152786E-2,7.227454185E-1,1.915135384E-1
2.631389431E0,1.908588409E-2,8.220958710E-1,2.573838234E-1
2.648055368E0,-6.221055984E-2,6.766095161E-1,8.941793442E-2
2.664721306E0,-2.353446484E-1,5.094900131E-1,-3.149795532E-2
2.681387243E0,-3.116204739E-1,4.117984772E-1,-1.284656525E-1
2.698053181E0,-4.556066990E-1,4.180502892E-1,-2.057504654E-2
2.714719118E0,-7.030261755E-1,5.005402565E-1,2.532444000E-1
2.731385056E0,-9.452883005E-1,4.411554337E-1,5.310854912E-1
2.748050993E0,-1.196785927E0,2.699732780E-1,7.334709167E-1
2.764716931E0,-1.299595237E0,9.380292892E-2,8.269100189E-1
2.781382868E0,-1.308200717E0,-9.324979782E-2,8.107228279E-1
2.798048806E0,-1.208082676E0,-2.886114120E-1,7.769889832E-1
2.814714743E0,-1.144971609E0,-4.580645561E-1,7.572627068E-1
2.831380681E0,-1.062310219E0,-5.870766640E-1,9.217519760E-1
2.848046618E0,-8.207343817E-1,-5.789566040E-1,8.167648315E-1
2.864712556E0,-3.595184088E-1,-4.754772186E-1,5.096125603E-1
2.881378493E0,2.005767822E-1,-5.245895386E-1,2.571148872E-1
2.898044431E0,7.435956001E-1,-5.740804672E-1,7.526540756E-2
2.914710368E0,1.134387255E0,-5.304021835E-1,4.896593094E-2
2.931376306E0,1.397666693E0,-5.741553307E-1,-1.277256012E-2
2.948042243E0,1.668576956E0,-8.646297455E-1,-1.465005875E-1
2.964708181E0,1.806651831E0,-1.160017490E0,-3.788561821E-1
2.981374118E0,1.868988037E0,-1.341853619E0,-6.607732773E-1
2.998040056E0,1.730123758E0,-1.326099873E0,-1.014974117E0
3.014705993E0,1.379967690E0,-1.129637718E0,-1.278596401E0
3.031371931E0,9.557747841E-1,-9.231648445E-1,-1.428909779E0
3.048037868E0,6.537470818E-1,-7.025012970E-1,-1.666096687E0
3.064703806E0,5.876762867E-1,-4.701557159E-1,-2.096709728E0
3.081369743E0,7.182092667E-1,-4.138550758E-1,-2.578870773E0
3.098035681E0,6.532135010E-1,-5.964107513E-1,-2.786498308E0
3.114701618E0,5.899312496E-1,-1.088168621E0,-2.660116673E0
3.131367556E0,3.621914387E-1,-1.498976231E0,-2.431663513E0
3.148033493E0,-2.582824230E-2,-1.957084656E0,-1.851982594E0
3.164699431E0,-4.587415457E-1,-2.252227306E0,-1.415818691E0
3.181365368E0,-8.993813992E-1,-2.370005608E0,-1.892261505E0
3.198031306E0,-1.308907270E0,-2.154532433E0,-1.739337444E0
3.214697243E0,-1.336088419E0,-2.000225067E0,-1.198922634E0
3.231363181E0,-1.381655455E0,-1.758080006E0,-6.878361702E-1
3.248029118E0,-1.539192080E0,-1.280560493E0,-2.004551888E-1
3.264695056E0,-1.514196634E0,-6.656770706E-1,3.878116608E-2
3.281360993E0,-1.040095091E0,-3.635106087E-1,6.202263832E-1
3.298026931E0,-4.132363796E-1,-1.651463509E-1,1.273154736E0
3.314692868E0,-1.817740202E-1,5.180358887E-2,1.352451801E0
3.331358806E0,-3.463983536E-1,2.601408958E-1,1.213871956E0
3.348024743E0,-5.548360348E-1,3.296513557E-1,1.592787743E0
3.364690681E0,-7.876092792E-1,4.496345520E-1,1.959928513E0
3.381356618E0,-5.604958534E-1,3.888335228E-1,2.774462700E0
3.398022556E0,-2.279504538E-1,3.857235909E-1,3.214599609E0
3.414688493E0,6.647109985E-3,6.587367058E-1,3.047769547E0
3.431354431E0,5.296599865E-2,9.393429756E-1,2.514898300E0
3.448020368E0,2.850545645E-1,1.254021168E0,2.308834076E0
3.464686306E0,3.597502708E-1,1.460849285E0,1.870321274E0
3.481352243E0,2.526402473E-1,1.507024288E0,2.001645088E0
3.498018181E0,-8.030653000E-3,1.496236801E0,2.405188560E0
3.514684118E0,-8.778512478E-2,1.441387177E0,2.230257034E0
3.531350056E0,-3.246426582E-3,1.413058281E0,1.915381432E0
3.548015993E0,-9.379386902E-4,1.425106525E0,1.588249207E0
3.564681931E0,4.740202427E-2,1.366865873E0,1.191321373E0
3.581347868E0,1.113071442E-1,1.346024036E0,8.175907135E-1
3.598013806E0,4.736185074E-3,1.267872095E0,5.189857483E-1
3.614679743E0,-1.989256144E-1,1.195842266E0,4.333333969E-1
3.631345681E0,-2.365649939E-1,1.029831409E0,3.954687119E-1
3.648011618E0,-2.931234837E-1,8.477900028E-1,6.057586670E-1
3.664677556E0,-4.303686619E-1,6.555008888E-1,8.284826279E-1
3.681343493E0,-7.637106180E-1,5.170152187E-1,3.705549240E-1
3.698009431E0,-8.227059841E-1,3.714962006E-1,4.891281128E-1
3.714675368E0,-8.626797199E-1,2.283864021E-1,3.764352798E-1
3.731341306E0,-9.063793421E-1,1.125030518E-1,2.909803391E-1
3.748007243E0,-9.088858366E-1,4.329419136E-2,1.915874481E-1
3.764673181E0,-6.552754641E-1,1.946949959E-2,6.507873535E-2
3.781339118E0,-4.061444998E-1,5.329990387E-2,-4.836082458E-3
3.798005056E0,-2.605695724E-1,1.416873932E-2,4.010677338E-2
3.814670993E0,-1.579561234E-1,4.290390015E-2,1.158142090E-2
3.831336931E0,-1.539471149E-1,7.021856308E-2,-1.265258789E-1
3.848002868E0,-8.532381058E-2,6.945943832E-2,-3.489236832E-1
3.864668806E0,2.440452576E-3,2.370166779E-2,-3.898286819E-1
3.881334743E0,7.009410858E-2,1.879787445E-2,-3.272686005E-1
3.898000681E0,7.044625282E-2,-1.838207245E-2,-2.065353394E-1
3.914666618E0,8.893656731E-2,-5.380582809E-2,-1.225690842E-1
3.931332556E0,3.543853760E-3,-9.039425850E-2,-2.007074356E-1
3.947998493E0,-1.036300659E-1,-4.925131798E-2,-3.131341934E-1
3.964664431E0,-1.515555382E-1,-2.534389496E-2,-3.538131714E-1
3.981330368E0,-1.419117451E-1,4.625320435E-4,-3.220396042E-1
3.997996306E0,-1.002361774E-1,7.564544678E-3,-1.915655136E-1
4.014662243E0,2.442502975E-2,3.599810600E-2,-2.804851532E-2
4.031328181E0,1.458957195E-1,8.445048332E-2,1.031837463E-1
4.047994118E0,2.128975391E-1,1.236867905E-1,3.158922195E-1
4.064660056E0,2.519915104E-1,1.637241840E-1,4.779634476E-1
4.081325993E0,3.062400818E-1,2.276558876E-1,4.857444763E-1
4.097991931E0,4.840624332E-1,2.784395218E-1,3.509635925E-1
4.114657868E0,7.260832787E-1,3.193099499E-1,1.452770233E-1
4.131323806E0,8.199789524E-1,3.775603771E-1,-6.241607666E-2
4.147989743E0,8.253760338E-1,3.800630569E-1,-2.346696854E-1
4.164655681E0,7.747187614E-1,3.938221931E-1,-3.508071899E-1
4.181321618E0,6.488432884E-1,3.413310051E-1,-4.282989502E-1
4.197987556E0,5.943965912E-1,2.558166981E-1,-2.684621811E-1
4.214653493E0,4.560334682E-1,1.906409264E-1,-2.342872620E-1
4.231319431E0,3.250758648E-1,1.551234722E-1,-2.836341858E-1
4.247985368E0,2.494316101E-1,1.382825375E-1,-3.991861343E-1
4.264651306E0,2.257194519E-1,8.672451973E-2,-4.539756775E-1
4.281317243E0,1.917986870E-1,6.543612480E-2,-4.036722183E-1
4.297983181E0,7.990241051E-2,6.488561630E-3,-2.092552185E-1
4.314649118E0,8.690619469E-2,-7.855415344E-2,9.642601013E-3
4.331315056E0,-6.185770035E-3,-1.375551224E-1,6.482601166E-2
4.347980993E0,-2.566742897E-2,-1.581418514E-1,2.899169922E-3
4.364646931E0,-2.416944504E-2,-1.412577629E-1,-1.184806824E-1
4.381312868E0,-6.695032120E-2,-1.324274540E-1,-1.061525345E-1
4.397978806E0,-1.410584450E-1,-1.589682102E-1,-1.376142502E-1
4.414644743E0,-3.210191727E-1,-1.018946171E-1,-9.197807312E-2
4.431310681E0,-4.253544807E-1,-1.132280827E-1,9.658432007E-2
4.447976618E0,-2.607147694E-1,-1.424307823E-1,2.363138199E-1
4.464642556E0,-1.249032021E-1,-1.312525272E-1,2.722206116E-1
4.481308493E0,-9.694457054E-2,-1.037123203E-1,2.066402435E-1
4.497974431E0,-1.908767223E-1,-7.195401192E-2,1.705551147E-1
4.514640368E0,-2.579977512E-1,-4.747366905E-2,8.634853363E-2
4.531306306E0,-2.484097481E-1,2.116131783E-2,5.217933655E-2
4.547972243E0,-1.066884995E-1,4.427456856E-2,3.131484985E-2
4.564638181E0,7.034873962E-2,2.390432358E-2,9.235954285E-2
4.581304118E0,5.206537247E-2,1.529598236E-2,1.453523636E-1
4.597970056E0,-9.367203712E-2,1.477694511E-2,7.727241516E-2
4.614635993E0,-1.792104244E-1,4.752874374E-2,-6.556701660E-2
4.631301931E0,-2.393820286E-1,9.417748451E-2,-1.649751663E-1
4.647967868E0,-2.544438839E-1,6.617546082E-2,-2.356023788E-1
4.664633806E0,-2.529449463E-1,-9.778022766E-3,-2.684965134E-1
4.681299743E0,-3.332128525E-1,-2.654457092E-2,-2.490491867E-1
4.697965681E0,-2.794678211E-1,5.697441101E-2,-2.379302979E-1
4.714631618E0,-1.701560020E-1,1.348772049E-1,-1.547307968E-1
4.731297556E0,-3.963732719E-2,2.199120522E-1,-1.309776306E-2
4.747963493E0,2.931714058E-2,3.092010021E-1,4.244136810E-2
4.764629431E0,4.679274559E-2,3.765683174E-1,5.801486969E-2
4.781295368E0,2.650046349E-2,4.144122601E-1,1.352863312E-1
4.797961306E0,-6.735324860E-4,4.038600922E-1,1.569471359E-1
4.814627243E0,-5.965566635E-2,4.273149967E-1,9.359359741E-2
4.831293181E0,-1.157569885E-1,4.482367039E-1,-3.467273712E-2
4.847959118E0,-1.300096512E-1,4.458398819E-1,-6.415271759E-2
4.864625056E0,-1.105310917E-1,4.925777912E-1,-5.500125885E-2
4.881290993E0,-1.393837929E-1,5.249986649E-1,-7.868385315E-2
4.897956931E0,-2.168152332E-1,5.400774479E-1,-8.771038055E-2
4.914622868E0,-3.527133465E-1,5.700047016E-1,-9.314060211E-2
4.931288806E0,-5.308411121E-1,6.131854057E-1,-4.047966003E-2
4.947954743E0,-5.402963161E-1,5.854077339E-1,-9.865760803E-3
4.964620681E0,-4.910731316E-1,5.673904419E-1,1.011209488E-1
4.981286618E0,-5.438022614E-1,5.227744579E-1,2.262773514E-1
4.997952556E0,-7.270145416E-1,5.822322369E-1,1.807031631E-1
5.014618493E0,-7.837653160E-1,7.252013683E-1,2.193641663E-2
5.031284431E0,-5.888366699E-1,8.002476692E-1,-6.299877167E-2
5.047950368E0,-4.650154114E-1,8.086340427E-1,1.009273529E-2
5.064616306E0,-4.522047043E-1,7.719280720E-1,2.347106934E-1
5.081282243E0,-4.237918854E-1,7.020933628E-1,4.372072220E-1
5.097948181E0,-3.795309067E-1,6.293325424E-1,4.631490707E-1
5.114614118E0,-2.592999935E-1,5.747623444E-1,3.884782791E-1
5.131280056E0,-7.858490944E-2,6.179480553E-1,3.412370682E-1
5.147945993E0,9.281635284E-2,6.274847984E-1,3.232784271E-1
5.164611931E0,6.898307800E-2,6.682386398E-1,3.374528885E-1
5.181277868E0,3.826618195E-3,6.511418819E-1,3.298358917E-1
5.197943806E0,-4.262447357E-3,6.069233418E-1,2.067918777E-1
5.214609743E0,-3.610658646E-2,5.751986504E-1,-8.030033112E-2
5.231275681E0,-8.857083321E-2,5.619995594E-1,-4.303274155E-1
5.247941618E0,-1.912651062E-1,5.626239777E-1,-6.588068008E-1
5.264607556E0,-2.698097229E-1,4.923322201E-1,-7.559843063E-1
5.281273493E0,-2.496099472E-1,3.733716011E-1,-6.441679001E-1
5.297939431E0,-2.342147827E-1,2.491366863E-1,-4.745197296E-1
5.314605368E0,-3.495554924E-1,1.644525528E-1,-3.037538528E-1
5.331271306E0,-4.975399971E-1,1.221008301E-1,-2.656326294E-1
5.347937243E0,-4.696702957E-1,1.167371273E-1,-4.045438766E-1
5.364603181E0,-4.183177948E-1,1.106851101E-1,-5.449695587E-1
5.381269118E0,-3.632402420E-1,4.883098602E-2,-5.968379974E-1
5.397935056E0,-3.844161034E-1,-2.560591698E-2,-4.474000931E-1
5.414600993E0,-4.535055161E-1,-1.110756397E-1,-1.693620682E-1
5.431266931E0,-5.680475235E-1,-2.425980568E-1,7.825469971E-2
5.447932868E0,-5.763053894E-1,-4.001717567E-1,1.748828888E-1
5.464598806E0,-3.254828453E-1,-6.426768303E-1,1.168470383E-1
5.481264743E0,7.221198082E-2,-8.374545574E-1,-3.370475769E-2
5.497930681E0,2.561869621E-1,-9.959599972E-1,-1.478347778E-1
5.514596618E0,2.350156307E-1,-1.228906631E0,-2.162380219E-1
5.531262556E0,1.026761532E-1,-1.503627181E0,-3.517942429E-1
5.547928493E0,2.572751045E-2,-1.683165431E0,-5.266437531E-1
5.564594431E0,4.325492382E-1,-2.052843571E0,-5.693864822E-1
5.581260368E0,8.849492073E-1,-2.727344275E0,-6.741561890E-1
5.597926306E0,9.295763969E-1,-3.150184155E0,-8.097968102E-1
5.614592243E0,9.195868969E-1,-3.314255953E0,-1.199175358E0
5.631258181E0,1.096065044E0,-3.335908890E0,-1.606158733E0
5.647924118E0,1.378075838E0,-3.186947823E0,-1.596486092E0
5.664590056E0,1.626110792E0,-3.067327261E0,-1.602314472E0
5.681255993E0,1.921869755E0,-2.937826872E0,-1.571732044E0
5.697921931E0,2.336862087E0,-2.774805069E0,-1.356820583E0
5.714587868E0,2.815782070E0,-2.655418873E0,-1.203353405E0
5.731253806E0,2.976740360E0,-2.413764954E0,-1.095012665E0
5.747919743E0,2.798776150E0,-2.087977409E0,-9.441843033E-1
5.764585681E0,2.351708412E0,-1.711167455E0,-1.172214985E0
5.781251618E0,2.168406010E0,-1.242209077E0,-9.124488831E-1
5.797917556E0,2.255676270E0,-8.862754107E-1,-8.806595802E-1
5.814583493E0,2.556643963E0,-5.952019691E-1,-8.514833450E-1
5.831249431E0,2.719619274E0,-1.601310968E-1,-8.212251663E-1
5.847915368E0,2.873028278E0,2.728782892E-1,-6.876449585E-1
5.864581306E0,2.942418098E0,5.545864701E-1,-1.232647896E-1
5.881247243E0,2.830171585E0,6.840881705E-1,6.051130295E-1
5.897913181E0,2.495726585E0,8.488807678E-1,1.287391186E0
5.914579118E0,2.141115665E0,9.697940946E-1,1.788313866E0
5.931245056E0,1.903918743E0,1.160523057E0,1.840689659E0
5.947910993E0,1.604807377E0,1.416424274E0,1.670469284E0
5.964576931E0,1.059927940E0,1.756873846E0,1.611721992E0
5.981242868E0,5.131793022E-1,2.060812235E0,1.898183823E0
5.997908806E0,2.027225494E-1,2.286756277E0,2.509875774E0
6.014574743E0,-6.527233124E-2,2.516130447E0,3.230560780E0
6.031240681E0,-4.969377518E-1,2.813529491E0,3.820545197E0
6.047906618E0,-1.172987938E0,3.197869062E0,4.244766235E0
6.064572556E0,-1.865307331E0,3.760460138E0,4.379904270E0
6.081238493E0,-2.347634792E0,4.286973000E0,4.151573181E0
6.097904431E0,-2.699839592E0,4.764688969E0,3.811849594E0
6.114570368E0,-2.916430950E0,5.028076172E0,3.466854572E0
6.131236306E0,-3.451818228E0,5.229199409E0,3.183473587E0
6.147902243E0,-4.190182686E0,5.393635273E0,2.806977272E0
6.164568181E0,-4.588720322E0,5.476227760E0,2.094587326E0
6.181234118E0,-4.659985542E0,5.439404488E0,1.125101566E0
6.197900056E0,-4.774187088E0,5.317088604E0,6.409735680E-1
6.214565993E0,-4.877391815E0,5.005013943E0,9.666919708E-1
6.231231931E0,-4.990841866E0,4.658523560E0,1.792259216E0
6.247897868E0,-4.592956543E0,4.475910664E0,2.628445625E0
6.264563806E0,-3.042898417E0,4.417652130E0,3.975227833E0
6.281229743E0,-3.549199104E-1,4.475681782E0,6.318010807E0
6.297895681E0,3.036905766E0,4.052728653E0,8.706949234E0
6.314561618E0,6.377696514E0,3.020339966E0,1.028444958E1
6.331227556E0,8.113645554E0,2.043036699E0,1.095591831E1
6.347893493E0,8.876180649E0,6.003445387E-1,1.094307041E1
6.364559431E0,9.254312515E0,-1.383681655E0,9.834016800E0
6.381225368E0,8.930885315E0,-3.003714085E0,7.615391731E0
6.397891306E0,8.011642456E0,-4.409092903E0,5.017779350E0
6.414557243E0,6.283691406E0,-5.657200336E0,2.828528404E0
6.431223181E0,4.057779312E0,-6.802652359E0,1.024806976E0
6.447889118E0,2.010905266E0,-7.781728268E0,-8.589882851E-1
6.464555056E0,5.487232208E-1,-8.381414413E0,-2.751770496E0
6.481220993E0,-4.602808952E-1,-8.924617767E0,-4.798563957E0
6.497886931E0,-1.367794514E0,-9.764076233E0,-6.798634052E0
6.514552868E0,-2.614727736E0,-9.946190834E0,-8.238961220E0
6.531218806E0,-3.513923407E0,-9.838676453E0,-9.406461716E0
6.547884743E0,-4.262646675E0,-9.362800598E0,-1.001570511E1
6.564550681E0,-4.850386620E0,-8.931922913E0,-9.915351868E0
6.581216618E0,-4.737413883E0,-8.444760323E0,-9.762563705E0
6.597882556E0,-2.885354996E0,-7.912778378E0,-1.048284721E1
6.614548493E0,-6.288723946E-1,-7.190605164E0,-1.143376064E1
6.631214431E0,6.904897690E-1,-6.429342270E0,-1.006298447E1
6.647880368E0,2.053047657E0,-5.867475033E0,-7.339042187E0
6.664546306E0,4.444523811E0,-3.706136465E0,-3.044893503E0
6.681212243E0,9.861165047E0,-6.389729977E-1,3.852907181E0
6.697878181E0,1.586370659E1,7.809855938E-1,1.045470810E1
6.714544118E0,1.641557312E1,3.681569099E-1,1.739648247E1
6.731210056E0,1.210466290E1,2.167530537E0,2.128413010E1
6.747875993E0,8.183609962E0,3.717141151E0,1.879804611E1
6.764541931E0,4.981284618E0,4.316681862E0,1.370723438E1
6.781207868E0,7.044491768E-1,4.586677074E0,8.587255478E0
6.797873806E0,-3.243520260E0,4.923057079E0,3.839740276E0
6.814539743E0,-5.792093754E0,5.466555595E0,-3.531298637E-1
6.831205681E0,-6.853591919E0,5.668427467E0,-2.498752356E0
6.847871618E0,-7.593890190E0,5.600872517E0,-2.888676405E0
6.864537556E0,-8.308788300E0,5.416364670E0,-2.462689161E0
6.881203493E0,-8.165292740E0,5.308876038E0,-1.729127169E0
6.897869431E0,-6.982214451E0,5.601698875E0,-1.178559065E0
6.914535368E0,-6.731887817E0,6.298139572E0,-1.361840487E0
6.931201306E0,-8.297152519E0,6.529877186E0,-1.498071671E0
6.947867243E0,-1.026977539E1,5.706147194E0,-1.212101221E0
6.964533181E0,-1.063559437E1,4.276646614E0,-4.951319695E-1
6.981199118E0,-8.896491051E0,2.766608238E0,5.514416695E-1
6.997865056E0,-6.230843067E0,2.136906385E0,1.867858887E0
7.014530993E0,-3.158297062E0,2.409742355E0,2.275077820E0
7.031196931E0,-1.354598999E-1,4.615910530E0,1.506111145E0
7.047862868E0,2.110075951E0,8.143259048E0,1.498656273E0
7.064528806E0,6.202510357E0,1.211914921E1,5.508797646E0
7.081194743E0,1.476196671E1,1.189297104E1,1.128339195E1
7.097860681E0,2.106596184E1,8.200361252E0,1.298845387E1
7.114526618E0,2.129309464E1,3.403162956E0,1.254732227E1
7.131192556E0,1.610915756E1,-1.754274845E0,1.148596954E1
7.147858493E0,9.244680405E0,-6.352407455E0,9.832605362E0
7.164524431E0,3.183780193E0,-9.818797112E0,7.195899010E0
7.181190368E0,-1.026541710E0,-1.234085464E1,2.879258156E0
7.197856306E0,-2.857413769E0,-1.404561615E1,-1.105072498E0
7.214522243E0,-3.876696348E0,-1.508447456E1,-4.584079266E0
7.231188181E0,-4.165380001E0,-1.534854603E1,-6.873485565E0
7.247854118E0,-3.923388720E0,-1.530558586E1,-8.013280869E0
7.264520056E0,-4.325409889E0,-1.520703602E1,-9.533338547E0
7.281185993E0,-4.608860016E0,-1.451639652E1,-9.620041847E0
7.297851931E0,-5.921699047E0,-1.294345093E1,-9.360094070E0
7.314517868E0,-6.032056808E0,-1.046221352E1,-9.423763275E0
7.331183806E0,-5.607978344E0,-9.099195480E0,-9.253913879E0
7.347849743E0,-3.472697973E0,-9.055345535E0,-8.244102478E0
7.364515681E0,-1.872210979E0,-8.080865860E0,-6.478954792E0
7.381181618E0,1.058458805E0,-7.442998409E0,-5.944580078E0
7.397847556E0,4.172277451E0,-6.737002373E0,-5.137707233E0
7.414513493E0,5.016774178E0,-3.067313671E0,-2.234194517E0
7.431179431E0,6.893575191E0,2.525170326E0,7.782969952E0
7.447845368E0,1.218832207E1,4.303822041E0,2.457886124E1
7.464511306E0,1.713298798E1,3.965442657E0,3.453760529E1
7.481177243E0,1.597306538E1,5.206193447E0,2.809404945E1
7.497843181E0,9.096284866E0,8.546037674E0,1.635401535E1
7.514509118E0,3.221366405E0,9.234741211E0,6.489711285E0
7.531175056E0,-3.167424202E-1,8.308178902E0,1.129333019E0
7.547840993E0,-2.237004757E0,7.054436684E0,-1.094558716E0
7.564506931E0,-3.532107353E0,6.335436821E0,-1.329563141E0
7.581172868E0,-5.103049278E0,6.167032719E0,-1.870821476E0
7.597838806E0,-7.053663731E0,6.944984436E0,-2.882650614E0
7.614504743E0,-9.842607498E0,8.017492294E0,-3.085561752E0
7.631170681E0,-1.139547348E1,9.663717270E0,-2.021584749E0
7.647836618E0,-1.261158562E1,9.325741768E0,7.494826317E-1
7.664502556E0,-1.252890587E1,7.465175629E0,2.317725658E0
7.681168493E0,-1.238755798E1,5.856348515E0,2.849508286E0
7.697834431E0,-1.075888634E1,3.909938812E0,2.526854038E0
7.714500368E0,-7.482838631E0,2.842287064E0,2.411713600E0
7.731166306E0,-4.510304451E0,3.067955971E0,2.903021812E0
7.747832243E0,-2.147889614E0,4.225824356E0,5.531665802E0
7.764498181E0,6.135349274E-1,6.169434071E0,9.802201271E0
7.781164118E0,4.830148697E0,7.274068832E0,1.480693340E1
7.797830056E0,9.798202515E0,6.171715260E0,1.759430885E1
7.814495993E0,1.228379250E1,3.058524609E0,1.510434341E1
7.831161931E0,1.235942650E1,-3.750820160E-1,1.190798759E1
7.847827868E0,9.900601387E0,-4.215041161E0,9.889461517E0
7.864493806E0,7.047191620E0,-8.339394569E0,7.867022991E0
7.881159743E0,5.117842674E0,-1.172330666E1,3.442232847E0
7.897825681E0,3.772606134E0,-1.334233284E1,-3.103602171E0
7.914491618E0,3.097947598E0,-1.390553093E1,-9.021474838E0
7.931157556E0,2.389191628E0,-1.480370426E1,-9.725275993E0
7.947823493E0,5.616602898E-1,-1.676520538E1,-6.199401379E0
7.964489431E0,-2.000106096E0,-1.853594208E1,-2.562045336E0
7.981155368E0,-4.540186405E0,-1.862785339E1,-2.683492303E-1
7.997821306E0,-6.591523170E0,-1.767406082E1,-1.611709833E0
8.014487243E0,-7.749557495E0,-1.608016777E1,-6.628609657E0
8.031153181E0,-7.211459160E0,-1.435435581E1,-9.486820221E0
8.047819118E0,-3.928643942E0,-1.346428299E1,-9.262106895E0
8.064485056E0,1.828521252E0,-1.292968750E1,-7.309763908E0
8.081150993E0,7.130136490E0,-1.143907070E1,-4.887576580E0
8.097816931E0,8.451303482E0,-6.431259155E0,-2.083373070E-2
8.114482868E0,1.249365807E1,1.860983372E0,8.518905640E0
8.131148806E0,2.574337959E1,7.797539234E0,1.376213360E1
8.147814743E0,3.351863861E1,1.086392403E1,1.164487743E1
8.164480681E0,2.618705368E1,1.251753235E1,8.764663696E0
8.181146618E0,1.445246792E1,1.105926991E1,8.779638290E0
8.197812556E0,5.829649925E0,8.790604591E0,8.281112671E0
8.214478493E0,8.652305603E-2,6.663321018E0,5.758866310E0
8.231144431E0,-4.361904144E0,5.834929466E0,2.595228434E0
8.247810368E0,-6.939753532E0,5.767218113E0,-2.575051785E-1
8.264476306E0,-7.712019920E0,5.606295109E0,-2.048493385E0
8.281142243E0,-7.784738064E0,5.222305298E0,-2.378159046E0
8.297808181E0,-7.937870979E0,4.743613243E0,-1.917616367E0
8.314474118E0,-9.026413918E0,4.624659538E0,-1.467983723E0
8.331140056E0,-1.073551559E1,5.115066528E0,-1.362553954E0
8.347805993E0,-1.114415455E1,5.901334763E0,-6.749434471E-1
8.364471931E0,-8.271668434E0,7.071046829E0,9.627034664E-1
8.381137868E0,-2.877582073E0,8.897230148E0,3.288149595E0
8.397803806E0,9.254550934E-2,1.117436314E1,4.873353958E0
8.414469743E0,-5.170974731E-1,1.002826309E1,4.090456009E0
8.431135681E0,-2.124471188E0,8.024662018E0,5.819937229E0
8.447801618E0,-3.194619179E0,8.524042130E0,8.761866570E0
8.464467556E0,-3.112554550E-2,9.386889458E0,8.770168304E0
8.481133493E0,3.306960106E0,1.026483917E1,5.737568378E0
8.497799431E0,7.172173023E0,1.128589725E1,2.748635530E0
8.514465368E0,1.223194408E1,9.387885094E0,1.877627134E0
8.531131306E0,1.522195435E1,4.539772034E0,3.043127775E0
8.547797243E0,1.422337914E1,-6.786861420E-1,5.034982681E0
8.564463181E0,1.125835896E1,-6.213459969E0,6.342564583E0
8.581129118E0,8.337985039E0,-1.126133347E1,6.266815662E0
8.597795056E0,6.373114586E0,-1.540359116E1,4.370722771E0
8.614460993E0,4.986087322E0,-1.839513779E1,9.436011314E-1
8.631126931E0,4.449174881E0,-1.984564209E1,-3.012466431E0
8.647792868E0,3.273917675E0,-1.928152084E1,-7.176890373E0
8.664458806E0,4.892396927E-1,-1.691791344E1,-1.054817390E1
8.681124743E0,-1.126984596E0,-1.363687706E1,-1.110935688E1
8.697790681E0,3.668291569E-1,-1.101397038E1,-9.413297653E0
8.714456618E0,3.043260574E0,-9.364275932E0,-7.846752167E0
8.731122556E0,4.095622063E0,-7.991737843E0,-6.161188126E0
8.747788493E0,3.224961758E0,-6.797445297E0,-3.959823608E0
8.764454431E0,9.059617519E-1,-5.465812683E0,-2.042524099E0
8.781120368E0,-1.539165974E0,-3.444850922E0,-4.213955402E-1
8.797786306E0,-3.617286682E0,2.572002411E-1,1.925482750E-1
8.814452243E0,-2.333535671E0,4.655044556E0,1.595135450E0
8.831118181E0,5.425490379E0,5.826560497E0,3.962730646E0
8.847784118E0,1.221110153E1,5.755921364E0,6.400436401E0
8.864450056E0,1.064034176E1,5.673769951E0,5.136816025E0
8.881115993E0,3.699008465E0,6.044485569E0,2.985180378E0
8.897781931E0,-3.982984304E0,7.584290028E0,1.704677343E0
8.914447868E0,-7.854370117E0,9.040863991E0,1.895993948E0
8.931113806E0,-8.043175697E0,9.194040298E0,3.114539623E0
8.947779743E0,-7.873186588E0,8.333494186E0,3.950594425E0
8.964445681E0,-6.405890465E0,6.281432629E0,4.129875183E0
8.981111618E0,-5.088450432E0,3.855046272E0,3.941032410E0
8.997777556E0,-5.147143841E0,9.618802071E-1,2.888154745E0
9.014443493E0,-5.756543636E0,-1.891752243E0,9.797589779E-1
9.031109431E0,-5.917279243E0,-4.177551270E0,-8.480403423E-1
9.047775368E0,-5.349815845E0,-5.469296932E0,-2.130553722E0
9.064441306E0,-4.984516144E0,-5.367029667E0,-3.633428335E0
9.081107243E0,-4.815349579E0,-3.285170555E0,-4.422203064E0
9.097773181E0,-4.974431992E0,2.630435944E0,-5.144554615E0
9.114439118E0,-5.403361320E-1,9.647176743E0,-1.857520938E0
9.131105056E0,1.023373032E1,1.212080574E1,5.066139698E0
9.147770993E0,1.783095741E1,1.381982613E1,1.068041229E1
9.164436931E0,1.992992401E1,1.546139908E1,1.262076664E1
9.181102868E0,2.156386566E1,1.587901115E1,1.464847469E1
9.197768806E0,2.088488197E1,1.421975136E1,1.893280029E1
9.214434743E0,2.028479195E1,8.584335327E0,1.878164673E1
9.231100681E0,1.731055069E1,1.440372467E0,1.325435257E1
9.247766618E0,9.262966156E0,-3.631057262E0,5.950143337E0
9.264432556E0,1.159488201E0,-5.292324066E0,5.829231739E-1
9.281098493E0,-2.668101072E0,-4.918830872E0,-1.457593441E0
9.297764431E0,-2.825080872E0,-2.433712482E0,2.090373993E0
9.314430368E0,-2.244638920E0,1.597538948E0,5.218088150E0
9.331096306E0,-1.556620598E-1,6.355199337E0,4.911718369E0
9.347762243E0,6.184456825E0,8.529261589E0,3.138487339E0
9.364428181E0,8.188003540E0,1.071714401E1,2.067194462E0
9.381094118E0,9.792717934E0,9.175057411E0,4.409641743E0
9.397760056E0,8.704603195E0,6.461923599E0,8.173299789E0
9.414425993E0,7.776664734E0,3.488745213E0,1.225640678E1
9.431091931E0,6.663975239E0,2.230720520E0,1.547289085E1
9.447757868E0,5.569420815E0,2.131044865E0,1.488821030E1
9.464423806E0,7.185179710E0,1.799780726E0,1.158382034E1
9.481089743E0,8.918479919E0,4.084061980E-1,7.294773102E0
9.497755681E0,7.904103756E0,1.843800426E0,3.600836277E0
9.514421618E0,7.320816040E0,2.080107212E0,2.641165733E0
9.531087556E0,6.891313076E0,1.649108291E0,3.793619633E0
9.547753493E0,4.912664413E0,9.361881018E-1,4.976195335E0
9.564419431E0,2.992072105E0,4.891921878E-1,6.443832397E0
9.581085368E0,1.951272488E0,6.881159544E-1,8.310692787E0
9.597751306E0,1.602313519E0,1.329255342E0,8.458230972E0
9.614417243E0,1.931547403E0,9.832596779E-1,5.879330635E0
9.631083181E0,2.781209230E0,1.296452522E0,2.299157619E0
9.647749118E0,4.387170792E0,3.294737101E0,1.365699768E-1
9.664415056E0,4.838085651E0,5.629678726E0,5.601954460E-1
9.681080993E0,5.006155491E0,6.375259399E0,3.698873997E0
9.697746931E0,5.739353180E0,5.194435120E0,6.917881966E0
9.714412868E0,6.234223843E0,3.097840309E0,9.451910019E0
9.731078806E0,6.567014694E0,1.390587449E0,1.120848942E1
9.747744743E0,7.044960022E0,7.676286697E-1,1.232066059E1
9.764410681E0,6.714312553E0,3.997915685E-1,1.416571999E1
9.781076618E0,6.045580387E0,2.859986782E0,1.475104618E1
9.797742556E0,6.139641285E0,7.152694225E0,8.907436371E0
9.814408493E0,6.998872280E0,1.009264946E1,3.052161455E0
9.831074431E0,4.722046852E0,1.000236034E1,-1.274210453E0
9.847740368E0,-1.382153988E0,9.113607407E0,-3.192712784E0
9.864406306E0,-1.782146931E0,8.064907074E0,-9.807352066E0
9.881072243E0,2.958197594E-1,5.440028667E0,-1.944579315E1
9.897738181E0,1.715002298E0,1.580865741E0,-2.092310333E1
9.914404118E0,1.995248795E-1,-2.796982288E0,-1.264352417E1
9.931070056E0,6.001985669E-1,-2.602546215E0,-4.664050102E0
9.947735993E0,6.484694481E0,-2.814516783E0,-2.428584099E0
9.964401931E0,1.067162037E1,-2.447854996E0,-9.351482391E-1
9.981067868E0,1.330316544E1,-2.363116026E0,-1.194020271E0
9.997733806E0,7.490362644E0,-1.028577209E0,-6.349925995E-1
1.001439974E1,3.274373055E0,-9.543267488E-1,-3.011817932E0
1.003106568E1,2.249139309E0,1.214249253E0,-6.866468906E0
1.004773162E1,2.883586407E0,3.717334747E0,-1.136901093E1
1.006439756E1,3.173880100E0,7.108423710E0,-1.274857903E1
1.008106349E1,3.897042751E0,1.032618141E1,-1.115793514E1
1.009772943E1,4.507555962E0,1.217896080E1,-1.045093727E1
1.011439537E1,4.045151234E0,1.243410206E1,-1.004463959E1
1.013106131E1,1.928731441E0,1.111870575E1,-8.719978333E0
1.014772724E1,-1.352543354E0,9.072721481E0,-5.942241669E0
1.016439318E1,-4.878643990E0,7.520022392E0,-2.547900677E0
1.018105912E1,-6.196225166E0,6.453241825E0,-1.232654095E0
1.019772506E1,-4.640074253E0,5.892074585E0,-1.983424664E0
1.021439099E1,-3.368742466E0,5.423646927E0,-3.245380402E0
1.023105693E1,-4.340456963E0,5.133127213E0,-3.049191475E0
1.024772287E1,-5.392749786E0,5.233181953E0,-6.523461342E-1
1.026438881E1,-4.954296112E0,5.987996101E0,1.601501703E0
1.028105474E1,-1.779839993E0,5.827402115E0,1.794662952E0
1.029772068E1,6.272506714E-1,5.044261456E0,8.013796806E-1
1.031438662E1,5.933542252E-1,3.680821896E0,1.390066147E0
1.033105256E1,-1.882916927E0,2.579477787E0,3.122863293E0
1.034771849E1,-1.560685158E0,1.802712440E0,5.126910686E0
1.036438443E1,1.034803391E0,2.916778564E0,6.025099754E0
1.038105037E1,4.929309368E0,5.946378708E0,4.556803703E0
1.039771631E1,8.445385933E0,8.593299866E0,1.802160978E0
1.041438224E1,9.429270744E0,8.604098320E0,8.676744699E-1
1.043104818E1,8.377504349E0,7.536731720E0,1.627433538E0
1.044771412E1,9.919010162E0,5.008388519E0,1.395740747E0
1.046438006E1,1.252319813E1,-4.799356461E-1,5.544840097E-1
1.048104599E1,1.409848213E1,-7.365794659E0,1.357376218E0
1.049771193E1,1.409609795E1,-1.315327454E1,1.152529120E0
1.051437787E1,1.003825569E1,-1.642468643E1,2.812004089E-1
1.053104381E1,3.176831722E0,-1.693024445E1,7.453968525E-1
1.054770974E1,-3.293887377E0,-1.582298660E1,2.103239775E0
1.056437568E1,-7.089625835E0,-1.502880287E1,2.214590549E0
1.058104162E1,-7.681697845E0,-1.463322639E1,1.270747185E-2
1.059770756E1,-7.041117668E0,-1.364940834E1,-2.589104891E0
1.061437349E1,-6.470933914E0,-1.206712151E1,-4.505421638E0
1.063103943E1,-6.442376614E0,-1.029146862E1,-4.599558353E0
1.064770537E1,-7.116424561E0,-8.858066559E0,-3.869004250E0
1.066437131E1,-6.361690521E0,-7.652913094E0,-4.102814674E0
1.068103724E1,-3.788337708E0,-7.105448723E0,-6.318830013E0
1.069770318E1,-1.081846714E0,-6.629933357E0,-7.949271202E0
1.071436912E1,1.979698181E0,-4.804471970E0,-7.954798698E0
1.073103506E1,8.996033669E0,-9.052324295E-2,-6.213014126E0
1.074770099E1,2.327645111E1,5.762074947E0,-2.568712234E0
1.076436693E1,3.851501846E1,9.627943039E0,-3.010445833E-1
1.078103287E1,3.666048813E1,1.072883606E1,3.824750662E0
1.079769881E1,2.017285919E1,9.240972519E0,7.925711632E0
1.081436474E1,4.578906059E0,7.783198357E0,6.674875736E0
1.083103068E1,-2.796895504E0,7.124573231E0,2.613860369E0
1.084769662E1,-3.876101971E0,7.397914886E0,5.575547218E-1
1.086436256E1,-4.121354580E0,7.859611988E0,1.712593555E0
1.088102849E1,-5.641577721E0,9.054699898E0,3.965221882E0
1.089769443E1,-6.728742599E0,1.079156017E1,5.631223679E0
1.091436037E1,-6.584768295E0,1.287495518E1,6.439783096E0
1.093102631E1,-7.631186008E0,1.475597858E1,5.398586273E0
1.094769224E1,-8.179832458E0,1.473283386E1,2.895843983E0
1.096435818E1,-9.146649361E0,1.315800095E1,1.361453295E0
1.098102412E1,-1.037575054E1,1.067008495E1,1.701577663E0
1.099769006E1,-9.505228043E0,7.345785141E0,4.431220055E0
1.101435599E1,-5.942934990E0,4.527714729E0,7.970584393E0
1.103102193E1,-2.102997780E0,2.677604914E0,9.679964066E0
1.104768787E1,8.313546181E-1,2.374644756E0,9.195728302E0
1.106435381E1,4.464353085E0,2.423952103E0,8.812601089E0
1.108101974E1,9.186590195E0,3.058574200E0,8.928440094E0
1.109768568E1,1.680818367E1,3.134315014E0,9.437801361E0
1.111435162E1,2.118384552E1,5.995512009E-1,6.465784550E0
1.113101756E1,1.798905754E1,-3.864899397E0,6.606603146E0
1.114768349E1,1.149847698E1,-8.291882515E0,9.033988953E0
1.116434943E1,5.958313942E0,-1.199337387E1,1.064277077E1
1.118101537E1,2.484826088E0,-1.441787720E1,8.234872818E0
1.119768131E1,1.057939053E0,-1.554469204E1,9.300603867E-1
1.121434724E1,2.217149734E-2,-1.571638012E1,-5.308429718E0
1.123101318E1,-1.162574768E0,-1.539802742E1,-7.116941452E0
1.124767912E1,-2.759707689E0,-1.638093758E1,-7.071228027E0
1.126434506E1,-5.493639469E0,-1.640860558E1,-5.304629326E0
1.128101099E1,-7.501076698E0,-1.665596771E1,-4.730420113E0
1.129767693E1,-8.881730080E0,-1.618745041E1,-5.532046318E0
1.131434287E1,-9.297663689E0,-1.509237957E1,-6.943752766E0
1.133100881E1,-8.080321312E0,-1.395822430E1,-8.038057327E0
1.134767474E1,-5.795475960E0,-1.291304684E1,-8.502243996E0
1.136434068E1,-1.947706223E0,-1.262948608E1,-7.292003155E0
1.138100662E1,3.535412788E0,-1.208555222E1,-6.079607487E0
1.139767256E1,4.666717529E0,-6.573578835E0,-2.722558022E0
1.141433849E1,8.496166229E0,4.021401882E0,5.113123894E0
1.143100443E1,2.781753540E1,1.043397522E1,1.267563534E1
1.144767037E1,4.390730286E1,1.409270477E1,1.505997086E1
1.146433631E1,3.441050720E1,1.564093590E1,1.299226665E1
1.148100224E1,1.594487572E1,1.315683174E1,1.011482525E1
1.149766818E1,4.501339912E0,9.620152473E0,6.851196289E0
1.151433412E1,-1.484728336E0,6.856485844E0,2.430440903E0
1.153100006E1,-5.521242142E0,5.449353218E0,-2.060137987E-1
1.154766599E1,-8.073146820E0,4.671206474E0,-2.692435980E-1
1.156433193E1,-9.916203499E0,4.432200432E0,3.715647459E-1
1.158099787E1,-1.106733418E1,4.818953037E0,5.183613300E-1
1.159766381E1,-1.174189758E1,5.628196716E0,4.578303099E-1
1.161432974E1,-1.180369091E1,6.673547745E0,7.075397968E-1
1.163099568E1,-1.275916290E1,8.014333725E0,-8.432865143E-3
1.164766162E1,-1.465279484E1,8.925257683E0,-1.667084694E-1
1.166432756E1,-1.512969875E1,8.981014252E0,1.680032134E0
1.168099349E1,-1.343395042E1,8.064851761E0,4.142791271E0
1.169765943E1,-9.349635124E0,7.368196011E0,6.281397343E0
1.171432537E1,-5.043235779E0,7.861352444E0,6.219546318E0
1.173099131E1,-2.054936886E0,1.001118279E1,5.609395981E0
1.174765724E1,2.405094624E0,1.218838882E1,7.182867527E0
1.176432318E1,9.713939667E0,1.339500618E1,9.837604523E0
1.178098912E1,2.101005363E1,1.181700325E1,8.966411591E0
1.179765506E1,2.553276253E1,8.993236542E0,3.961432457E0
1.181432099E1,2.161803627E1,4.092700005E0,1.103792429E0
1.183098693E1,1.554626846E1,-2.785750866E0,3.741639376E0
1.184765287E1,9.231496811E0,-9.062890053E0,7.614349842E0
1.186431881E1,4.703645229E0,-1.343708420E1,8.269458771E0
1.188098474E1,3.089674473E0,-1.690374756E1,4.618315220E0
1.189765068E1,1.772194862E0,-1.937354660E1,3.394675255E-1
1.191431662E1,-1.532845497E-1,-2.132687759E1,-1.042441845E0
1.193098256E1,-2.382718325E0,-2.303118515E1,-3.507499099E-1
1.194764849E1,-5.034692764E0,-2.352339172E1,-1.162478447E0
1.196431443E1,-6.924021244E0,-2.302742577E1,-3.713964224E0
1.198098037E1,-8.463886261E0,-2.100104141E1,-5.704435349E0
1.199764631E1,-9.241044998E0,-1.803420639E1,-6.676156998E0
1.201431224E1,-7.066213608E0,-1.618731689E1,-6.734679222E0
1.203097818E1,5.781507492E-2,-1.477478790E1,-5.103156567E0
1.204764412E1,6.803678989E0,-1.271010303E1,-4.186677456E0
1.206431006E1,7.672121048E0,-7.092914581E0,-2.435676813E0
1.208097599E1,1.283484650E1,3.163133144E0,2.801010609E0
1.209764193E1,3.106686020E1,1.020256805E1,7.889027596E0
1.211430787E1,3.910626984E1,1.505417633E1,7.197662830E0
1.213097381E1,2.794264984E1,1.699223518E1,6.665778637E0
1.214763974E1,1.262898636E1,1.340112877E1,5.882836819E0
1.216430568E1,2.031784058E0,1.025751305E1,3.576237440E0
1.218097162E1,-2.838418484E0,7.951901436E0,7.574484497E-2
1.219763756E1,-5.147268295E0,6.658150196E0,-7.293217182E-1
1.221430349E1,-6.701043129E0,6.181406021E0,3.241881430E-1
1.223096943E1,-6.723595619E0,5.893584728E0,1.319009066E0
1.224763537E1,-5.094002724E0,6.155108929E0,2.543104172E0
1.226430131E1,-6.336640358E0,6.810444832E0,2.648177147E0
1.228096724E1,-1.111407089E1,7.106605053E0,1.853396654E0
1.229763318E1,-1.554533005E1,7.049880981E0,1.198760867E0
1.231429912E1,-1.758861160E1,6.914308071E0,1.420270085E0
1.233096506E1,-1.694748688E1,6.071682453E0,2.846801281E0
1.234763099E1,-1.379814529E1,4.830691338E0,5.593803883E0
1.236429693E1,-9.415226936E0,3.587084293E0,7.022987843E0
1.238096287E1,-7.228184700E0,1.546603203E0,5.874094486E0
1.239762881E1,-1.077358055E1,1.378517151E0,5.108504772E0
1.241429474E1,-1.258877945E1,6.597060204E0,6.310592651E0
1.243096068E1,4.262007713E0,1.005223656E1,9.248239517E0
1.244762662E1,2.903594971E1,8.080013275E0,1.100125504E1
1.246429256E1,3.700738525E1,4.547899723E0,9.242558479E0
1.248095849E1,2.670010185E1,7.508702278E-1,7.673620701E0
1.249762443E1,1.371417522E1,-1.593740940E0,6.180903435E0
1.251429037E1,8.331308365E0,-3.658462763E0,3.167172194E0
1.253095631E1,5.605181694E0,-4.928216457E0,-4.168304801E-1
1.254762224E1,4.256293297E0,-6.237081051E0,-3.658373356E0
1.256428818E1,4.751058102E0,-6.554447651E0,-7.553241730E0
1.258095412E1,1.146890640E0,-5.143608570E0,-1.210919857E1
1.259762006E1,-3.418116093E0,-3.362571478E0,-1.469039822E1
1.261428599E1,-3.659749508E0,-2.612167358E0,-1.420226669E1
1.263095193E1,-2.099570274E0,-2.362351894E0,-1.189487553E1
1.264761787E1,-2.383313179E-1,-1.888837814E0,-8.043365479E0
1.266428381E1,1.603511333E0,-9.104113579E-1,-3.482198715E0
1.268094974E1,3.591646194E0,1.835284233E-1,1.788066626E0
1.269761568E1,5.275170326E0,1.637000084E0,6.517433643E0
1.271428162E1,4.157375336E0,5.595967293E0,1.027587128E1
1.273094756E1,4.255028248E0,1.283671951E1,1.242743874E1
1.274761349E1,9.167574883E0,1.621579742E1,1.388127327E1
1.276427943E1,1.375247097E1,1.657537079E1,1.404465103E1
1.278094537E1,1.751874542E1,1.622453880E1,1.315213966E1
1.279761131E1,2.002852058E1,1.255249977E1,9.327491760E0
1.281427724E1,1.611478615E1,5.979978561E0,5.555332661E0
1.283094318E1,7.558060169E0,1.048600674E0,4.865195751E0
1.284760912E1,2.873919010E0,-2.283614635E0,5.761109352E0
1.286427506E1,2.120344162E0,-4.533414841E0,7.020918846E0
1.288094099E1,3.210086584E0,-5.503600597E0,8.321664810E0
1.289760693E1,3.118230343E0,-4.876289845E0,1.051522732E1
1.291427287E1,3.212461233E0,-3.449650049E0,1.352479744E1
1.293093881E1,4.363159180E0,-2.295629978E0,1.402717781E1
1.294760474E1,6.365328789E0,-5.780889988E-1,1.131807041E1
1.296427068E1,1.035887051E1,7.782580853E-1,6.300565243E0
1.298093662E1,1.228461456E1,1.578639507E0,5.818481445E-1
1.299760256E1,1.014252377E1,1.254185677E0,-8.846311569E-1
1.301426849E1,4.621402740E0,-3.267931938E-2,1.784530163E0
1.303093443E1,-1.291068554E0,-5.089074373E-1,6.225354671E0
1.304760037E1,-5.056048393E0,-3.769557476E-1,1.020266533E1
1.306426631E1,-6.399189949E0,-4.571210146E-1,1.022639561E1
1.308093224E1,-4.599519253E0,-7.753653526E-1,6.194146156E0
1.309759818E1,4.385466576E-1,-1.426689625E-1,-4.960756302E-1
1.311426412E1,3.830910206E0,1.428825974E0,-5.641672134E0
1.313093006E1,4.574355125E0,2.931358576E0,-6.752132416E0
1.314759599E1,4.349383354E0,3.948740005E0,-5.684916496E0
1.316426193E1,4.601099968E0,4.457317829E0,-3.500586510E0
1.318092787E1,5.242406368E0,3.913876057E0,2.989768982E-2
1.319759381E1,7.040358543E0,2.335473537E0,4.336725712E0
1.321425974E1,8.416114807E0,3.692438006E-1,7.823688507E0
1.323092568E1,8.264423370E0,-1.536298633E0,9.695568085E0
1.324759162E1,6.311638832E0,-2.694099426E0,1.069363689E1
1.326425756E1,5.022351265E0,-3.552011490E0,1.182909393E1
1.328092349E1,3.390897751E0,-4.419239044E0,1.192832851E1
1.329758943E1,1.194227934E0,-5.266238213E0,1.191915417E1
1.331425537E1,-1.455769300E0,-5.814368248E0,1.244660759E1
1.333092131E1,-4.441007137E0,-6.511369705E0,1.222868919E1
1.334758724E1,-8.381288528E0,-7.760514259E0,1.241116238E1
1.336425318E1,-1.107430267E1,-9.300224304E0,1.255763054E1
1.338091912E1,-1.512929821E1,-1.097466469E1,1.375510311E1
1.339758506E1,-1.361153793E1,-1.443312454E1,1.512357426E1
1.341425099E1,-5.226485252E0,-1.820070076E1,1.970220947E1
1.343091693E1,4.670942307E0,-1.815405655E1,2.550737381E1
1.344758287E1,1.168147278E1,-1.261610126E1,2.495549965E1
1.346424881E1,1.997457504E1,-4.210352898E0,2.140618134E1
1.348091474E1,2.608485413E1,8.814847469E-1,1.636853027E1
1.349758068E1,3.054542542E1,2.823659658E0,1.483986187E1
1.351424662E1,2.590607071E1,8.026262283E0,1.545585823E1
1.353091256E1,2.279582405E1,1.372831821E1,1.177704048E1
1.354757849E1,2.399914169E1,1.881336975E1,9.858186722E0
1.356424443E1,2.379105377E1,1.872443962E1,8.208879471E0
1.358091037E1,1.787643051E1,1.818777657E1,7.772279739E0
1.359757631E1,1.252689362E1,1.793724442E1,1.045267773E1
1.361424224E1,1.037510395E1,1.680721855E1,1.223199654E1
1.363090818E1,1.008146954E1,1.537938309E1,8.134180069E0
1.364757412E1,8.114516258E0,1.471428680E1,1.020858526E0
1.366424006E1,6.375137329E0,1.426562691E1,-3.309810162E0
1.368090599E1,6.983388901E0,1.264476299E1,-2.135102510E0
1.369757193E1,6.770110130E0,1.009884262E1,1.002650380E0
1.371423787E1,4.181278229E0,7.203426361E0,3.249536753E0
1.373090381E1,1.536812782E0,4.489706993E0,4.892275333E0
1.374756974E1,5.363092422E-1,2.289309025E0,5.747511864E0
1.376423568E1,8.376169205E-1,1.029643178E0,5.871832371E0
1.378090162E1,1.287978172E0,2.478883266E-1,5.860163212E0
1.379756756E1,4.721717834E-1,2.242588997E-2,5.639070034E0
1.381423349E1,-9.285287857E-1,-6.755590439E-2,5.489520073E0
1.383089943E1,-2.729497910E0,3.615145683E-1,5.034955978E0
1.384756537E1,-4.560876369E0,1.144520998E0,3.774496078E0
1.386423131E1,-5.085329056E0,1.452268362E0,1.852457762E0
1.388089724E1,-4.831971169E0,2.098406792E0,-5.086636543E-2
1.389756318E1,-3.171589375E0,2.482638359E0,-1.093909502E0
1.391422912E1,-1.323564053E0,1.891686440E0,-2.140078545E-1
1.393089506E1,-1.636795998E0,1.457555294E0,3.595924377E0
1.394756099E1,-3.238029242E0,2.562944889E0,8.690837860E0
1.396422693E1,-1.668263912E0,4.976250172E0,9.301088333E0
1.398089287E1,1.703538418E0,9.506141663E0,6.940903187E0
1.399755881E1,8.522800446E0,1.019316292E1,1.071037292E1
1.401422474E1,1.184947968E1,3.544182301E0,2.199603462E1
1.403089068E1,8.966993332E0,-8.480996132E0,2.987132263E1
1.404755662E1,7.352794170E0,-1.936041451E1,2.487447929E1
1.406422256E1,9.862329483E0,-2.324383545E1,1.369523430E1
1.408088849E1,1.140316200E1,-2.265966034E1,8.862555027E-1
1.409755443E1,7.545164585E0,-1.929549026E1,-9.653879166E0
1.411422037E1,4.366476536E0,-1.881540108E1,-1.160178566E1
1.413088631E1,1.982403278E0,-1.922349167E1,-9.023801804E0
1.414755224E1,-1.869955063E0,-1.829531097E1,-8.347048759E0
1.416421818E1,-4.352219105E0,-1.662954330E1,-1.111665630E1
1.418088412E1,-4.201682091E0,-1.532564259E1,-1.499755096E1
1.419755006E1,-4.420965195E0,-1.383724213E1,-1.745163727E1
1.421421599E1,-4.340806007E0,-1.268925476E1,-1.704955292E1
1.423088193E1,-3.186683178E0,-1.195388412E1,-1.522020817E1
1.424754787E1,-1.130766392E0,-1.222071648E1,-1.317740822E1
1.426421381E1,2.371722221E0,-1.281361771E1,-9.354667664E0
1.428087974E1,7.042711258E0,-1.022180271E1,-3.097365856E0
1.429754568E1,1.523380184E1,-2.734123230E0,6.234598637E0
1.431421162E1,2.852099800E1,4.956731319E0,1.524260712E1
1.433087756E1,3.570376587E1,1.065085411E1,1.760358620E1
1.434754349E1,2.914993477E1,1.326231670E1,1.437035847E1
1.436420943E1,1.599167538E1,1.274487495E1,9.972070694E0
1.438087537E1,3.987562180E0,1.075241089E1,5.727123260E0
1.439754131E1,-4.932797909E0,9.829494476E0,1.954781055E0
1.441420724E1,-8.923722267E0,9.986241341E0,-9.793448448E-2
1.443087318E1,-9.672291756E0,1.027379608E1,-4.259068966E-1
1.444753912E1,-9.515845299E0,1.063699722E1,-4.021552801E-1
1.446420506E1,-8.024041176E0,1.147241974E1,-6.556628942E-1
1.448087099E1,-7.482236862E0,1.199884319E1,-2.066168070E0
1.449753693E1,-8.757631302E0,1.215414333E1,-2.372349262E0
1.451420287E1,-1.143761921E1,1.208206463E1,-4.364252090E-4
1.453086881E1,-1.311667538E1,1.099498940E1,4.167339325E0
1.454753474E1,-1.235980034E1,8.459695816E0,9.044781685E0
1.456420068E1,-9.652007103E0,5.626384258E0,1.056792450E1
1.458086662E1,-6.821621418E0,4.400166512E0,7.980576515E0
1.459753256E1,-4.758449554E0,5.498968124E0,4.152737617E0
1.461419849E1,-2.274188995E0,8.488346100E0,2.814697981E0
1.463086443E1,3.930673599E0,1.033705711E1,5.065885544E0
1.464753037E1,1.345773315E1,1.207510185E1,1.059346008E1
1.466419631E1,2.505040932E1,1.048350334E1,1.491773033E1
1.468086224E1,2.950588226E1,5.829421520E0,1.335878944E1
1.469752818E1,2.344742203E1,3.539924622E-1,9.530755043E0
1.471419412E1,1.479255581E1,-4.636057854E0,6.970723629E0
1.473086006E1,9.033275604E0,-8.517438889E0,5.139151573E0
1.474752599E1,6.671754360E0,-1.159824848E1,3.485622168E0
1.476419193E1,4.943850517E0,-1.328695297E1,1.856505156E0
1.478085787E1,2.983103275E0,-1.407559395E1,-5.380213261E-2
1.479752381E1,1.578201294E0,-1.469559669E1,-1.584743619E0
1.481418974E1,1.096088409E0,-1.560499001E1,-2.767981529E0
1.483085568E1,1.011020184E0,-1.742224884E1,-5.114956856E0
1.484752162E1,-7.328081131E-2,-1.889782333E1,-8.319384575E0
1.486418756E1,-2.591521025E0,-1.833397865E1,-1.068676662E1
1.488085349E1,-5.911401749E0,-1.721111107E1,-9.810712814E0
1.489751943E1,-8.486451149E0,-1.767835617E1,-3.916034222E0
1.491418537E1,-9.025190353E0,-1.953910637E1,3.924738646E0
1.493085131E1,-8.223807335E0,-1.995625877E1,7.628966808E0
1.494751724E1,-8.229153633E0,-1.737388039E1,4.303584576E0
1.496418318E1,-8.103933334E0,-9.372477531E0,-3.096171021E-1
1.498084912E1,-1.419115067E-1,-9.226188660E-1,2.232972622E0
1.499751506E1,1.902327538E1,3.756442070E0,1.360319328E1
1.501418099E1,3.189377403E1,9.714048386E0,2.069437218E1
1.503084693E1,3.118355560E1,1.385203552E1,1.835931587E1
1.504751287E1,2.115293503E1,1.537062168E1,1.181610298E1
1.506417881E1,9.489714622E0,1.440689087E1,4.754855633E0
1.508084474E1,5.801877975E-1,1.152513695E1,-1.104311943E-1
1.509751068E1,-5.368699074E0,8.714065552E0,-1.941880345E0
1.511417662E1,-8.813895226E0,7.319913864E0,-2.244078636E0
1.513084256E1,-1.084886742E1,7.294516563E0,-2.525356293E0
1.514750849E1,-1.262124825E1,7.908960819E0,-2.993076086E0
1.516417443E1,-1.418837166E1,8.723844528E0,-2.979586840E0
1.518084037E1,-1.476024055E1,9.645424843E0,-2.584568024E0
1.519750631E1,-1.376169395E1,9.909008026E0,-1.381443262E0
1.521417224E1,-1.173225880E1,8.064729691E0,1.955044270E-1
1.523083818E1,-9.422664642E0,4.935707092E0,1.845403671E0
1.524750412E1,-8.257663727E0,2.968077183E0,2.345793009E0
1.526417006E1,-7.153630733E0,3.793816566E0,1.619672775E0
1.528083599E1,-4.407130718E0,7.620349884E0,1.930819035E0
1.529750193E1,-1.004335403E0,1.296588707E1,6.110199451E0
1.531416787E1,7.435765743E0,1.552637577E1,1.323163223E1
1.533083381E1,1.861618996E1,1.543164825E1,1.385575676E1
1.534749974E1,2.618676186E1,1.283327866E1,7.610138893E0
1.536416568E1,2.488195038E1,7.607237816E0,3.585693121E0
1.538083162E1,1.731859589E1,2.819747925E-1,6.484619141E0
1.539749756E1,8.081616402E0,-7.375941277E0,9.786649704E0
1.541416349E1,1.683682203E0,-1.240135956E1,9.869561195E0
1.543082943E1,-4.272112846E-1,-1.549860001E1,5.990537167E0
1.544749537E1,-2.817409039E-1,-1.732809830E1,1.191705942E0
1.546416131E1,1.244875669E0,-1.898831177E1,-2.784258604E0
1.548082724E1,2.058616400E0,-2.026268387E1,-5.508315563E0
1.549749318E1,1.462380409E0,-2.083623505E1,-6.842180729E0
1.551415912E1,-8.548243046E-1,-2.047282600E1,-8.222398758E0
1.553082506E1,-4.469163418E0,-1.904880905E1,-1.064658260E1
1.554749099E1,-7.389473915E0,-1.708942413E1,-1.218436146E1
1.556415693E1,-8.316130638E0,-1.517171288E1,-1.258194542E1
1.558082287E1,-5.916543007E0,-1.419816399E1,-1.169501114E1
1.559748881E1,-1.983675718E0,-1.331206417E1,-9.665241241E0
1.561415474E1,4.435329437E-1,-1.162095451E1,-9.083581924E0
1.563082068E1,2.810220242E0,-7.836697102E0,-8.766129494E0
1.564748662E1,1.141910839E1,-5.137548447E-1,2.144156933E0
1.566415256E1,3.041992188E1,5.676452160E0,2.718990898E1
1.568081849E1,4.125492477E1,1.061099815E1,3.842533112E1
1.569748443E1,3.280973434E1,1.441013336E1,2.766281509E1
1.571415037E1,1.844465828E1,1.476123047E1,1.214643955E1
1.573081631E1,6.769021511E0,1.153032303E1,8.431291580E-1
1.574748224E1,-2.660219669E0,7.761321545E0,-5.136445999E0
1.576414818E1,-7.698515892E0,5.326107502E0,-5.290923595E0
1.578081412E1,-8.331633568E0,3.217679024E0,-3.593859196E0
1.579748006E1,-8.560279846E0,2.279323578E0,-2.930699825E0
1.581414599E1,-9.046932220E0,1.922981739E0,-3.977159977E0
1.583081193E1,-1.027749252E1,2.518789291E0,-4.989339352E0
1.584747787E1,-1.191540146E1,3.574105263E0,-3.922500849E0
1.586414381E1,-1.369662857E1,4.163489819E0,5.023462772E-1
1.588080974E1,-1.386966896E1,2.816567898E0,6.504985809E0
1.589747568E1,-1.160401917E1,4.509224892E-1,1.049419594E1
1.591414162E1,-9.969922066E0,-6.353511810E-1,9.515768051E0
1.593080756E1,-9.582180023E0,1.004772186E-1,4.971145630E0
1.594747349E1,-9.128749847E0,1.549304962E0,1.042027473E0
1.596413943E1,-9.085098267E0,4.063000202E0,1.012947559E0
1.598080537E1,-8.399408340E0,8.037996292E0,4.562570572E0
1.599747131E1,2.883955479E0,8.472129822E0,1.336918736E1
1.601413724E1,1.715048409E1,5.588633537E0,1.826408958E1
1.603080318E1,2.184599495E1,1.832425117E0,1.207392120E1
1.604746912E1,1.584804535E1,-2.356938839E0,7.836785793E0
1.606413506E1,8.180272102E0,-6.634294033E0,8.825334549E0
1.608080099E1,3.793108940E0,-9.307497025E0,9.604157448E0
1.609746693E1,3.594645977E0,-1.128159904E1,7.376356125E0
1.611413287E1,4.844128132E0,-1.226777554E1,3.346465826E0
1.613079881E1,4.818736076E0,-1.187230492E1,-1.141844153E0
1.614746474E1,3.428188324E0,-1.080268478E1,-4.544697762E0
1.616413068E1,1.059293747E0,-9.900372505E0,-6.493249416E0
1.618079662E1,-1.952811718E0,-8.982603073E0,-7.333488941E0
1.619746256E1,-5.184615612E0,-7.757835865E0,-8.229043007E0
1.621412849E1,-7.091526508E0,-5.875567913E0,-8.656219482E0
1.623079443E1,-5.659265995E0,-3.489913464E0,-8.510346413E0
1.624746037E1,-4.303595066E0,-9.346356392E-1,-8.404283524E0
1.626412631E1,-4.862194061E0,2.581625938E0,-8.309870720E0
1.628079224E1,-2.619877338E0,7.452534676E0,-1.931727409E0
1.629745818E1,5.852186203E0,1.164386272E1,8.972052574E0
1.631412412E1,1.573058510E1,1.354029083E1,1.717411041E1
1.633079006E1,2.011250687E1,1.276402855E1,2.105106544E1
1.634745599E1,1.517665100E1,9.820021629E0,1.877661896E1
1.636412193E1,7.691931248E0,6.016727448E0,1.376842976E1
1.638078787E1,4.835409641E0,1.556875229E0,8.656364441E0
1.639745381E1,4.764849186E0,-2.609861374E0,4.446877003E0
1.641411974E1,3.347183704E0,-5.047204018E0,5.908150673E-1
1.643078568E1,2.053833961E0,-5.022011757E0,-1.823201180E0
1.644745162E1,1.703256369E0,-3.665711403E0,-1.350176334E0
1.646411756E1,1.991988659E0,-1.289743423E0,1.942218065E0
1.648078349E1,1.918449879E0,1.376919746E0,5.445666313E0
1.649744943E1,3.619268656E0,4.331777096E0,7.261727333E0
1.651411537E1,8.360287666E0,5.699022770E0,7.465263367E0
1.653078131E1,1.013944530E1,4.802781105E0,6.456168652E0
1.654744724E1,5.412678242E0,3.353248596E0,7.050991535E0
1.656411318E1,-3.785514235E-1,1.783612251E0,8.704935074E0
1.658077912E1,-2.728199005E0,1.219367981E-1,1.083985519E1
1.659744506E1,-2.662206411E0,-1.220149040E0,1.194154549E1
1.661411099E1,-1.634821415E0,-2.499800444E0,1.039106750E1
1.663077693E1,-3.344235420E-1,-3.075661659E0,7.630990505E0
1.664744287E1,5.210102797E-1,-2.914772987E0,4.907949448E0
1.666410881E1,6.315510869E-1,-2.051981926E0,3.022534847E0
1.668077474E1,-8.189779520E-2,-1.208356261E0,1.877267838E0
1.669744068E1,-1.216160059E0,-1.371114254E-1,2.927713394E0
1.671410662E1,-1.539072752E0,5.889549255E-1,4.611723423E0
1.673077256E1,-1.036832809E0,7.371683121E-1,6.250293732E0
1.674743849E1,-5.159361362E-1,1.987299919E-1,7.923655033E0
1.676410443E1,-2.105219960E-1,-1.155927420E0,9.483642578E0
1.678077037E1,-1.377534866E-1,-2.915477753E0,1.057804680E1
1.679743631E1,-1.457740307E0,-4.124449253E0,1.076937771E1
1.681410224E1,-4.082615852E0,-3.912426472E0,1.066810608E1
1.683076818E1,-6.068508625E0,-2.911238909E0,1.077647591E1
1.684743412E1,-6.638220310E0,-1.689810157E0,1.040566349E1
1.686410006E1,-5.414967060E0,3.641009331E-2,8.899222374E0
1.688076599E1,-3.704565525E0,2.603821039E0,7.443943501E0
1.689743193E1,-3.225487947E0,6.346376896E0,6.762732029E0
1.691409787E1,-3.696859837E0,9.568846703E0,7.585951805E0
1.693076381E1,-1.822080374E0,1.075570107E1,9.688590050E0
1.694742974E1,2.129844666E0,9.924287796E0,1.401936150E1
1.696409568E1,5.120335102E0,8.015727043E0,1.842308807E1
1.698076162E1,6.256360054E0,5.763901711E0,1.958541107E1
1.699742756E1,5.802539825E0,4.041497231E0,1.639521790E1
1.701409349E1,4.801539898E0,3.056982517E0,1.279323196E1
1.703075943E1,5.111154079E0,2.714738369E0,8.489780426E0
1.704742537E1,7.097976208E0,3.270185471E0,4.944515228E0
1.706409131E1,7.833376408E0,3.662330151E0,5.606935024E-1
1.708075724E1,8.702239037E0,4.168252945E0,-3.849773407E0
1.709742318E1,8.830729485E0,3.405949116E0,-4.797671318E0
1.711408912E1,7.429244995E0,3.192058086E0,-2.606161118E0
1.713075506E1,4.117259979E0,4.014829636E0,-1.997506618E-1
1.714742099E1,2.376167297E0,4.735623360E0,2.301725864E0
1.716408693E1,2.137865067E0,5.175645828E0,4.276721478E0
1.718075287E1,2.206042290E0,5.108222008E0,5.211598396E0
1.719741881E1,3.724170685E0,4.449564457E0,7.988489151E0
1.721408474E1,5.379816055E0,3.423395634E0,9.795187950E0
1.723075068E1,5.472273827E0,2.686905146E0,8.078477859E0
1.724741662E1,3.636196136E0,2.371813774E0,3.515652895E0
1.726408256E1,1.299288750E0,2.089589119E0,-6.988532543E-1
1.728074849E1,-2.976808548E-1,2.011287928E0,-3.462623596E0
1.729741443E1,-1.295685291E0,2.059325695E0,-4.499931812E0
1.731408037E1,-2.368584633E0,2.206682444E0,-4.875086784E0
1.733074631E1,-3.059062958E0,2.254784822E0,-5.141194344E0
1.734741224E1,-4.292686939E0,2.294437885E0,-5.546163559E0
1.736407818E1,-3.233044147E0,1.919615269E0,-6.438572884E0
1.738074412E1,-5.113072395E0,3.970487356E0,-6.978799820E0
1.739741006E1,-4.527478695E0,6.778135777E0,-7.353827000E0
1.741407599E1,-2.896161556E0,8.899454117E0,-7.188973904E0
1.743074193E1,-1.772719860E0,9.861403465E0,-6.443852425E0
1.744740787E1,-2.391973972E0,9.542112350E0,-5.202795506E0
1.746407381E1,-2.559148788E0,7.655927658E0,-3.121813297E0
1.748073974E1,-2.952398777E0,5.553874016E0,6.146812439E-1
1.749740568E1,-4.424219131E0,4.919547081E0,4.425603390E0
1.751407162E1,-6.415309906E0,7.499087811E0,7.556376457E0
1.753073756E1,-4.110550880E0,1.120522118E1,1.350883961E1
1.754740349E1,3.493251801E0,1.250676346E1,1.718188095E1
1.756406943E1,1.093910408E1,1.284375000E1,1.362327862E1
1.758073537E1,1.390450096E1,1.290108204E1,6.426034927E0
1.759740131E1,1.390300846E1,1.053442574E1,3.847553253E0
1.761406724E1,1.183400440E1,6.259803772E0,4.494441032E0
1.763073318E1,9.290904999E0,5.091505051E-1,3.350030422E0
1.764739912E1,7.236113548E0,-5.268149853E0,1.953584194E0
1.766406506E1,5.544418335E0,-1.004176807E1,2.262410879E0
1.768073099E1,4.294909477E0,-1.435551262E1,3.308233261E0
1.769739693E1,3.442951202E0,-1.827966309E1,4.310166836E0
1.771406287E1,1.985183477E0,-2.087578773E1,4.012315750E0
1.773072881E1,-6.669387817E-1,-2.115964508E1,2.625968695E0
1.774739474E1,-3.036525249E0,-2.080869484E1,1.001558304E-1
1.776406068E1,-4.819428444E0,-2.004993820E1,-2.985393047E0
1.778072662E1,-6.019505978E0,-1.852453232E1,-5.507310867E0
1.779739256E1,-6.007307529E0,-1.667892838E1,-6.677825451E0
1.781405849E1,-4.978664398E0,-1.581131935E1,-6.952687263E0
1.783072443E1,-4.240510464E0,-1.535077763E1,-5.978302479E0
1.784739037E1,-3.155949593E0,-1.492335701E1,-4.506551266E0
1.786405631E1,-1.535079241E0,-1.309089470E1,-3.138109207E0
1.788072224E1,1.203442097E0,-7.420319557E0,-2.815708160E0
1.789738818E1,7.550981998E0,1.064557552E0,-2.285304070E0
1.791405412E1,2.221673965E1,8.681642532E0,-6.792068481E-3
1.793072006E1,3.322621155E1,1.494707298E1,4.164805412E0
1.794738599E1,2.921363831E1,1.724589729E1,1.013377380E1
1.796405193E1,1.946617508E1,1.439225388E1,1.662828445E1
1.798071787E1,9.758483887E0,1.148826885E1,1.660228920E1
1.799738381E1,2.241104603E0,7.804010868E0,1.044953156E1
1.801404974E1,-5.772140503E0,5.183190346E0,5.032074451E0
1.803071568E1,-1.261878014E1,3.960297108E0,1.607861280E0
1.804738162E1,-1.543892288E1,3.301554203E0,-7.050938606E-1
1.806404756E1,-1.552965736E1,3.142993450E0,-1.944442511E0
1.808071349E1,-1.361666298E1,3.285844326E0,-1.996567726E0
1.809737943E1,-1.088571262E1,3.829558849E0,-4.973447323E-1
1.811404537E1,-9.468373299E0,4.980733871E0,6.960921288E-1
1.813071131E1,-1.081316662E1,5.431966782E0,2.416271925E0
1.814737724E1,-1.289338493E1,4.093836784E0,5.810320854E0
1.816404318E1,-1.429374695E1,1.650653362E0,9.231647491E0
1.818070912E1,-1.380714321E1,-1.227070332E0,9.354575157E0
1.819737506E1,-1.030805969E1,-1.884068012E0,7.044513702E0
1.821404099E1,-5.982131958E0,8.584928513E-1,3.463706255E0
1.823070693E1,-4.209269524E0,7.955750465E0,3.267935991E0
1.824737287E1,3.129835129E-1,1.576001167E1,6.340958595E0
1.826403881E1,1.551680470E1,1.850433922E1,7.257160187E0
1.828070474E1,3.011390495E1,1.823817062E1,6.995541096E0
1.829737068E1,3.149424171E1,1.283730507E1,6.824265003E0
1.831403662E1,2.192314911E1,4.335103035E0,1.010353565E1
1.833070256E1,1.200855255E1,-3.137278080E0,1.106386757E1
1.834736849E1,5.764842033E0,-7.390178204E0,8.453808784E0
1.836403443E1,2.980455875E0,-9.670050621E0,3.142309904E0
1.838070037E1,1.365400314E0,-1.135877705E1,-1.147740602E0
1.839736631E1,-5.727548599E-1,-1.306485653E1,-3.818243504E0
1.841403224E1,-1.521714449E0,-1.491198540E1,-5.112749100E0
1.843069818E1,-2.193246365E0,-1.583986855E1,-5.323514462E0
1.844736412E1,-3.095447063E0,-1.611710548E1,-5.069737434E0
1.846403006E1,-4.014798164E0,-1.587598228E1,-5.464600563E0
1.848069599E1,-4.996996403E0,-1.539155006E1,-6.630944252E0
1.849736193E1,-6.400613308E0,-1.473861885E1,-8.123800278E0
1.851402787E1,-7.130323887E0,-1.422606277E1,-9.564896584E0
1.853069381E1,-7.065104961E0,-1.352718830E1,-1.036361122E1
1.854735974E1,-5.604899883E0,-1.329318047E1,-9.372564316E0
1.856402568E1,-3.816069841E0,-1.338402557E1,-7.598421097E0
1.858069162E1,-2.899354696E0,-1.326315880E1,-5.739276886E0
1.859735756E1,-8.476738930E-1,-9.251245499E0,-2.024894476E0
1.861402349E1,7.969014168E0,3.979234695E-1,5.493512630E0
1.863068943E1,2.893696976E1,1.152176380E1,1.078422928E1
1.864735537E1,4.891047287E1,1.731114960E1,9.083700180E0
1.866402131E1,4.104376221E1,1.757469368E1,1.077751732E1
1.868068724E1,1.876365280E1,1.326557255E1,1.605501366E1
1.869735318E1,3.266087532E0,8.465541840E0,1.408925438E1
1.871401912E1,-4.583274841E0,5.452545166E0,6.697326660E0
1.873068506E1,-7.971149921E0,4.077033043E0,6.053340435E-2
1.874735099E1,-9.840347290E0,3.377130032E0,-3.270256996E0
1.876401693E1,-1.193881035E1,3.300338745E0,-4.203410149E0
1.878068287E1,-1.428158951E1,3.338146687E0,-3.764853716E0
1.879734881E1,-1.478767967E1,3.332656384E0,-2.472877264E0
1.881401474E1,-1.347607231E1,3.832966328E0,-4.019285440E-1
1.883068068E1,-1.235341454E1,4.467518330E0,1.314563751E0
1.884734662E1,-1.191559887E1,4.821700573E0,2.914899111E0
1.886401256E1,-1.153610706E1,4.606160164E0,4.896646976E0
1.888067849E1,-1.112120914E1,3.644716740E0,5.805693626E0
1.889734443E1,-9.865758896E0,3.030772209E0,5.883429050E0
1.891401037E1,-7.043514252E0,4.132356167E0,5.867063999E0
1.893067631E1,-3.164366484E0,7.018724442E0,5.324856281E0
1.894734224E1,2.037936211E0,1.048574448E1,3.724657297E0
1.896400818E1,8.456109047E0,1.425506973E1,2.562422276E0
1.898067412E1,1.826418877E1,1.661024857E1,1.368268967E0
1.899734006E1,2.715862274E1,1.389942169E1,5.020036697E-1
1.901400599E1,2.688716507E1,7.488285065E0,2.946879148E0
1.903067193E1,1.935519791E1,1.082057953E-1,6.261071682E0
1.904733787E1,1.124317932E1,-6.046052933E0,8.084589005E0
1.906400381E1,5.508803368E0,-1.035994244E1,7.921240807E0
1.908066974E1,2.269071102E0,-1.297509575E1,5.478989601E0
1.909733568E1,1.037852764E0,-1.528841782E1,2.154725790E0
1.911400162E1,1.499133110E-1,-1.713443184E1,-1.951469183E-1
1.913066756E1,-1.053450346E0,-1.800481987E1,-1.697654963E0
1.914733349E1,-2.376889944E0,-1.880006027E1,-3.196835756E0
1.916399943E1,-2.705427170E0,-1.959178925E1,-4.351261139E0
1.918066537E1,-2.383603811E0,-1.983357811E1,-5.608125687E0
1.919733131E1,-3.730867147E0,-1.776346588E1,-7.563261509E0
1.921399724E1,-7.198750496E0,-1.388238144E1,-1.112420273E1
1.923066318E1,-8.205372810E0,-1.193132973E1,-1.308181095E1
1.924732912E1,-3.652915955E0,-1.259493637E1,-1.019804192E1
1.926399506E1,2.171180248E0,-1.326832008E1,-6.508900642E0
1.928066099E1,3.087333679E0,-8.643701553E0,-2.173127651E0
1.929732693E1,6.640047550E0,2.316703796E0,9.103303909E0
1.931399287E1,2.394589996E1,1.120759773E1,2.195796585E1
1.933065881E1,3.565243530E1,1.670669174E1,2.039212227E1
1.934732474E1,3.073033524E1,1.796885109E1,8.866489410E0
1.936399068E1,1.799731255E1,1.430399513E1,2.743788004E0
1.938065662E1,5.104887009E0,9.852243423E0,3.927485943E-1
1.939732256E1,-3.933418036E0,5.822070122E0,-1.591096640E0
1.941398849E1,-9.154478073E0,3.341074467E0,-2.524743319E0
1.943065443E1,-1.079189110E1,1.741725445E0,-2.144159079E0
1.944732037E1,-1.111843681E1,7.560143471E-1,-1.584575653E0
1.946398631E1,-1.078792953E1,-7.050423622E-1,-1.609666348E0
1.948065224E1,-9.087121010E0,-1.292571545E0,-6.730023623E-1
1.949731818E1,-8.242515564E0,1.587285995E-1,3.646657467E-1
1.951398412E1,-9.585993767E0,2.503448963E0,-9.459254146E-1
1.953065006E1,-1.130703163E1,4.488323212E0,-2.280432701E0
1.954731599E1,-1.181285477E1,5.261041164E0,-1.662263155E0
1.956398193E1,-1.152823925E1,4.660717964E0,-2.526942492E-1
1.958064787E1,-1.039873886E1,2.770213604E0,1.453079462E0
1.959731381E1,-9.060878754E0,1.513758659E0,3.487906218E0
1.961397974E1,-8.043203354E0,1.234537601E0,3.205503464E0
1.963064568E1,-7.662948608E0,3.139760971E0,2.752773762E-1
1.964731162E1,-7.175150871E0,7.861592293E0,-2.649317980E-1
1.966397756E1,-1.666997910E0,1.186013889E1,3.319442987E0
1.968064349E1,1.211559868E1,1.420194912E1,1.107501984E1
1.969730943E1,3.042114639E1,1.390639496E1,1.838125038E1
1.971397537E1,3.678390121E1,1.166361237E1,1.503483200E1
1.973064131E1,2.924764633E1,6.570467472E0,9.289878845E0
1.974730724E1,1.632054901E1,1.094889641E0,8.069557190E0
1.976397318E1,5.996888161E0,-3.879698753E0,7.773659229E0
1.978063912E1,-2.678704262E-1,-7.658444881E0,7.673284531E0
1.979730506E1,-2.505712032E0,-1.050495243E1,6.472447395E0
1.981397099E1,-1.861786366E0,-1.333506393E1,4.156163216E0
1.983063693E1,-1.010177612E0,-1.559586906E1,1.523437262E0
1.984730287E1,-6.524524689E-1,-1.705970955E1,-9.343247414E-1
1.986396881E1,-1.208265781E0,-1.745286560E1,-3.875742197E0
1.988063474E1,-2.613769770E0,-1.731068039E1,-6.767842293E0
1.989730068E1,-4.546965122E0,-1.681882286E1,-9.367856979E0
1.991396662E1,-6.646131039E0,-1.653720284E1,-1.081514835E1
1.993063256E1,-8.665346146E0,-1.663334656E1,-9.953887939E0
1.994729849E1,-9.799639702E0,-1.739602852E1,-7.050998211E0
1.996396443E1,-1.016945267E1,-1.769427109E1,-3.974644899E0
1.998063037E1,-1.006373692E1,-1.738335800E1,-3.423442841E0
1.999729631E1,-9.897698402E0,-1.668998718E1,-5.968007565E0
2.001396224E1,-9.485178947E0,-1.472578812E1,-9.814758301E0
2.003062818E1,-3.084733009E0,-1.141628551E1,-8.135781288E0
2.004729412E1,1.684288406E1,-9.470945358E0,4.297945023E0
2.006396006E1,3.853692627E1,-3.092799664E0,1.625934219E1
2.008062599E1,4.347469711E1,1.481185675E0,1.635672951E1
2.009729193E1,3.821213531E1,2.577936172E0,1.817043686E1
2.011395787E1,2.290924454E1,5.045039177E0,1.328010559E1
2.013062381E1,1.051434422E1,5.163158894E0,5.275135994E0
2.014728974E1,3.659614563E0,4.677600384E0,1.213520288E0
2.016395568E1,-5.165386200E-1,3.962281466E0,-2.157890797E-1
2.018062162E1,-4.004887104E0,3.546877384E0,-8.471449614E-1
2.019728756E1,-6.611506462E0,3.276243448E0,-1.317146897E0
2.021395349E1,-7.784478188E0,3.284660339E0,-9.989286661E-1
2.023061943E1,-7.368890762E0,4.215451717E0,-2.131223679E-2
2.024728537E1,-6.929973602E0,5.742177010E0,7.509179115E-1
2.026395131E1,-7.358382225E0,6.804554939E0,4.281709194E-1
2.028061724E1,-7.830097675E0,7.004097462E0,-1.045136452E-1
2.029728318E1,-8.459881783E0,7.033846378E0,-1.725618839E-1
2.031394912E1,-8.957586288E0,6.638127327E0,2.605239153E-1
2.033061506E1,-9.033057213E0,6.285661697E0,9.990297556E-1
2.034728099E1,-9.219173431E0,6.023743629E0,8.181402683E-1
2.036394693E1,-9.263187408E0,5.675091267E0,-1.975822449E-2
2.038061287E1,-8.845370293E0,5.607142448E0,-5.263589621E-1
2.039727881E1,-7.445406914E0,5.892992020E0,-8.493900895E-1
2.041394474E1,-3.487497807E0,5.743965626E0,5.040881634E-1
2.043061068E1,5.040990829E0,3.985284328E0,5.117331982E0
2.044727662E1,1.659734917E1,3.642797470E0,1.130815601E1
2.046394256E1,2.993855858E1,3.592377901E0,1.679805946E1
2.048060849E1,3.932545471E1,1.443268776E0,1.646681404E1
2.049727443E1,3.890800476E1,-2.450727701E0,1.443937969E1
2.051394037E1,2.755090904E1,-6.171160221E0,1.249313545E1
2.053060631E1,1.286791515E1,-8.390534401E0,8.534140587E0
2.054727224E1,2.537254333E0,-9.306085587E0,4.812860489E0
2.056393818E1,-2.499921322E0,-9.290417671E0,3.879063129E0
2.058060412E1,-3.966813564E0,-9.425239563E0,3.514827251E0
2.059727006E1,-3.531726837E0,-9.841617584E0,2.224298954E0
2.061393599E1,-2.084448338E0,-1.066909599E1,2.617669106E-1
2.063060193E1,-1.124948502E0,-1.187854290E1,-2.284532309E0
2.064726787E1,-1.617952347E0,-1.276501179E1,-5.368665218E0
2.066393381E1,-1.889392853E0,-1.335928154E1,-7.430957317E0
2.068059974E1,-1.450624466E0,-1.402252769E1,-8.336881638E0
2.069726568E1,-1.607557297E0,-1.405608845E1,-8.620088577E0
2.071393162E1,-2.572778702E0,-1.383956528E1,-8.917778015E0
2.073059756E1,-3.479669809E0,-1.411615944E1,-8.732661247E0
2.074726349E1,-4.945776463E0,-1.469602013E1,-8.663301468E0
2.076392943E1,-5.999753952E0,-1.581186771E1,-8.927662849E0
2.078059537E1,-6.502851486E0,-1.725013351E1,-7.893226147E0
2.079726131E1,-6.875940323E0,-1.819965553E1,-6.191972256E0
2.081392724E1,-6.021814346E0,-1.925687981E1,-5.044086933E0
2.083059318E1,-5.265300751E0,-1.940980148E1,-4.199700356E0
2.084725912E1,-3.176922321E0,-1.739132118E1,-2.854397058E0
2.086392506E1,5.281731606E0,-1.146413898E1,2.358814001E0
2.088059099E1,2.621570587E1,-3.973384857E0,9.351849556E0
2.089725693E1,4.673507690E1,4.907012939E0,1.376944733E1
2.091392287E1,4.514625931E1,8.629598618E0,1.492528057E1
2.093058881E1,2.402121735E1,1.036132431E1,1.515628815E1
2.094725474E1,8.169400215E0,7.906985760E0,9.815896034E0
2.096392068E1,1.845617294E-1,6.705619812E0,5.552383900E0
2.098058662E1,-2.620662212E0,5.054264545E0,3.045059919E0
2.099725256E1,-3.929497242E0,3.427168131E0,1.751940966E0
2.101391849E1,-4.773158073E0,2.550685406E0,5.660481453E-1
2.103058443E1,-4.773673058E0,2.376789093E0,-2.831501961E-1
2.104725037E1,-5.113486290E0,2.691241741E0,-9.165644646E-1
2.106391631E1,-5.454056740E0,2.730714798E0,-1.635752082E0
2.108058224E1,-5.697141647E0,2.637499094E0,-1.847922325E0
2.109724818E1,-5.323594093E0,2.475281477E0,-1.669550180E0
2.111391412E1,-4.768433571E0,1.815063477E0,-1.681025743E0
2.113058006E1,-4.316075325E0,8.997111320E-1,-1.024997711E0
2.114724599E1,-4.322610855E0,7.149715424E-1,-1.664524078E-1
2.116391193E1,-4.580336094E0,5.632574558E-1,-3.552293777E-1
2.118057787E1,-4.288346291E0,3.321676254E-1,-4.507312775E-1
2.119724381E1,-3.416208744E0,-8.825635910E-2,1.558308601E-1
2.121390974E1,-1.714227200E0,-4.084138870E-1,1.005241871E0
2.123057568E1,-7.177448273E-2,-5.743317604E-1,2.237370014E0
2.124724162E1,4.933352470E-1,5.201478004E-1,4.592860222E0
2.126390756E1,1.764553070E0,1.266217709E0,7.386395931E0
2.128057349E1,3.522384644E0,3.478517532E-1,8.068758011E0
2.129723943E1,3.751872063E0,-9.306416512E-1,6.673261166E0
2.131390537E1,2.003319025E0,-1.554104328E0,4.569258690E0
2.133057131E1,1.520366669E-1,-1.369836330E0,2.833664894E0
2.134723724E1,-1.499920368E0,-1.012188435E0,1.248101234E0
2.136390318E1,-2.557068110E0,-6.762890816E-1,5.164117813E-1
2.138056912E1,-2.844714403E0,-6.300706863E-1,7.179450989E-2
2.139723506E1,-2.550375223E0,-6.678686142E-1,8.439350128E-2
2.141390099E1,-1.229702711E0,-5.741381645E-1,3.378229141E-1
2.143056693E1,4.905523956E-1,-6.432461739E-1,2.660703659E-1
2.144723287E1,1.887701511E0,-6.976079941E-1,-3.527965546E-1
2.146389881E1,2.648843765E0,-8.021640778E-1,-1.651086330E0
2.148056474E1,3.267456770E0,-7.718052864E-1,-2.643706799E0
2.149723068E1,3.495774984E0,-3.154611588E-1,-3.018336773E0
2.151389662E1,3.640332937E0,1.612424850E-2,-3.327012539E0
2.153056256E1,3.609827280E0,5.038213730E-2,-2.915336609E0
2.154722849E1,3.210393906E0,1.320633888E-1,-1.774402142E0
2.156389443E1,2.846526384E0,2.445540428E-1,-1.294891834E0
2.158056037E1,2.409941196E0,3.268561363E-1,-2.076045513E0
2.159722631E1,1.905905604E0,3.936629295E-1,-2.884803772E0
2.161389224E1,1.900004148E0,1.962618828E-1,-2.972093105E0
2.163055818E1,2.258102894E0,-2.432193756E-1,-2.011631966E0
2.164722412E1,2.231909752E0,-4.485917091E-1,-9.084835052E-1
2.166389006E1,1.687004685E0,-6.668553352E-1,1.881732941E-1
2.168055599E1,8.790850639E-1,-9.582188129E-1,7.454891205E-1
2.169722193E1,1.877117157E-2,-8.244016171E-1,1.221585274E0
2.171388787E1,4.630327225E-1,-2.259678841E-1,-3.897275925E-1
2.173055381E1,1.248363376E0,8.890151978E-2,-2.797021866E-1
2.174721974E1,9.674224854E-1,2.818450928E-1,-1.335678101E-1
2.176388568E1,5.064786673E-1,-1.429979801E-1,3.671350479E-1
2.178055162E1,5.575758219E-1,-4.029033184E-1,-3.601264954E-2
2.179721756E1,8.523775339E-1,-8.188536167E-1,-1.825628281E-1
2.181388349E1,8.917000294E-1,-1.178068399E0,5.838651657E-1
2.183054943E1,6.336066723E-1,-1.473757029E0,1.527733803E0
2.184721537E1,6.364247799E-1,-1.385286212E0,1.269418716E0
2.186388131E1,8.075792789E-1,-1.144224405E0,1.855468750E-1
2.188054724E1,9.632096291E-1,-8.626532555E-1,-8.527898788E-1
2.189721318E1,7.588860989E-1,-4.298391342E-1,-1.384024143E0
2.191387912E1,7.683479786E-1,-1.564633846E-1,-1.448837757E0
2.193054506E1,8.593187332E-1,-1.624469757E-1,-7.324991226E-1
2.194721099E1,6.869297028E-1,-3.231713772E-1,5.198993683E-1
2.196387693E1,2.625300884E-1,-5.562984943E-1,1.070404053E0
2.198054287E1,3.074812889E-2,-9.689184427E-1,1.459462166E0
2.199720881E1,-3.672885895E-2,-1.208330035E0,1.948598862E0
2.201387474E1,-3.520965576E-3,-1.175999761E0,2.025467873E0
2.203054068E1,9.571576118E-2,-9.732040167E-1,1.351045609E0
2.204720662E1,2.868468761E-1,-7.724281549E-1,5.728549957E-1
2.206387256E1,2.953052521E-3,-6.771848202E-1,-3.960609436E-2
2.208053849E1,-1.657168865E-1,-5.332635641E-1,-4.122838974E-1
2.209720443E1,-1.709086895E-1,-3.096089363E-1,-7.877216339E-1
2.211387037E1,-2.662038803E-2,-6.027865410E-2,-9.275493622E-1
2.213053631E1,1.492404938E-2,1.079468727E-1,-9.178819656E-1
2.214720224E1,1.428632736E-1,1.690089703E-1,-1.036802292E0
2.216386818E1,3.014953136E-1,1.838793755E-1,-1.012158394E0
2.218053412E1,5.175466537E-1,7.581853867E-2,-9.501047134E-1
2.219720006E1,7.024729252E-1,6.205773354E-2,-7.388134003E-1
2.221386599E1,8.040933609E-1,4.170703888E-2,-5.564451218E-1
2.223053193E1,6.509797573E-1,-2.193450928E-3,-6.206388474E-1
2.224719787E1,4.560179710E-1,4.028463364E-2,-8.783769608E-1
2.226386381E1,4.233713150E-1,6.581044197E-2,-1.432876110E0
2.228052974E1,2.908515930E-1,2.465660572E-1,-5.519800186E-1
2.229719568E1,4.771504402E-1,3.001835346E-1,1.195926666E-1
2.231386162E1,6.726236343E-1,3.977484703E-1,4.106979370E-1
2.233052756E1,6.317596436E-1,3.786087036E-1,3.487606049E-1
