"Time (s)","Acceleration x (m/s^2)","Acceleration y (m/s^2)","Acceleration z (m/s^2)"
1.060308700E-2,2.136491537E0,2.945265532E0,9.999306679E0
2.726902400E-2,2.082653046E0,2.922832966E0,1.043809032E1
4.393496200E-2,1.449452281E0,2.811267614E0,9.795019150E0
6.060089900E-2,8.682954907E-1,2.740380049E0,9.045168877E0
7.726683700E-2,8.916255236E-1,2.525923491E0,9.026624680E0
9.393277400E-2,1.133300662E0,2.450250387E0,9.188439369E0
1.105987120E-1,1.213161111E0,2.443670034E0,9.178867340E0
1.272646490E-1,1.398006678E0,2.471785784E0,9.201300621E0
1.439305870E-1,1.316351533E0,2.653640270E0,9.282656670E0
1.605965240E-1,1.496112347E0,2.716152906E0,9.268898010E0
1.772624620E-1,1.750947952E0,2.910868645E0,8.989535332E0
1.939283990E-1,1.791625977E0,3.128615618E0,8.692227364E0
2.105943370E-1,1.781456470E0,3.213560820E0,8.738588333E0
2.272602740E-1,1.773380637E0,3.224029303E0,8.766105652E0
2.439262120E-1,1.585843205E0,3.221337557E0,8.878269196E0
2.605921490E-1,1.515254974E0,3.218346357E0,9.122935295E0
2.772580870E-1,1.542772412E0,3.152543783E0,9.424730301E0
2.939240240E-1,1.771286964E0,3.217449188E0,9.444171906E0
3.105899620E-1,1.996810555E0,3.433401346E0,9.407382011E0
3.272558990E-1,2.511566401E0,3.507878065E0,9.297013283E0
3.439218370E-1,3.204288721E0,3.585943937E0,9.500403404E0
3.605877740E-1,3.241078377E0,3.403790236E0,1.030798054E1
3.772537120E-1,2.792124987E0,3.712763548E0,1.068365383E1
3.939196490E-1,1.986940145E0,3.561118364E0,9.870393753E0
4.105855870E-1,1.621436477E0,3.557528973E0,9.710971832E0
4.272515240E-1,1.815853238E0,3.087339401E0,1.015484047E1
4.439174620E-1,1.903490424E0,3.118745327E0,1.037228775E1
4.605833990E-1,1.485344648E0,3.202793121E0,9.931410789E0
4.772493370E-1,9.960124493E-1,2.647060156E0,9.311071396E0
4.939152740E-1,1.081256747E0,2.604587555E0,9.006285667E0
5.105812120E-1,6.852445602E-1,3.702294827E0,9.109774590E0
5.272471490E-1,-2.650051117E-1,5.628517151E0,8.776275635E0
5.439130870E-1,2.665006220E-1,4.101597309E0,7.746165276E0
5.605790240E-1,9.744769931E-1,3.762414455E0,8.582157135E0
5.772449620E-1,1.205982566E0,4.513162613E0,8.843274117E0
5.939108990E-1,5.880361795E-1,5.501697540E0,8.487042427E0
6.105768370E-1,2.542374097E-2,5.600700378E0,8.023732185E0
6.272427740E-1,2.018944174E-1,5.195415974E0,7.477869987E0
6.439087120E-1,3.173480928E-1,5.591727257E0,7.162017345E0
6.605746490E-1,5.473581553E-1,5.404190063E0,7.204789162E0
6.772405870E-1,8.144569993E-1,4.833800793E0,7.514659405E0
6.939065240E-1,7.384848595E-1,4.750051975E0,8.138587952E0
7.105724620E-1,6.966105103E-1,4.942674160E0,8.525926590E0
7.272383990E-1,6.529414654E-1,4.976472855E0,8.752047539E0
7.439043370E-1,3.011965454E-1,4.982754230E0,8.720642090E0
7.605702740E-1,-7.208377868E-2,5.003990173E0,8.303094864E0
7.772362120E-1,-2.213360965E-1,5.088935375E0,8.015656471E0
7.939021490E-1,-1.941177398E-1,5.171487808E0,8.214560509E0
8.105680870E-1,1.606182158E-1,4.983651161E0,8.617751122E0
8.272340240E-1,2.826521695E-1,4.838287354E0,8.806484222E0
8.438999620E-1,1.944168471E-2,4.635196686E0,8.632705688E0
8.605658990E-1,-4.139583111E-1,4.632205486E0,8.330612183E0
8.772318370E-1,-4.666004181E-1,4.576871395E0,8.319246292E0
8.938977740E-1,-3.388835192E-1,4.635196686E0,8.175676346E0
9.105637120E-1,-1.025922745E-1,4.709074974E0,8.100602150E0
9.272296490E-1,-2.991028305E-4,4.555934429E0,8.289036751E0
9.438955870E-1,1.007976532E-1,4.359723091E0,8.653344154E0
9.605615240E-1,-3.619144112E-2,4.464707851E0,8.786145210E0
9.772274620E-1,-3.113660514E-1,4.690231323E0,8.778368950E0
9.938933990E-1,-6.747759581E-1,4.922933578E0,8.678468704E0
1.010559337E0,-8.682954907E-1,4.921437740E0,8.596215248E0
1.027225274E0,-9.864411354E-1,5.010271549E0,8.632407188E0
1.043891212E0,-9.502496719E-1,5.093122959E0,8.963812828E0
1.060557149E0,-6.879364848E-1,4.989334106E0,9.404989243E0
1.077223087E0,-5.781657696E-1,5.026422977E0,9.638887405E0
1.093889024E0,-5.509474277E-1,4.904388905E0,9.509376526E0
1.110554962E0,-5.949155092E-1,4.538586140E0,9.340383530E0
1.127220899E0,-6.000002623E-1,4.730311394E0,9.416953087E0
1.143886837E0,-4.295116663E-1,4.264308929E0,9.753743172E0
1.160552774E0,-3.029911816E-1,4.253242016E0,1.023440170E1
1.177218712E0,-2.066800594E-1,4.057030678E0,1.030050373E1
1.193884649E0,-1.636092514E-1,4.097409725E0,9.921240807E0
1.210550587E0,-3.580260873E-1,4.111766815E0,9.193523407E0
1.227216524E0,-6.092724800E-1,4.149154663E0,8.469695091E0
1.243882462E0,-8.883354068E-2,2.888735056E0,8.962317467E0
1.260548399E0,-9.942178130E-1,4.767100811E0,8.958429337E0
1.277214337E0,-8.081758618E-1,4.654937267E0,8.592925072E0
1.293880274E0,-3.586242795E-1,4.275375843E0,7.697411537E0
1.310546212E0,-5.614160299E-1,4.693820953E0,7.431210041E0
1.327212149E0,-6.388836503E-1,4.992624283E0,7.245167732E0
1.343878087E0,-4.339981973E-1,4.960620403E0,7.401299477E0
1.360544024E0,3.589234129E-2,4.693222523E0,7.622635841E0
1.377209962E0,4.283152521E-1,4.507180691E0,8.078168869E0
1.393875899E0,6.317051649E-1,4.346263409E0,8.578269005E0
1.410541837E0,7.235297561E-1,4.304089546E0,8.961420059E0
1.427207774E0,4.710869491E-1,4.264608383E0,8.846863747E0
1.443873712E0,4.695914388E-1,4.350749969E0,8.719146729E0
1.460539649E0,7.633104324E-1,4.404588223E0,8.815756798E0
1.477205587E0,7.941179872E-1,4.406383038E0,9.168996811E0
1.493871524E0,6.032904387E-1,4.334000111E0,9.020342827E0
1.510537462E0,8.823533654E-1,4.186841488E0,8.329714775E0
1.527203399E0,2.090728730E-1,5.078765869E0,8.070093155E0
1.543869337E0,5.126622319E-1,4.819743156E0,8.141578674E0
1.560535274E0,7.100701332E-1,4.430909157E0,8.891729355E0
1.577201212E0,1.050150037E0,4.135096550E0,9.771689415E0
1.593867149E0,1.220937729E0,4.280161381E0,1.028465080E1
1.610533087E0,1.239183068E0,4.507180691E0,1.042911720E1
1.627199024E0,1.615454435E0,4.512265205E0,1.034686375E1
1.643864962E0,2.062613010E0,4.336093903E0,1.001396275E1
1.660530899E0,1.948953986E0,4.445266247E0,9.450752258E0
1.677196837E0,1.594218135E0,4.481756687E0,9.149854660E0
1.693862774E0,1.483250976E0,4.683351994E0,9.253643036E0
1.710528712E0,1.522433400E0,4.865206718E0,9.176474571E0
1.727194649E0,1.488335729E0,5.119144917E0,8.892925262E0
1.743860587E0,1.433300734E0,5.189434052E0,8.497810364E0
1.760526524E0,1.527219057E0,5.217549801E0,8.344370842E0
1.777192462E0,1.647458434E0,5.447858810E0,8.426922798E0
1.793858399E0,1.641177177E0,5.667400360E0,8.548956871E0
1.810524337E0,1.428515077E0,5.638686657E0,8.267800331E0
1.827190274E0,1.741376638E0,4.869394302E0,8.070692062E0
1.843856212E0,1.646261930E0,5.314758301E0,8.522336960E0
1.860522149E0,1.713560104E0,5.281857014E0,8.562117577E0
1.877188087E0,1.676471353E0,5.183751106E0,8.525327682E0
1.893854024E0,1.525723577E0,5.046164036E0,8.453244209E0
1.910519962E0,1.453340650E0,4.893621445E0,8.485846519E0
1.927185899E0,1.357627749E0,4.566402912E0,8.516056061E0
1.943851837E0,1.304387450E0,4.447957993E0,8.724829674E0
1.960517774E0,1.462911963E0,4.334000111E0,8.583951950E0
1.977183712E0,1.493420482E0,4.502694130E0,8.210372925E0
1.993849649E0,1.336989641E0,4.767699242E0,7.497311592E0
2.010515587E0,9.993025661E-1,5.032404900E0,6.696912289E0
2.027181524E0,7.971090674E-1,5.218746185E0,6.297310829E0
2.043847462E0,7.561319470E-1,5.348855972E0,6.540481567E0
2.060513399E0,7.139584422E-1,5.394917965E0,6.811468601E0
2.077179337E0,5.309075117E-1,5.435296535E0,7.232904434E0
2.093845274E0,2.958126962E-1,5.462215900E0,7.707880020E0
2.110511212E0,1.989033818E-1,5.461318493E0,8.352446556E0
2.127177149E0,2.216351926E-1,5.393422127E0,8.899206161E0
2.143843087E0,3.008974493E-1,5.258526802E0,9.154939651E0
2.160509024E0,3.888336718E-1,5.164907455E0,9.362815857E0
2.177174962E0,6.044868231E-1,5.040181637E0,9.678070068E0
2.193840899E0,4.683950245E-1,5.010271549E0,9.973284721E0
2.210506837E0,7.208377868E-2,4.980660439E0,1.012552834E1
2.227172774E0,-1.109671518E-1,5.126024246E0,9.915557861E0
2.243838712E0,-1.516451389E-1,5.343770981E0,9.283554077E0
2.260504649E0,-1.253240854E-1,5.505885124E0,8.731110573E0
2.277170587E0,-3.110669367E-2,5.311169147E0,8.721838951E0
2.293836524E0,-3.050848842E-2,5.029414177E0,9.088239670E0
2.310502462E0,2.991028363E-3,4.696512699E0,9.348159790E0
2.327168399E0,-1.680957973E-1,4.563711166E0,9.331410408E0
2.343834337E0,-4.262215197E-1,4.443172455E0,9.101400375E0
2.360500274E0,-4.507479668E-1,4.391726971E0,8.607880592E0
2.377166212E0,-4.160520434E-1,4.346861362E0,7.527820110E0
2.393832149E0,-7.468597889E-1,4.791926384E0,7.086942673E0
2.410498087E0,-7.899305820E-1,4.634897232E0,7.423133850E0
2.427164024E0,-8.138588071E-1,4.826024055E0,8.437391281E0
2.443829962E0,-4.028915167E-1,4.402793884E0,8.935398102E0
2.460495899E0,-1.157527938E-1,4.123730659E0,8.688937187E0
2.477161837E0,9.840483218E-2,4.290031910E0,8.529216766E0
2.493827774E0,4.689932466E-1,4.130908966E0,8.866005898E0
2.510493712E0,7.106683254E-1,4.158426762E0,9.598209381E0
2.527159649E0,7.477570772E-1,4.108476639E0,1.008096218E1
2.543825587E0,7.208378315E-1,4.081258297E0,1.014646530E1
2.560491524E0,7.307082415E-1,4.164707661E0,9.957133293E0
2.577157462E0,8.464609981E-1,4.107878208E0,9.555737495E0
2.593823399E0,1.049252748E0,3.988835335E0,9.271290779E0
2.610489337E0,1.146760225E0,4.000201225E0,8.778069496E0
2.627155274E0,1.023230791E0,4.048057556E0,8.409873962E0
2.643821212E0,8.733802438E-1,4.245465755E0,8.397012711E0
2.660487149E0,9.227322340E-1,4.439284325E0,8.403892517E0
2.677153087E0,9.592227936E-1,4.683651447E0,8.184051514E0
2.693819024E0,9.026923180E-1,4.874777794E0,7.939385414E0
2.710484962E0,5.940182209E-1,5.062913418E0,7.536793232E0
2.727150899E0,4.956133962E-1,4.995914459E0,7.402495861E0
2.743816837E0,5.467599630E-1,5.110770226E0,7.639684677E0
2.760482774E0,6.320042610E-1,4.986044407E0,7.941180229E0
2.777148712E0,9.424729943E-1,4.688137531E0,7.734200954E0
2.793814649E0,9.975079298E-1,5.230710506E0,8.132605553E0
2.810480587E0,8.075776696E-1,5.223232746E0,8.378169060E0
2.827146524E0,7.890332937E-1,4.920839787E0,9.000003815E0
2.843812462E0,8.192426562E-1,4.811667442E0,9.244371414E0
2.860478399E0,9.340981245E-1,4.617848396E0,9.216554642E0
2.877144337E0,8.895317912E-1,4.683351994E0,8.921339989E0
2.893810274E0,6.484549642E-1,4.811966419E0,8.819644928E0
2.910476212E0,5.509474277E-1,4.887938499E0,8.672187805E0
2.927142149E0,6.610172391E-1,4.987539768E0,8.582756042E0
2.943808087E0,5.228317380E-1,5.148756027E0,8.799904823E0
2.960474024E0,5.192425251E-1,5.084748268E0,9.093922615E0
2.977139962E0,8.488538265E-1,5.055735111E0,9.285647392E0
2.993805899E0,1.136889815E0,5.013860703E0,9.040383339E0
3.010471837E0,1.276570916E0,4.961218834E0,8.664112091E0
3.027137774E0,1.085743308E0,4.899304390E0,8.440382957E0
3.043803712E0,9.155537486E-1,4.971388340E0,8.460124016E0
3.060469649E0,1.178764224E0,4.940281391E0,8.670392990E0
3.077135587E0,1.393520117E0,4.286741734E0,8.775976181E0
3.093801524E0,1.505982757E0,4.505684853E0,8.767003059E0
3.110467462E0,1.633699656E0,4.220939159E0,9.097810745E0
3.127133399E0,1.212862015E0,4.099802494E0,8.975178719E0
3.143799337E0,9.203394055E-1,3.912863255E0,8.794221878E0
3.160465274E0,1.115354419E0,3.909573078E0,8.531908035E0
3.177131212E0,1.437488198E0,3.682255030E0,8.354539871E0
3.193797149E0,1.377368569E0,3.727718592E0,8.671888351E0
3.210463087E0,1.740479350E0,3.907479286E0,8.603992462E0
3.227129024E0,2.007877350E0,3.978665829E0,8.085048676E0
3.243794962E0,2.052443504E0,4.007379532E0,7.988438606E0
3.260460899E0,1.798804402E0,3.965505362E0,8.064709663E0
3.277126837E0,1.370788217E0,3.830610037E0,7.884051323E0
3.293792774E0,1.205683470E0,3.442075491E0,8.086244583E0
3.310458712E0,1.013659477E0,3.785445452E0,8.730512619E0
3.327124649E0,6.430711150E-1,4.789234638E0,8.752944946E0
3.343790587E0,1.295115232E0,3.777668715E0,7.961818218E0
3.360456524E0,1.085145116E0,3.742673635E0,8.503493309E0
3.377122462E0,6.837490797E-1,3.707977772E0,9.812666893E0
3.393788399E0,8.446664214E-1,3.773780346E0,1.075902748E1
3.410454337E0,6.640082598E-1,3.244368315E0,1.095972633E1
3.427120274E0,9.664012194E-1,3.227319479E0,1.054875851E1
3.443786212E0,1.175175071E0,3.255435228E0,1.049402237E1
3.460452149E0,1.014257669E0,3.197110176E0,1.029003429E1
3.477118087E0,8.928219676E-1,3.059522867E0,1.028524876E1
3.493784024E0,9.637092948E-1,3.180659533E0,1.063340473E1
3.510449962E0,1.184447169E0,3.262314558E0,1.084636593E1
3.527115899E0,1.120439172E0,3.390330553E0,1.061755180E1
3.543781837E0,1.150349498E0,3.551247835E0,1.002293587E1
3.560447774E0,1.446162224E0,3.752544165E0,9.713065147E0
3.577113712E0,1.055832982E0,3.750749588E0,9.155537605E0
3.593779649E0,1.617847204E0,4.160221100E0,8.719146729E0
3.610445587E0,2.252244234E0,4.283152580E0,8.111668587E0
3.627111524E0,2.151745796E0,4.157529354E0,7.825726509E0
3.643777462E0,1.532004714E0,4.367798805E0,8.018648148E0
3.660443399E0,1.413260818E0,4.242175579E0,8.552546501E0
3.677109337E0,1.481755376E0,4.168895245E0,8.740681648E0
3.693775274E0,1.879562140E0,4.318446636E0,7.865806103E0
3.710441212E0,1.934896231E0,4.098007679E0,7.526324749E0
3.727107149E0,2.265703917E0,3.960719585E0,8.346165657E0
3.743773087E0,2.474178553E0,4.195216179E0,9.520742416E0
3.760439024E0,2.099701881E0,3.864109516E0,1.001486015E1
3.777104962E0,1.595713615E0,3.803690672E0,1.049282646E1
3.793770899E0,1.075573802E0,3.870988846E0,9.446265221E0
3.810436837E0,7.995018363E-1,3.945166349E0,8.160123825E0
3.827102774E0,7.094719410E-1,3.800699711E0,7.714460373E0
3.843768712E0,7.986045480E-1,3.932903051E0,7.994719505E0
3.860434649E0,7.504490018E-1,4.006183147E0,8.365905762E0
3.877100587E0,1.947159469E-1,3.778566122E0,8.621041298E0
3.893766524E0,-1.157527938E-1,3.697210073E0,8.893224716E0
3.910432462E0,-8.464609832E-2,3.855734587E0,8.779266357E0
3.927098399E0,-4.187439755E-2,3.889832258E0,8.787641525E0
3.943764337E0,2.024926096E-1,3.946362734E0,8.752646446E0
3.960430274E0,2.120639086E-1,3.985246181E0,8.628817558E0
3.977096212E0,-1.483550072E-1,4.000201225E0,8.817252159E0
3.993762149E0,-3.750749528E-1,4.059722900E0,9.083154678E0
4.010428087E0,-3.355933726E-1,4.048357010E0,9.523733139E0
4.027094024E0,-1.247258782E-1,4.138985157E0,9.703194618E0
4.043759962E0,8.464609832E-2,4.177868366E0,9.564710617E0
4.060425899E0,1.597209126E-1,4.216153622E0,9.329017639E0
4.077091837E0,-7.986045629E-2,4.262813568E0,9.156135559E0
4.093757774E0,-4.154538214E-1,4.109972000E0,9.145966530E0
4.110423712E0,-4.348955154E-1,4.017250061E0,9.238089561E0
4.127089649E0,-1.289133132E-1,3.995116472E0,9.231808662E0
4.143755587E0,2.273181528E-1,4.170690060E0,9.052945137E0
4.160421524E0,4.357928336E-1,4.324129581E0,8.874680519E0
4.177087462E0,3.278166950E-1,4.497908592E0,8.672486305E0
4.193753399E0,-3.200400248E-2,4.561018944E0,8.226524353E0
4.210419337E0,-4.624129832E-1,4.454239368E0,7.015756130E0
4.227085274E0,-1.689931005E-1,5.088038445E0,7.161418915E0
4.243751212E0,6.352944374E-1,4.984249592E0,8.316853523E0
4.260417149E0,4.501497746E-1,4.909772873E0,8.444869041E0
4.277083087E0,-3.047857881E-1,4.991427898E0,8.921639442E0
4.293749024E0,-7.199404836E-1,4.853840828E0,9.043673515E0
4.310414962E0,-3.248256743E-1,4.722534657E0,8.758029938E0
4.327080899E0,2.733799815E-1,4.590929508E0,8.521439552E0
4.343746837E0,4.737788737E-1,4.625027180E0,8.344670296E0
4.360412774E0,-5.862415582E-2,4.541876316E0,8.008178711E0
4.377078712E0,-3.191427290E-1,4.352544308E0,9.608678818E0
4.393744649E0,2.557329237E-1,4.196113586E0,1.057507992E1
4.410410587E0,2.970091105E-1,4.132703781E0,1.056520939E1
4.427076524E0,1.576271951E-1,4.149752617E0,1.019312572E1
4.443742462E0,1.049850956E-1,4.149154663E0,9.464510918E0
4.460408399E0,4.064807594E-1,4.098606110E0,9.219545364E0
4.477074337E0,5.650052428E-1,4.052544117E0,9.573683739E0
4.493740274E0,9.481559992E-1,4.092025757E0,1.022901726E1
4.510406212E0,1.261017561E0,4.047160625E0,1.092562866E1
4.527072149E0,1.095015407E0,3.797708750E0,1.123998547E1
4.543738087E0,9.053842425E-1,3.547658682E0,1.154806137E1
4.560404024E0,9.068797827E-1,3.327219963E0,1.141765213E1
4.577069962E0,8.805587292E-1,3.000898600E0,1.135723400E1
4.593735899E0,6.535396576E-1,2.689831734E0,1.110359478E1
4.610401837E0,6.897311211E-1,2.329113722E0,1.087059307E1
4.627067774E0,2.988037169E-1,1.744068623E0,1.071087265E1
4.643733712E0,-5.060819983E-1,1.585843205E0,1.127318573E1
4.660399649E0,-9.472586513E-1,2.381755829E0,1.088345432E1
4.677065587E0,-1.890329868E-1,2.853441000E0,8.238787651E0
4.693731524E0,1.107577801E0,3.170190811E0,4.749752998E0
4.710397462E0,1.314856052E0,3.124129057E0,2.642573595E0
4.727063399E0,2.931207716E-1,2.532802820E0,2.359921217E0
4.743729337E0,-1.226620674E0,1.980958104E0,3.840181351E0
4.760395274E0,-1.952842355E0,1.559522152E0,5.868397713E0
4.777061212E0,-1.652244091E0,1.563410521E0,7.468597889E0
4.793727149E0,-9.921240807E-1,2.018645048E0,8.087141991E0
4.810393087E0,-4.671986103E-1,2.631506681E0,7.785347462E0
4.827059024E0,4.833501875E-1,3.180061340E0,7.111169815E0
4.843724962E0,2.000100613E0,3.740580082E0,6.906882763E0
4.860390899E0,3.102593660E0,4.349852562E0,7.400103092E0
4.877056837E0,2.926721096E0,5.157729149E0,7.788039684E0
4.893722774E0,2.014756680E0,6.056832314E0,7.146762848E0
4.910388712E0,1.098604679E0,6.877869606E0,7.507780075E0
4.927054649E0,9.550353289E-1,7.102795124E0,9.046664238E0
4.943720587E0,2.734996319E0,6.270391941E0,1.075663471E1
4.960386524E0,4.067798615E0,5.665904999E0,1.030648518E1
4.977052462E0,3.460021496E0,4.720440865E0,6.848856449E0
4.993718399E0,7.779664397E-1,4.556831837E0,4.427918434E0
5.010384337E0,-9.245268703E-1,5.578567028E0,6.323332787E0
5.027050274E0,-2.434697002E-1,5.534299850E0,8.303692818E0
5.043716212E0,1.566999674E0,6.344868183E0,7.699205875E0
5.060382149E0,2.649751902E0,7.986643791E0,6.036792278E0
5.077048087E0,2.343470573E0,8.860622406E0,5.343770981E0
5.093714024E0,3.676572084E0,8.583353996E0,6.795018196E0
5.110379962E0,6.890132904E0,6.718148708E0,1.068425179E1
5.127045899E0,9.550951958E0,3.332005501E0,1.712812424E1
5.143711837E0,8.855537415E0,4.657031000E-1,2.388455772E1
5.160377774E0,6.747460842E0,9.541380405E-1,2.587478828E1
5.177043712E0,3.298206806E0,4.911866665E0,1.907588196E1
5.193709649E0,4.923232496E-1,9.109476089E0,8.324031830E0
5.210375587E0,-1.099501967E0,1.150080299E1,2.158026934E0
5.227041524E0,-2.143370867E0,8.853742599E0,1.344467282E0
5.243707462E0,-5.449653625E0,3.853341818E0,3.254238844E0
5.260373399E0,-8.517551422E0,5.608177781E-1,4.360620022E0
5.277039337E0,-9.139086723E0,2.870489836E0,4.095914364E0
5.293705274E0,-5.826822281E0,8.551948547E0,2.508874655E0
5.310371212E0,-6.251847267E0,1.163689518E1,3.237488985E0
5.327037149E0,-8.984151840E0,1.154447174E1,7.421638489E0
5.343703087E0,-9.476176262E0,1.261884975E1,1.175563812E1
5.360369024E0,-9.808777809E0,1.621735573E1,1.325115299E1
5.377034962E0,-1.077607632E1,2.122643089E1,1.052333450E1
5.393700899E0,-1.010548782E1,2.620439911E1,1.336899948E1
5.410366837E0,-1.067079258E1,2.938685226E1,2.858136940E1
5.427032774E0,-6.367599964E0,2.658814812E1,4.869364166E1
5.443698712E0,4.516153812E0,1.679372597E1,5.286642456E1
5.460364649E0,1.310040474E1,6.455237389E0,3.687429428E1
5.477030587E0,1.146760273E1,-5.712863803E-1,2.137000084E1
5.493696524E0,1.939382792E0,-6.273382664E0,1.681496239E1
5.510362462E0,9.212367237E-2,-1.272204018E1,1.141226864E1
5.527028399E0,2.119442701E0,-1.738744545E1,4.881358147E-1
5.543694337E0,2.936591625E0,-1.887757683E1,-9.885049820E0
5.560360274E0,3.534498215E0,-1.847797394E1,-8.954839706E0
5.577026212E0,6.884748936E0,-1.732134438E1,-1.294217944E0
5.593692149E0,1.052812099E1,-1.343988705E1,3.893421650E0
5.610358087E0,1.320150185E1,-8.860920906E0,3.952643871E0
5.627024024E0,1.481306744E1,-4.904688358E0,5.845964909E0
5.643689962E0,1.293171120E1,-2.052443504E0,1.350030518E1
5.660355899E0,1.117986584E1,-2.297109663E-1,2.218385887E1
5.677021837E0,1.140000534E1,2.210968018E0,2.660250473E1
5.693687774E0,1.006032372E1,5.387739182E0,2.658904457E1
5.710353712E0,3.901497364E0,1.090678501E1,2.525085831E1
5.727019649E0,1.542772412E0,1.332592869E1,2.084627151E1
5.743685587E0,-5.174478889E-1,1.102463150E1,1.020090199E1
5.760351524E0,-4.591228485E0,8.976973534E0,-4.106681943E-1
5.777017462E0,-7.986045361E0,6.904190540E0,-5.622235775E0
5.793683399E0,-1.201585770E1,6.643970966E0,-5.564209938E0
5.810349337E0,-1.542622852E1,9.439684868E0,-8.267202377E-1
5.827015274E0,-1.654248047E1,1.080090237E1,7.624729156E0
5.843681212E0,-1.777059555E1,1.084128094E1,1.819592094E1
5.860347149E0,-1.894876289E1,1.257009602E1,2.042184448E1
5.877013087E0,-1.611506271E1,1.504965782E1,1.492313766E1
5.893679024E0,-6.516553402E0,1.620539093E1,1.375663662E1
5.910344962E0,-9.723833203E-1,1.560868168E1,2.099312973E1
5.927010899E0,-2.057528257E0,1.485793304E1,3.227618790E1
5.943676837E0,1.289432287E0,1.220070362E1,4.110719681E1
5.960342774E0,8.972785950E0,9.434001923E0,3.946332932E1
5.977008712E0,1.605165291E1,4.041776657E0,3.011845779E1
5.993674649E0,1.326820183E1,7.334001660E-1,2.286371994E1
6.010340587E0,8.880363464E0,-2.511267424E0,1.639442444E1
6.027006524E0,8.315358162E0,-5.933003902E0,2.443969250E0
6.043672462E0,4.488935471E0,-8.082655907E0,-1.210110188E1
6.060338399E0,4.751248360E0,-1.249621677E1,-1.150917816E1
6.077004337E0,5.507380486E0,-1.738834381E1,2.081755638E0
6.093670274E0,7.772486210E0,-1.863859367E1,1.064357376E1
6.110336212E0,7.063612461E0,-1.426810265E1,1.886740685E0
6.127002149E0,7.115357399E0,-8.461619377E0,-1.112662506E1
6.143668087E0,1.076859951E1,-5.401198864E0,-9.598209381E0
6.160334024E0,1.333579922E1,-5.724529266E0,3.875176191E0
6.176999962E0,8.777770996E0,-3.287738323E0,1.731237030E1
6.193665899E0,6.081059456E0,-5.285146832E-1,2.557179642E1
6.210331837E0,7.202096939E0,9.005986452E-1,2.657229614E1
6.226997774E0,8.508877754E0,2.387737989E0,2.473341179E1
6.243663712E0,6.708577156E0,3.262613773E0,2.047299004E1
6.260329649E0,3.118446112E0,2.194218397E0,1.834128380E1
6.276995587E0,6.020939946E-1,2.295315027E0,1.627657700E1
6.293661524E0,-3.833002806E0,4.217947960E0,7.332505703E0
6.310327462E0,-3.646362543E0,5.764309883E0,-3.547658682E0
6.326993399E0,-1.086640596E0,7.960621834E0,-2.510669231E0
6.343659337E0,-4.994718075E0,1.338156128E1,4.363312244E0
6.360325274E0,-1.004806042E1,1.558026600E1,8.668598175E0
6.376991212E0,-1.527219009E1,1.795992851E1,9.175876617E0
6.393657149E0,-1.848305893E1,1.984218216E1,5.071886539E0
6.410323087E0,-1.943181419E1,1.931725693E1,4.449453831E0
6.426989024E0,-1.847976875E1,1.631336784E1,1.580040646E1
6.443654962E0,-1.714397621E1,1.357388496E1,2.944996452E1
6.460320899E0,-9.378069878E0,1.038604641E1,3.736422348E1
6.476986837E0,5.641677380E0,7.596912861E0,3.966372681E1
6.493652774E0,1.905793571E1,5.858527184E0,3.607389450E1
6.510318712E0,2.255504608E1,1.580758452E0,2.395963287E1
6.526984649E0,1.484088421E1,-1.978266120E0,1.557368660E1
6.543650587E0,4.293023109E0,-7.013063908E0,1.542892075E1
6.560316524E0,-2.977568626E0,-1.048146057E1,1.132702446E1
6.576982462E0,-3.050848961E0,-1.180678558E1,1.615155339E-1
6.593648399E0,1.935195327E-1,-1.267298698E1,-7.351349354E0
6.610314337E0,5.852545261E0,-1.489651775E1,-4.648955345E0
6.626980274E0,6.536593437E0,-1.442513084E1,-2.725125790E0
6.643646212E0,4.203291893E0,-1.057268715E1,-1.153639603E1
6.660312149E0,6.182754517E0,-7.493124008E0,-1.608156204E1
6.676978087E0,1.352542973E1,-6.904489517E0,-6.445067883E0
6.693644024E0,2.126142502E1,-8.027321815E0,1.146610737E1
6.710309962E0,2.017837334E1,-7.138986588E0,2.674248505E1
6.726975899E0,1.193480110E1,-3.963710785E0,3.178924751E1
6.743641837E0,7.103991508E0,1.314856052E0,2.771486855E1
6.760307774E0,1.030439186E1,5.020142078E0,1.701566124E1
6.776973712E0,1.418854141E1,5.748756409E0,1.039501953E1
6.793639649E0,1.300409412E1,3.379862010E-1,1.870529366E1
6.810305587E0,4.290031910E0,-2.785843849E0,2.579462814E1
6.826971524E0,-5.234299660E0,7.133602500E-1,1.686281967E1
6.843637462E0,-9.111868858E0,4.518247128E0,3.687040567E0
6.860303399E0,-8.579166412E0,6.222236156E0,-2.295614243E0
6.876969337E0,-8.814261436E0,5.224429131E0,4.546363056E-1
6.893635274E0,-1.063490009E1,5.287240505E0,3.981058598E0
6.910301212E0,-1.426481247E1,8.180761337E0,2.166401863E0
6.926967149E0,-1.727618027E1,1.090080261E1,-1.902892232E0
6.943633087E0,-1.589103413E1,1.077218819E1,5.730810165E-1
6.960299024E0,-1.295982647E1,1.008664513E1,1.348953724E1
6.976964962E0,-1.034925747E1,9.473783493E0,2.677089882E1
6.993630899E0,-8.453244209E0,8.601300240E0,3.181227875E1
7.010296837E0,-3.334099293E0,7.267600536E0,2.812822914E1
7.026962774E0,4.301397800E0,4.800002098E0,2.146182442E1
7.043628712E0,9.551849365E0,3.535694599E0,1.978595161E1
7.060294649E0,7.605885983E0,2.659622431E0,2.367847633E1
7.076960587E0,2.885744095E0,-1.319342613E0,2.610509682E1
7.093626524E0,2.855235577E0,-4.774279594E0,2.454228401E1
7.110292462E0,5.622834206E0,-6.233303070E0,1.599093437E1
7.126958399E0,5.900102615E0,-6.151648045E0,6.688537598E0
7.143624337E0,4.588536739E0,-7.737192154E0,3.769891977E0
7.160290274E0,5.887240887E0,-1.250548935E1,3.559921980E0
7.176956212E0,7.684549809E0,-1.376351547E1,-2.126621008E0
7.193622149E0,1.014018440E1,-1.096869946E1,-1.718794441E1
7.210288087E0,1.267657661E1,-9.382556915E0,-2.775225639E1
7.226954024E0,2.198585320E1,-1.345932865E1,-2.235135651E1
7.243619962E0,1.837089539E1,-1.441286850E1,2.437688112E-1
7.260285899E0,1.209721375E1,-1.336870003E1,2.273929214E1
7.276951837E0,5.382953644E0,-5.790630817E0,2.791765976E1
7.293617774E0,4.893920422E0,3.155534863E-1,1.382722473E1
7.310283712E0,7.462615490E0,3.754637718E0,1.665404558E0
7.326949649E0,8.892327309E0,1.909771562E0,7.309474945E0
7.343615587E0,8.141280174E0,-3.453142166E0,2.711247444E1
7.360281524E0,2.257927179E0,-3.139981508E0,3.589233780E1
7.376947462E0,-1.769492388E0,1.598405480E0,2.627767944E1
7.393613399E0,-2.819941521E0,5.708377361E0,1.664656830E1
7.410279337E0,-2.125424623E0,7.739584923E0,8.770891190E0
7.426945274E0,-4.857429981E0,8.079665184E0,7.947760582E0
7.443611212E0,-1.317817116E1,9.249156952E0,1.066510963E1
7.460277149E0,-1.937588120E1,1.127827072E1,8.453244209E0
7.476943087E0,-1.973749733E1,1.184148121E1,3.150151014E0
7.493609024E0,-1.568106365E1,1.133539867E1,8.375477791E0
7.510274962E0,-1.306002617E1,9.525228500E0,2.047657967E1
7.526940899E0,-1.189711380E1,7.484450340E0,2.876591492E1
7.543606837E0,-5.700301647E0,4.855336189E0,2.924477959E1
7.560272774E0,2.506780863E0,1.806282043E0,2.271685982E1
7.576938712E0,7.629814148E0,-3.466601670E-1,1.616710663E1
7.593604649E0,7.485048294E0,1.642074585E-1,1.454237938E1
7.610270587E0,3.760021687E0,-3.446262836E0,1.630020714E1
7.626936524E0,-1.570888042E0,-7.123134136E0,1.996541214E1
7.643602462E0,-9.002995491E-1,-9.194122314E0,2.016760635E1
7.660268399E0,1.021436214E0,-7.809275627E0,1.252881908E1
7.676934337E0,3.349054337E0,-6.856334209E0,6.428019047E0
7.693600274E0,4.018147469E0,-7.502994537E0,6.729514599E0
7.710266212E0,5.467001438E0,-8.908778191E0,8.853444099E0
7.726932149E0,7.842176914E0,-8.903991699E0,4.926223755E0
7.743598087E0,1.031336498E1,-6.807580471E0,-6.448058605E0
7.760264024E0,1.441047573E1,-6.575476646E0,-1.434975719E1
7.776929962E0,1.724955940E1,-7.398009300E0,-1.148824024E1
7.793595899E0,1.659631920E1,-9.242876053E0,3.806382656E0
7.810261837E0,1.307797241E1,-1.126600742E1,2.226880455E1
7.826927774E0,6.848557472E0,-6.981359005E0,2.613710022E1
7.843593712E0,4.671986103E0,-9.619147182E-1,1.355234909E1
7.860259649E0,5.418247700E0,5.187938690E0,3.170190811E0
7.876925587E0,8.215158463E0,2.912962437E0,8.744570732E0
7.893591524E0,8.333602905E0,-4.048655987E0,2.691476822E1
7.910257462E0,3.533900023E0,-4.388137817E0,3.810570145E1
7.926923399E0,-9.466604590E-1,2.367099762E0,2.593520737E1
7.943589337E0,-4.214657784E0,8.240582466E0,3.487239838E0
7.960255274E0,-4.160819530E0,8.972486496E0,-7.471588612E0
7.976921212E0,-4.369892120E0,5.673382282E0,-3.590430260E0
7.993587149E0,-8.868100166E0,3.598206997E0,1.509871125E0
8.010253087E0,-1.632144356E1,6.259624004E0,5.623133183E-1
8.026919024E0,-2.157548332E1,1.058644581E1,-6.694519520E0
8.043584962E0,-2.117618179E1,1.257009602E1,-6.400501251E0
8.060250899E0,-1.580549049E1,1.236999607E1,6.264110565E0
8.076916837E0,-1.120050335E1,1.145055389E1,2.107777596E1
8.093582774E0,-9.618847847E0,1.049850941E1,2.726711082E1
8.110248712E0,-7.717750549E0,1.018325520E1,2.436820602E1
8.126914649E0,-2.067099571E0,8.315358162E0,2.018734741E1
8.143580587E0,4.669892311E0,5.399404526E0,1.937737656E1
8.160246524E0,6.087938786E0,5.777171135E0,2.028246117E1
8.176912462E0,3.062813044E0,2.451147795E0,2.134457588E1
8.193578399E0,9.346963167E-1,8.673981763E-3,2.146870422E1
8.210244337E0,2.043769598E0,-2.624926329E0,1.718435478E1
8.226910274E0,4.457529545E0,-5.775376320E0,1.159292698E1
8.243576212E0,4.200001717E0,-9.675079346E0,9.435796738E0
8.260242149E0,2.960519791E0,-1.374138260E1,9.527322769E0
8.276908087E0,6.218048573E0,-1.579233074E1,3.843770504E0
8.293574024E0,1.060588741E1,-1.358854103E1,-1.136740303E1
8.310239962E0,1.588804340E1,-1.079581738E1,-2.386900330E1
8.326905899E0,2.018375778E1,-1.052183914E1,-1.490638733E1
8.343571837E0,2.119053841E1,-1.206850052E1,7.489833832E0
8.360237774E0,1.608335686E1,-1.024277687E1,2.080469513E1
8.376903712E0,1.138983536E1,-6.283552170E0,1.731625938E1
8.393569649E0,1.143559837E1,-1.932204247E0,2.618944407E0
8.410235587E0,1.422862053E1,6.963114142E-1,-6.548258305E0
8.426901524E0,1.765185356E1,-6.830611229E0,6.996912479E0
8.443567462E0,1.150678539E1,-1.517677689E1,3.630659866E1
8.460233399E0,1.532602906E0,-1.099382401E1,4.623770905E1
8.476899337E0,-4.395914078E0,-2.272284269E0,2.972095108E1
8.493565274E0,-4.261318207E0,2.943470955E0,1.187527943E1
8.510231212E0,-1.737189293E0,4.594219685E0,5.697011471E0
8.526897149E0,-1.287936807E0,4.971388340E0,7.787441254E0
8.543563087E0,-5.273781300E0,6.232405663E0,1.209033489E1
8.560229024E0,-1.229641628E1,9.057730675E0,9.605089188E0
8.576894962E0,-1.312014580E1,1.067198944E1,1.948355794E0
8.593560899E0,-1.009741211E1,1.182742310E1,4.954937458E0
8.610226837E0,-7.234998226E0,1.286441231E1,1.696840286E1
8.626892774E0,-1.199013519E1,1.279741383E1,2.504866600E1
8.643558712E0,-1.379372501E1,1.190758324E1,2.868844795E1
8.660224649E0,-1.090648556E1,9.767801285E0,2.623431015E1
8.676890587E0,-4.360919476E0,5.929414749E0,2.130688858E1
8.693556524E0,1.557727575E0,2.293221474E0,1.954008865E1
8.710222462E0,1.002891779E0,5.844469070E-1,1.708565140E1
8.726888399E0,2.594118834E0,-6.010172367E0,1.934028816E1
8.743554337E0,4.720739841E0,-1.317547989E1,2.594088936E1
8.760220274E0,5.221737385E0,-1.619940948E1,3.219243622E1
8.776886212E0,7.540083408E0,-1.614377594E1,2.586342239E1
8.793552149E0,8.829814911E0,-1.352094364E1,1.119362450E1
8.810218087E0,1.145115185E1,-1.122084236E1,3.799802303E0
8.826884024E0,1.300977707E1,-1.022004509E1,-2.568396091E0
8.843549962E0,9.906285286E0,-8.762217522E0,-1.224227905E1
8.860215899E0,8.115556717E0,-7.231708050E0,-1.586471367E1
8.876881837E0,9.629914284E0,-7.450651646E0,-1.085324574E1
8.893547774E0,1.136979580E1,-8.271090508E0,-3.259921789E0
8.910213712E0,1.178405285E1,-8.254939079E0,2.407777786E0
8.926879649E0,1.157767200E1,-8.032705307E0,4.803890705E0
8.943545587E0,1.254407406E1,-6.654140472E0,6.512964249E0
8.960211524E0,1.532902050E1,-3.989134550E0,4.861318111E0
8.976877462E0,1.476311779E1,-2.495713949E0,1.837986946E0
8.993543399E0,1.148106194E1,-4.024129391E0,1.685115433E1
9.010209337E0,9.999306679E0,-3.794717550E0,3.793132401E1
9.026875274E0,8.412865639E0,5.593222976E-1,3.987908173E1
9.043541212E0,5.126622677E0,7.073482990E0,2.041556358E1
9.060207149E0,6.610172391E-1,1.230479145E1,-1.256531000E0
9.076873087E0,-3.489632607E0,1.319282722E1,-7.333403111E0
9.093539024E0,-4.760819912E0,1.165783215E1,-2.477468729E0
9.110204962E0,-6.918846607E0,1.057268715E1,-1.130608693E-1
9.126870899E0,-1.104227829E1,9.974780083E0,-9.502496719E-1
9.143536837E0,-1.409881020E1,9.292825699E0,-1.751546144E0
9.160202774E0,-1.530927944E1,8.171489716E0,1.400997639E0
9.176868712E0,-1.407278824E1,5.728118420E0,8.489136696E0
9.193534649E0,-1.160219860E1,2.443371058E0,1.523270893E1
9.210200587E0,-6.823432922E0,-1.278963685E0,1.757946968E1
9.226866524E0,-2.981756210E0,-3.385843992E0,1.381765366E1
9.243532462E0,9.017950296E-1,-4.031008720E0,1.083679485E1
9.260198399E0,5.330909729E0,-4.255635262E0,9.758828163E0
9.276864337E0,1.623410606E1,-9.876375198E0,1.082961655E1
9.293530274E0,2.507558441E1,-9.359525681E0,1.369083405E1
9.310196212E0,2.052623177E1,-1.004536819E1,2.382473755E1
9.326862149E0,6.676274300E0,-1.042313576E1,3.125863838E1
9.343528087E0,1.911267042E0,-8.070392609E0,2.475554466E1
9.360194024E0,4.612763882E0,-3.850350618E0,1.085384369E1
9.376859962E0,8.477770805E0,1.112961650E0,-2.424826622E0
9.393525899E0,1.033998489E1,4.848755836E0,-1.110479069E1
9.410191837E0,1.013958549E1,5.688038349E0,-8.613264084E0
9.426857774E0,7.719843864E0,3.255435228E0,-2.127219439E0
9.443523712E0,3.374478102E0,-4.211367965E-1,-3.669991732E0
9.460189649E0,-2.594118834E0,-3.948157281E-2,6.586244106E-1
9.476855587E0,1.803590059E-1,-2.558226585E0,1.634088516E1
9.493521524E0,3.804588079E0,-2.105085611E0,2.902404213E1
9.510187462E0,4.618745804E0,-5.653043464E-2,2.519193649E1
9.526853399E0,1.027717352E0,3.722334623E0,1.242682552E1
9.543519337E0,-9.095717072E-1,6.040381432E0,5.295017242E0
9.560185274E0,2.156531334E0,6.340681076E0,6.119643688E0
9.576851212E0,3.235395432E0,4.643870354E0,5.741578102E0
9.593517149E0,1.779960990E0,3.052643538E0,4.112963200E0
9.610183087E0,7.004988194E-1,2.862414122E-1,3.627219915E0
9.626849024E0,3.701397419E0,-1.976770639E0,6.990930557E0
9.643514962E0,1.303011608E1,-4.920839787E0,1.202154064E1
9.660180899E0,1.973629951E1,-1.001067257E1,1.372074413E1
9.676846837E0,1.234756279E1,-1.091037369E1,2.214796638E1
9.693512774E0,2.144268274E0,-9.762118340E0,3.117309570E1
9.710178712E0,-2.422134638E0,-5.310271740E0,2.574318314E1
9.726844649E0,9.987043738E-1,2.907279432E-1,8.336295128E0
9.743510587E0,6.084649086E0,5.713761330E0,-1.038724327E1
9.760176524E0,4.907978535E0,8.335995674E0,-1.894038773E1
9.776842462E0,3.708875179E-1,6.381359100E0,-4.456333160E0
9.793508399E0,9.260223508E-1,9.409775138E-1,1.787767601E1
9.810174337E0,4.812863827E0,-1.998306036E0,2.981606483E1
9.826840274E0,3.545265913E0,-1.179661512E0,2.526730919E1
9.843506212E0,-3.050848842E-1,-6.960122585E-1,1.812294006E1
9.860172149E0,-1.736890078E0,-1.732104540E0,1.356102276E1
9.876838087E0,-4.971089065E-1,-4.095914364E0,1.044078255E1
9.893504024E0,3.241676569E0,-5.375775337E0,1.022064304E1
9.910169962E0,7.586444378E0,-4.893621445E0,1.102014446E1
9.926835899E0,1.213699436E1,-4.684548378E0,5.515157223E0
9.943501837E0,1.655025673E1,-3.978366852E0,5.676074505E0
9.960167774E0,1.570110416E1,-5.388337612E0,1.650090408E1
9.976833712E0,4.799104691E0,-3.916452408E0,2.447229385E1
9.993499649E0,-5.247160912E0,-1.372882009E0,2.102214241E1
1.001016559E1,-8.094919205E0,9.475577474E-1,1.223480129E1
1.002683152E1,-6.217749596E0,2.478665113E0,2.823231697E0
1.004349746E1,-4.448556423E0,3.774378538E0,-3.131606579E0
1.006016340E1,-4.878366947E0,4.513461590E0,-3.092125177E0
1.007682934E1,-5.293521881E0,3.666701555E0,4.411766827E-1
1.009349527E1,-3.877868176E0,1.382154226E0,2.745464802E0
1.011016121E1,-3.720540047E0,-7.097710371E-1,4.940879822E0
1.012682715E1,-3.830610037E0,-2.251945257E0,7.176972389E0
1.014349309E1,-5.633901119E0,-3.465405464E0,1.000528908E1
1.016015902E1,-8.929415703E0,-4.957031250E0,1.577737522E1
1.017682496E1,-7.824530125E0,-7.271489143E0,2.063271141E1
1.019349090E1,-2.016252279E0,-8.669795036E0,1.810439491E1
1.021015684E1,1.445564032E0,-5.408078194E0,1.014586735E1
1.022682277E1,6.834499836E0,-3.545265913E0,9.229117393E0
1.024348871E1,1.512832165E1,-3.277269602E0,1.803410530E1
1.026015465E1,2.064497375E1,-4.835595608E0,2.954597664E1
1.027682059E1,2.275723839E1,-8.176573753E0,3.535186005E1
1.029348652E1,1.976680946E1,-8.797212601E0,3.163700294E1
1.031015246E1,1.363520050E1,-8.848658562E0,2.543510628E1
1.032681840E1,7.200601578E0,-7.654938698E0,2.273600197E1
1.034348434E1,4.448556423E0,-6.964609623E0,1.975454521E1
1.036015027E1,5.284847736E0,-6.800402164E0,1.384636688E1
1.037681621E1,4.887340069E0,-5.579464436E0,7.415656567E0
1.039348215E1,4.370490551E0,-3.782753468E0,4.301996231E0
1.041014809E1,5.072783947E0,-2.266601324E0,5.098506927E0
1.042681402E1,4.955535889E0,-4.704887569E-1,3.826422453E0
1.044347996E1,1.555334684E-2,2.844467878E0,1.615753531E0
1.046014590E1,-6.224030972E0,5.510371208E0,2.879761934E0
1.047681184E1,-9.751948357E0,6.110072613E0,9.544072151E0
1.049347777E1,-1.173141098E1,4.650749683E0,2.019153404E1
1.051014371E1,-1.262124252E1,3.954438448E0,2.506122780E1
1.052680965E1,-1.081525898E1,4.329214573E0,2.132304001E1
1.054347559E1,-9.384052277E0,6.834200382E0,1.300977707E1
1.056014152E1,-8.739485741E0,7.502396107E0,8.042277336E0
1.057680746E1,-7.872386456E0,6.228816509E0,1.053829002E1
1.059347340E1,-6.064010620E0,3.639483213E0,1.523659706E1
1.061013934E1,-2.956930637E0,2.832803011E0,1.764616966E1
1.062680527E1,6.131607890E-1,3.381955624E0,1.413141251E1
1.064347121E1,3.138785124E0,4.588536739E0,1.327627754E1
1.066013715E1,3.331407309E0,3.952344894E0,1.894038773E1
1.067680309E1,1.805384636E0,1.384846091E0,2.845484924E1
1.069346902E1,2.902194738E0,-2.938386202E0,3.542454147E1
1.071013496E1,4.425525665E0,-4.775475979E0,3.196093178E1
1.072680090E1,6.924828529E0,-3.997509241E0,2.341586304E1
1.074346684E1,3.559622765E0,-4.533800602E0,1.783250999E1
1.076013277E1,-4.297808647E0,-7.016952515E0,2.011317062E1
1.077679871E1,-8.527122498E0,-1.185673523E1,1.951406670E1
1.079346465E1,-4.479962349E0,-1.598854160E1,7.435995579E0
1.081013059E1,1.281057477E0,-1.832722664E1,-6.544369698E0
1.082679652E1,2.357229471E0,-2.077568245E1,-9.073583603E0
1.084346246E1,5.721837282E-1,-2.563640213E1,-5.940481186E0
1.086012840E1,4.468596280E-1,-2.688007164E1,-7.654041290E0
1.087679434E1,8.006085396E0,-2.547099876E1,-1.069711399E1
1.089346027E1,1.741705704E1,-2.317837524E1,-3.937688828E0
1.091012621E1,2.697159767E1,-2.222962189E1,1.062861919E1
1.092679215E1,3.492653656E1,-2.052892303E1,2.101556396E1
1.094345809E1,3.514129257E1,-1.749811363E1,2.313680077E1
1.096012402E1,3.314747238E1,-1.291914845E1,2.435265350E1
1.097678996E1,2.626033211E1,-6.808477879E0,1.841875267E1
1.099345590E1,2.042333984E1,-2.930011272E0,1.588475323E1
1.101012184E1,1.076201916E1,-4.197309971E0,1.438355637E1
1.102678777E1,-1.778465390E0,-3.018844843E0,1.438923931E1
1.104345371E1,-7.669295788E0,6.346961975E0,1.650868225E1
1.106011965E1,-8.321041107E0,1.918116570E1,1.707697678E1
1.107678559E1,-8.458627701E0,2.676880646E1,2.245514488E1
1.109345152E1,-1.155254745E1,2.570998192E1,4.320540237E1
1.111011746E1,-1.389781284E1,2.040718842E1,6.630840302E1
1.112678340E1,-1.133629608E1,1.314856052E1,6.432176208E1
1.114344934E1,4.187439755E-2,7.186842918E0,4.866642380E1
1.116011527E1,1.254317665E1,1.388435364E0,3.634548187E1
1.117678121E1,1.557099438E1,-4.934000492E0,3.500699615E1
1.119344715E1,1.719512177E1,-1.192403316E1,3.846940994E1
1.121011309E1,2.105982971E1,-1.598854160E1,4.003910065E1
1.122677902E1,2.817458916E1,-1.864068604E1,3.826362610E1
1.124344496E1,3.090360260E1,-2.264956093E1,3.122573662E1
1.126011090E1,2.481416893E1,-2.621785927E1,2.577339172E1
1.127677684E1,1.658614922E1,-2.734786987E1,2.104008865E1
1.129344277E1,9.845867157E0,-2.664976311E1,8.288737297E0
1.131010871E1,5.386243820E0,-2.755185699E1,-8.915059090E0
1.132677465E1,1.323530078E0,-2.811267471E1,-1.899452591E1
1.134344059E1,-2.028515339E0,-2.859871674E1,-1.379522038E1
1.136010652E1,-9.152546525E-2,-3.053301430E1,-3.584448338E0
1.137677246E1,4.672883511E0,-3.165345383E1,-6.606284142E0
1.139343840E1,6.325127602E0,-2.817339325E1,-1.754477310E1
1.141010434E1,1.021286583E1,-2.639373016E1,-1.729203224E1
1.142677027E1,1.335853100E1,-2.690938377E1,-3.526422262E0
1.144343621E1,1.289761353E1,-2.433709908E1,1.062742233E1
1.146010215E1,1.208166027E1,-2.037099648E1,1.694985771E1
1.147676809E1,1.585903072E1,-1.604028702E1,2.042962074E1
1.149343402E1,2.055105591E1,-1.226590824E1,2.343650055E1
1.151009996E1,2.158983994E1,-9.023035049E0,2.717109871E1
1.152676590E1,1.468804264E1,-5.702096462E0,3.386172867E1
1.154343184E1,1.006181908E1,-5.509474277E-1,3.657399368E1
1.156009777E1,4.783850670E0,7.521239758E0,2.857299423E1
1.157676371E1,-2.276172489E-1,1.631785393E1,1.574626827E1
1.159342965E1,-7.095616341E0,1.939681816E1,1.710210228E1
1.161009559E1,-1.550578976E1,1.775863266E1,3.145305634E1
1.162676152E1,-1.527727509E1,1.826531219E1,5.033781052E1
1.164342746E1,-6.583851337E0,1.936601067E1,5.651876831E1
1.166009340E1,1.886740685E0,2.280060959E1,4.264817429E1
1.167675934E1,1.016471100E1,2.402812767E1,2.918824959E1
1.169342527E1,2.215394783E1,2.044906235E1,3.766093445E1
1.171009121E1,3.355455017E1,1.214806175E1,5.865287018E1
1.172675715E1,3.907180405E1,-4.648058116E-1,6.964280701E1
1.174342309E1,4.189054871E1,-1.546212101E1,6.119374847E1
1.176008902E1,4.217200470E1,-2.833520699E1,4.153610992E1
1.177675496E1,3.563511276E1,-3.549333572E1,2.409452820E1
1.179342090E1,2.472055054E1,-3.618725586E1,1.114995575E1
1.181008684E1,8.901598930E0,-3.522145081E1,3.451945782E0
1.182675277E1,-5.295316696E0,-4.084458542E1,1.197607756E0
1.184341871E1,-1.113290691E1,-4.764827728E1,-5.388935566E0
1.186008465E1,-1.183609676E1,-4.922784042E1,-2.374637222E1
1.187675059E1,-9.194720268E0,-5.097489929E1,-2.581496620E1
1.189341652E1,-4.806283474E0,-5.396891785E1,-1.470897961E1
1.191008246E1,2.494517565E-1,-5.589484024E1,-1.352692509E1
1.192674840E1,9.185149193E0,-5.867201233E1,-1.579711628E1
1.194341434E1,2.368774796E1,-6.250381851E1,-3.235694408E0
1.196008027E1,3.573471069E1,-6.340023041E1,1.367857075E1
1.197674621E1,4.219652939E1,-6.198547363E1,1.812323952E1
1.199341215E1,5.856074524E1,-5.728866196E1,2.265793610E1
1.201007809E1,7.101658630E1,-4.720859528E1,3.393351364E1
1.202674402E1,7.489086151E1,-3.508655548E1,4.384727859E1
1.204340996E1,6.749823761E1,-2.090519333E1,4.826861572E1
1.206007590E1,6.378726959E1,-7.815258026E0,5.330311584E1
1.207674184E1,5.231428146E1,4.423132420E0,4.420620346E1
1.209340777E1,2.560948372E1,1.664866257E1,3.056920624E1
1.211007371E1,6.111567974E0,2.725903511E1,3.593092346E1
1.212673965E1,3.643670797E0,3.125744247E1,4.875914383E1
1.214340559E1,6.652645111E0,3.175933647E1,5.107719040E1
1.216007152E1,7.758129120E0,3.170280647E1,3.953900146E1
1.217673746E1,8.516953468E0,2.724348259E1,2.657498741E1
1.219340340E1,9.148359299E0,1.994985962E1,2.440170670E1
1.221006934E1,1.244925785E1,1.172662544E1,3.416891098E1
1.222673527E1,2.014128494E1,4.038187504E0,4.632295227E1
1.224340121E1,3.072384262E1,-3.581756353E0,5.328487015E1
1.226006715E1,4.082633972E1,-1.154477119E1,5.078018188E1
1.227673309E1,5.221168900E1,-2.143370819E1,4.738566589E1
1.229339902E1,5.670690536E1,-3.269971466E1,4.300709915E1
1.231006496E1,5.223681259E1,-3.939722824E1,3.844847107E1
1.232673090E1,4.400400925E1,-4.435066986E1,2.903690338E1
1.234339684E1,3.101307487E1,-4.497280121E1,1.112094212E1
1.236006277E1,1.592094421E1,-4.168715668E1,-1.292722464E0
1.237672871E1,-6.092724800E-1,-3.917020798E1,-2.082653046E0
1.239339465E1,-1.211366463E1,-3.941367722E1,-2.617149830E0
1.241006059E1,-1.667199135E1,-4.260839462E1,-1.282642651E1
1.242672652E1,-2.214348030E1,-4.547858429E1,-2.451835632E1
1.244339246E1,-2.528435898E1,-5.162993240E1,-2.895285416E1
1.246005840E1,-2.658306313E1,-5.824877930E1,-3.141118050E1
1.247672434E1,-1.365882969E1,-6.801837921E1,-2.085793495E1
1.249339027E1,1.177627659E1,-7.574929047E1,4.673182487E0
1.251005621E1,2.727249527E1,-7.361698151E1,1.598256016E1
1.252672215E1,3.140938568E1,-7.054250336E1,1.162223911E1
1.254338809E1,4.318087769E1,-7.142934418E1,1.335553932E1
1.256005402E1,5.362913895E1,-6.930182648E1,2.185873413E1
1.257671996E1,7.199434662E1,-6.585466766E1,3.945525360E1
1.259338590E1,7.838767242E1,-4.766143799E1,4.701956177E1
1.261005184E1,7.819086456E1,-2.180310059E1,4.658885574E1
1.262671777E1,6.353811646E1,-4.368695736E0,4.366123581E1
1.264338371E1,3.270180893E1,7.561020374E0,3.402862930E1
1.266004965E1,1.388973713E1,1.809781456E1,2.730509758E1
1.267671559E1,8.611768723E0,2.546920395E1,3.008106995E1
1.269338152E1,5.600999832E0,2.944876671E1,3.230849075E1
1.271004746E1,3.291626692E0,3.036312485E1,2.549761963E1
1.272671340E1,4.293920040E0,2.728266525E1,2.533071899E1
1.274337934E1,6.236293793E0,2.089382744E1,4.175565338E1
1.276004527E1,1.358614826E1,1.420020580E1,5.966533279E1
1.277671121E1,2.363510513E1,7.772486210E0,5.905216980E1
1.279337715E1,3.158555794E1,4.384847581E-1,4.648895645E1
1.281004309E1,4.028137589E1,-8.577371597E0,3.891896057E1
1.282670902E1,4.847978210E1,-2.160389900E1,3.862913132E1
1.284337496E1,5.678168106E1,-3.326920700E1,4.366273117E1
1.286004090E1,6.732236481E1,-4.055146408E1,4.414937210E1
1.287670684E1,6.746832275E1,-5.078108215E1,3.537997818E1
1.289337277E1,5.237380219E1,-5.519165039E1,2.345115662E1
1.291003871E1,3.339991760E1,-5.615266800E1,1.582582951E1
1.292670465E1,1.663669777E1,-5.594987488E1,8.944669724E0
1.294337059E1,1.747358680E0,-5.570999527E1,3.531208038E0
1.296003652E1,-9.395418167E0,-5.988517380E1,-8.170592308E0
1.297670246E1,-2.405325127E1,-5.915685654E1,-3.490230942E1
1.299336840E1,-4.446642303E1,-5.399643707E1,-4.882195663E1
1.301003434E1,-5.370720291E1,-5.226403046E1,-3.817958069E1
1.302670027E1,-3.404926682E1,-5.515605927E1,-1.162433243E1
1.304336621E1,1.052841991E-1,-5.804449463E1,7.112665176E0
1.306003215E1,1.986192322E1,-5.352206039E1,4.064209461E0
1.307669809E1,2.740589523E1,-4.932445145E1,-7.238288522E-1
1.309336402E1,3.773720551E1,-4.677968216E1,3.502494097E0
1.311002996E1,5.005934525E1,-4.460371017E1,9.241379738E0
1.312669590E1,5.617360687E1,-4.584109879E1,2.428086853E1
1.314336184E1,6.556124878E1,-4.094388580E1,3.804228973E1
1.316002777E1,7.619913483E1,-2.337339020E1,4.188546371E1
1.317669371E1,6.881459045E1,-6.626623154E0,3.721856308E1
1.319335965E1,4.222614288E1,5.855237007E0,2.912274551E1
1.321002559E1,2.148784637E1,1.566251945E1,1.867747688E1
1.322669152E1,1.492313766E1,2.146092796E1,1.476700592E1
1.324335746E1,9.641579628E0,2.555714035E1,1.668993759E1
1.326002340E1,3.743571043E0,2.664497757E1,1.608395576E1
1.327668934E1,1.415354609E0,2.576322174E1,1.333490181E1
1.329335527E1,3.778566122E0,2.547488785E1,1.796650887E1
1.331002121E1,1.162044430E1,2.408585358E1,2.971766090E1
1.332668715E1,2.297797585E1,2.066561317E1,3.592464447E1
1.334335309E1,2.856820869E1,1.599482250E1,2.780310440E1
1.336001902E1,2.828376198E1,1.021974564E1,1.730130386E1
1.337668496E1,2.784587479E1,3.536890984E0,1.570947933E1
1.339335090E1,3.317947769E1,-4.819443703E0,1.889641953E1
1.341001684E1,4.098635864E1,-1.349970722E1,1.765633965E1
1.342668277E1,3.878526306E1,-2.075325012E1,1.424088383E1
1.344334871E1,3.241018295E1,-2.673410988E1,1.359691525E1
1.346001465E1,2.579642296E1,-3.065953636E1,1.252702427E1
1.347668059E1,1.995584106E1,-3.321028519E1,4.476971149E0
1.349334652E1,1.001874828E1,-3.470579910E1,9.741778970E-1
1.351001246E1,-7.441080093E0,-3.676033783E1,7.712964535E0
1.352667840E1,-1.932174301E1,-3.967240143E1,7.136593342E0
1.354334434E1,-2.212762833E1,-3.994248962E1,-1.191775227E1
1.356001027E1,-2.085494423E1,-3.729423523E1,-3.055664444E1
1.357667621E1,-1.715265083E1,-3.495524979E1,-2.933869743E1
1.359334215E1,-1.115384388E1,-3.194956589E1,-1.907288933E1
1.361000809E1,4.531407952E-1,-2.686421967E1,-9.043374062E0
1.362667402E1,1.850100517E1,-1.969622040E1,-4.220340848E-1
1.364333996E1,3.580709457E1,-9.266803741E0,4.651647091E0
1.366000590E1,4.264189529E1,2.060818434E0,8.579764366E0
1.367667184E1,4.158725739E1,1.199761295E1,1.967229271E1
1.369333777E1,5.926154327E1,1.765275002E1,4.437130737E1
1.371000371E1,6.829594421E1,2.639313316E1,5.382445145E1
1.372666965E1,5.567978668E1,2.721925545E1,3.061586571E1
1.374333559E1,3.564767456E1,2.236930275E1,1.330738449E1
1.376000152E1,2.563012123E1,1.311536026E1,1.008305550E1
1.377666746E1,1.778555107E1,1.058824062E0,6.461219311E0
1.379333340E1,7.704589844E0,-1.302323627E1,-2.820539773E-1
1.380999934E1,-8.549256325E0,-2.355255318E1,-7.540980339E0
1.382666527E1,-2.516621399E1,-3.177369308E1,-1.360618782E1
1.384333121E1,-3.471148300E1,-3.485475159E1,-2.311765862E1
1.385999715E1,-4.159533310E1,-3.346362305E1,-3.251367569E1
1.387666309E1,-2.432304192E1,-3.813112259E1,-2.585235405E1
1.389332902E1,1.638604927E1,-3.869583130E1,-4.313362122E0
1.390999496E1,3.471387482E1,-2.846531677E1,1.336780262E1
1.392666090E1,2.682503700E1,-1.586142349E1,2.526730919E1
1.394332684E1,3.415425491E1,-3.085843801E0,2.419323158E1
1.395999277E1,4.562424850E1,1.071775150E1,1.709372711E1
1.397665871E1,4.615994263E1,2.373081779E1,1.776670814E-1
1.399332465E1,4.280610275E1,2.902703285E1,-3.246761322E0
1.400999059E1,3.499712372E1,2.362074852E1,5.704489231E0
1.402665652E1,2.623490715E1,1.307498074E1,1.105723381E1
1.404332246E1,2.619482803E1,4.588237286E0,1.446670628E1
1.405998840E1,2.803490829E1,-5.013262749E0,1.812443542E1
1.407665434E1,1.949043846E1,-1.354218006E1,1.348654652E1
1.409332027E1,1.095852947E1,-1.786541176E1,2.403889418E0
1.410998621E1,4.872983456E0,-1.767667770E1,-5.133502007E0
1.412665215E1,1.057627559E0,-1.631934929E1,-9.289237022E0
1.414331809E1,-4.065106392E0,-1.494227982E1,-1.278574848E1
1.415998402E1,-6.382555485E0,-1.333639717E1,-1.333101273E1
1.417664996E1,-6.538986206E0,-1.115563869E1,-1.200389385E1
1.419331590E1,-6.959823608E0,-8.904590607E0,-1.177029419E1
1.420998184E1,-7.569993496E0,-6.482156754E0,-1.251386452E1
1.422664777E1,-6.615556240E0,-5.618945599E0,-1.107039356E1
1.424331371E1,2.867797852E0,-7.389335632E0,-6.062216282E0
1.425997965E1,1.475025654E1,-1.017428207E1,-2.700898647E0
1.427664559E1,2.103919220E1,-1.072313595E1,3.826123476E0
1.429331152E1,2.116003036E1,-1.198953724E1,1.643330765E1
1.430997746E1,2.177229309E1,-1.082124138E1,2.522334099E1
1.432664340E1,2.161257172E1,-7.756035328E0,2.142922211E1
1.434330934E1,2.039582253E1,-5.096712112E0,1.292692566E1
1.435997527E1,1.932862282E1,-3.698406458E0,6.659823418E0
1.437664121E1,1.857697678E1,-3.501895905E0,1.386939883E0
1.439330715E1,1.574925995E1,-4.051646709E0,-2.382055044E0
1.440997309E1,1.267029476E1,-6.664309978E0,-5.589334488E0
1.442663902E1,3.682255030E0,-9.773184776E0,-1.002981567E1
1.444330496E1,1.345065475E0,-1.170359421E1,-6.444469452E0
1.445997090E1,1.148225880E1,-1.854856300E1,4.782654285E0
1.447663684E1,1.602682686E1,-2.134068871E1,1.218933773E1
1.449330277E1,1.480648708E1,-1.953201294E1,1.103240776E1
1.450996871E1,1.156869888E1,-1.673390579E1,7.771289825E0
1.452663465E1,1.433480263E1,-1.496860123E1,4.293322086E0
1.454330059E1,1.915574074E1,-1.280219936E1,2.539981127E0
1.455996652E1,2.058964157E1,-9.833304405E0,7.187440991E-1
1.457663246E1,1.894636917E1,-7.028916359E0,2.644068897E-1
1.459329840E1,1.880609131E1,-4.485645294E0,1.369292736E0
1.460996434E1,2.018973923E1,-1.345065475E0,3.143869877E0
1.462663027E1,2.124168396E1,3.040679455E0,3.439682484E0
1.464329621E1,2.235943222E1,8.018049240E0,3.303590775E0
1.465996215E1,2.330549431E1,1.337976646E1,4.153341770E0
1.467662809E1,2.390011024E1,1.780948067E1,7.318747044E0
1.469329402E1,2.573361206E1,2.013290977E1,8.852845192E0
1.470995996E1,2.778695297E1,1.901695824E1,5.167300701E0
1.472662590E1,2.958246613E1,1.499641800E1,-1.265204996E-1
1.474329184E1,2.885086060E1,1.067348480E1,-3.076870918E0
1.475995777E1,2.811985397E1,6.723831654E0,6.625127792E-1
1.477662371E1,2.902583504E1,2.723630428E0,8.062316895E0
1.479328965E1,3.014148903E1,-1.580758452E0,1.295982647E1
1.480995559E1,2.974457932E1,-7.298109055E0,1.090977573E1
1.482662152E1,2.561696053E1,-1.388495159E1,5.515755177E0
1.484328746E1,1.732642937E1,-1.708535194E1,6.326025128E-1
1.485995340E1,9.840184212E0,-1.771945000E1,-5.111667514E-1
1.487661934E1,2.720041037E0,-1.792284012E1,2.437688112E0
1.489328527E1,-6.448358059E0,-1.965763664E1,5.192724228E0
1.490995121E1,-7.863114357E0,-2.621187592E1,5.166702271E0
1.492661715E1,-8.052745819E0,-3.294797134E1,4.710271358E0
1.494328309E1,-1.492523098E1,-3.665953827E1,4.049253941E0
1.495994902E1,-1.534606934E1,-4.317100525E1,2.241177559E0
1.497661496E1,-1.360319710E1,-4.639085007E1,-1.896012783E0
1.499328090E1,-9.751350403E0,-5.062674332E1,-2.709871531E0
1.500994684E1,2.699403048E0,-5.722136307E1,1.475773335E0
1.502661277E1,2.061087608E1,-6.104658890E1,1.240319633E1
1.504327871E1,3.151227760E1,-5.927560043E1,2.071915245E1
1.505994465E1,4.222255325E1,-5.916822433E1,1.875105476E1
1.507661059E1,5.881468201E1,-6.232256317E1,1.772274017E1
1.509327652E1,6.778327942E1,-5.634947586E1,2.423630142E1
1.510994246E1,6.764360046E1,-4.672315216E1,3.090809059E1
1.512660840E1,7.185556793E1,-3.490201187E1,3.790261078E1
1.514327434E1,7.549205780E1,-1.734258080E1,4.336034012E1
1.515994027E1,6.935446930E1,-2.658126831E0,5.111069107E1
1.517660621E1,4.508346939E1,1.316261864E1,4.460400772E1
1.519327215E1,2.618136787E1,3.083391190E1,2.724736977E1
1.520993809E1,2.340090752E1,3.857947922E1,2.994258690E1
1.522660402E1,1.942224312E1,3.375614548E1,5.274289703E1
1.524326996E1,7.715955734E0,2.837588501E1,7.222077179E1
1.525993590E1,8.975776672E0,1.947278976E1,7.231229401E1
1.527660184E1,2.074098587E1,7.288238525E0,5.643711472E1
1.529326777E1,3.187269592E1,-3.375076294E0,3.660480118E1
1.530993371E1,4.044229126E1,-1.142273712E1,2.619303322E1
1.532659965E1,4.912046051E1,-1.961725807E1,3.273321533E1
1.534326559E1,5.636921692E1,-2.942513847E1,4.309323883E1
1.535993152E1,6.598777008E1,-3.963770676E1,4.035046768E1
1.537659746E1,6.870810699E1,-4.695525742E1,2.253530502E1
1.539326340E1,5.518716431E1,-4.995346451E1,1.003789139E1
1.540992934E1,3.406661606E1,-5.126592636E1,4.017250061E0
1.542659527E1,9.752247810E0,-4.568975067E1,6.200401783E-1
1.544326121E1,-7.584649563E0,-4.293800735E1,2.105683982E-1
1.545992715E1,-1.858565140E1,-4.376502609E1,-1.582254022E-1
1.547659309E1,-3.189572716E1,-4.762105942E1,-2.350948304E-1
1.549325902E1,-3.941427612E1,-5.028905487E1,1.594517231E0
1.550992496E1,-3.120180893E1,-5.461228943E1,-1.268195987E0
1.552659090E1,-1.026281643E1,-5.806214142E1,-4.871787071E0
1.554325684E1,2.808874607E0,-5.916403580E1,-5.950052738E0
1.555992277E1,1.621406555E1,-6.202136612E1,-3.233301640E-1
1.557658871E1,3.358595657E1,-6.301737595E1,5.481358528E0
1.559325465E1,4.590869522E1,-6.027669907E1,8.635697365E0
1.560992059E1,5.509294510E1,-5.735924911E1,1.798505402E1
1.562658652E1,5.637250900E1,-5.238158035E1,2.350559425E1
1.564325246E1,6.416862488E1,-4.614229584E1,2.464158630E1
1.565991840E1,7.368906403E1,-3.676392365E1,2.664168739E1
1.567658434E1,7.425676727E1,-2.286102676E1,3.766183090E1
1.569325027E1,5.786413574E1,-8.453543663E0,4.564099884E1
1.570991621E1,3.568506241E1,1.106680512E0,3.722872925E1
1.572658215E1,1.363759327E1,1.054158020E1,2.741546631E1
1.574324809E1,2.891427040E0,2.206661034E1,3.286482239E1
1.575991402E1,5.860620975E0,3.154487991E1,4.592753983E1
1.577657996E1,2.099612045E1,3.554687500E1,5.110470963E1
1.579324590E1,3.279632568E1,3.488854980E1,4.008277130E1
1.580991184E1,2.651606369E1,2.870280457E1,2.103709793E1
1.582657777E1,2.091476631E1,2.013111687E1,1.715444374E1
1.584324371E1,2.291277313E1,9.960423470E0,2.684687233E1
1.585990965E1,3.087907791E1,4.522434771E-1,3.932065582E1
1.587657559E1,4.296522522E1,-9.055337906E0,4.472664261E1
1.589324152E1,5.230321503E1,-1.753998756E1,3.885046768E1
1.590990746E1,6.049504471E1,-2.350020981E1,3.104956627E1
1.592657340E1,6.779494476E1,-3.051865768E1,3.138336372E1
1.594323934E1,6.068556976E1,-3.981956100E1,3.383002472E1
1.595990527E1,4.717390060E1,-4.810081863E1,2.867050171E1
1.597657121E1,3.076392174E1,-5.230471039E1,1.668246078E1
1.599323715E1,1.163839054E1,-5.128446960E1,3.971786499E0
1.600990309E1,-8.570193291E0,-4.925924683E1,-2.417049885E0
1.602656902E1,-2.251197433E1,-5.230291367E1,-9.174081802E0
1.604323496E1,-3.352194977E1,-5.526642609E1,-1.959661865E1
1.605990090E1,-3.473421478E1,-5.931089401E1,-2.170708847E1
1.607656684E1,-3.614627838E1,-6.162116623E1,-2.346252251E1
1.609323277E1,-2.536960220E1,-6.788946533E1,-2.073799515E1
1.610989871E1,2.744567633E0,-7.669086456E1,-9.539586067E0
1.612656465E1,2.681038094E1,-7.786095428E1,-1.818545163E-1
1.614323059E1,4.063491440E1,-7.356254578E1,5.218147755E0
1.615989652E1,4.854857635E1,-6.996015167E1,1.088524914E1
1.617656246E1,6.316154480E1,-6.608438110E1,1.302592850E1
1.619322840E1,7.294011688E1,-5.956842422E1,1.279083347E1
1.620989434E1,7.815676880E1,-5.029085159E1,2.597050095E1
1.622656027E1,7.839843750E1,-3.007179832E1,4.456961060E1
1.624322621E1,7.724719238E1,-1.035254669E1,3.403072357E1
1.625989215E1,5.781448364E1,4.956133962E-1,1.533619881E1
1.627655809E1,2.562473679E1,5.881857395E0,1.515404510E1
1.629322402E1,4.715356350E0,1.534726524E1,2.760808945E1
1.630988996E1,4.485345840E0,2.655973244E1,3.392693329E1
1.632655590E1,1.802273941E1,3.433939743E1,3.548197174E1
1.634322184E1,2.852992439E1,3.631258011E1,3.596771240E1
1.635988777E1,2.295763779E1,3.297399521E1,2.767508698E1
1.637655371E1,1.893231201E1,2.481865501E1,2.631566429E1
1.639321965E1,2.259662056E1,1.317398453E1,3.595335770E1
1.640988559E1,2.833401108E1,2.114058733E0,4.373272324E1
1.642655152E1,4.294398880E1,-1.144786167E1,4.131686783E1
1.644321746E1,5.625944901E1,-2.448754883E1,3.384767151E1
1.645988340E1,5.850122452E1,-3.397897720E1,2.534657288E1
1.647654934E1,5.354718399E1,-4.542145538E1,1.577139282E1
1.649321527E1,4.420978928E1,-4.834608459E1,8.230113029E0
1.650988121E1,3.203121948E1,-4.724628448E1,5.748756409E0
1.652654715E1,2.055853462E1,-4.623262405E1,3.991826296E0
1.654321309E1,4.290031910E0,-4.141437531E1,9.164510965E-1
1.655987902E1,-1.347667599E1,-3.552653503E1,-2.386541367E0
1.657654496E1,-2.287717819E1,-3.427987671E1,-1.505743504E1
1.659321090E1,-2.370898438E1,-3.250380325E1,-2.564059067E1
1.660987684E1,-2.165773773E1,-3.212424088E1,-2.259542465E1
1.662654277E1,-2.456740952E1,-3.085724258E1,-2.107807541E1
1.664320871E1,-2.130898285E1,-3.081357384E1,-2.147648048E1
1.665987465E1,-6.911369324E0,-3.168306541E1,-1.758036613E1
1.667654059E1,9.379864693E0,-2.999313545E1,-1.023679447E1
1.669320652E1,1.940967941E1,-2.706461906E1,-3.360420227E0
1.670987246E1,2.193889427E1,-2.377149582E1,2.497508526E0
1.672653840E1,2.800290489E1,-1.949492455E1,6.722934246E0
1.674320434E1,3.776083374E1,-1.898106575E1,2.346461773E0
1.675987027E1,3.918695831E1,-1.773679733E1,-6.550352275E-2
1.677653621E1,4.997559738E1,-1.862064743E1,1.589043617E1
1.679320215E1,5.413791275E1,-9.928419113E0,3.583760452E1
1.680986809E1,4.589254379E1,1.588236094E-1,3.287917709E1
1.682653402E1,2.733291435E1,6.779763699E0,1.946411705E1
1.684319996E1,1.051645565E1,1.232094288E1,9.684052467E0
1.685986590E1,4.007379532E0,1.752952003E1,5.582754135E0
1.687653184E1,3.163311481E0,2.042962074E1,2.634497643E0
1.689319777E1,2.742473841E0,1.964567184E1,-3.708875179E-1
1.690986371E1,4.223630905E0,1.714218140E1,1.692921966E-1
1.692652965E1,6.862615108E0,1.456959820E1,4.252045631E0
1.694319559E1,1.150289631E1,1.219143105E1,9.955936432E0
1.695986152E1,1.628256035E1,9.163912773E0,1.350000668E1
1.697652746E1,1.458455276E1,5.941079617E0,1.318415356E1
1.699319340E1,1.182413292E1,3.254837036E0,1.150110245E1
1.700985934E1,1.142333508E1,9.098708034E-1,1.175384426E1
1.702652527E1,1.277797222E1,-3.885644913E0,1.202722359E1
1.704319121E1,1.499133301E1,-1.144756222E1,1.073480034E1
1.705985715E1,1.688973808E1,-1.265085316E1,1.209721375E1
1.707652309E1,3.044747162E1,-1.704467392E1,1.746880150E1
1.709318902E1,3.044627571E1,-1.934058762E1,2.349213409E1
1.710985496E1,1.853121567E1,-1.935165405E1,1.737039757E1
1.712652090E1,1.048325539E1,-1.890329933E1,5.474479198E0
1.714318684E1,1.056700420E1,-2.060818481E1,-8.468199730E0
1.715985277E1,3.281457186E0,-2.147229385E1,-2.485993195E1
1.717651871E1,-9.431011200E0,-2.025554276E1,-3.163042259E1
1.719318465E1,-1.263619709E1,-1.801496315E1,-2.549582481E1
1.720985059E1,-9.532108307E0,-1.409671593E1,-1.924906158E1
1.722651652E1,-6.928717136E0,-1.006750202E1,-1.742333794E1
1.724318246E1,-2.334198475E0,-6.361319065E0,-9.866804123E0
1.725984840E1,1.264038467E1,-2.147857428E0,1.233769226E1
1.727651434E1,2.293251228E1,2.944667339E0,3.527110291E1
1.729318027E1,3.245415115E1,6.101996899E0,3.443481064E1
1.730984621E1,3.007658386E1,7.366603374E0,1.889462471E1
1.732651215E1,2.369103813E1,7.284350395E0,3.998705626E0
1.734317809E1,1.898016739E1,4.994419098E0,-8.566305041E-1
1.735984402E1,1.111765194E1,1.957328916E0,-7.989036441E-1
1.737650996E1,5.068297386E0,-4.115654826E-1,8.557332158E-1
1.739317590E1,2.651247501E0,-2.400300264E0,3.373879910E0
1.740984184E1,5.632106066E-1,-2.908475876E0,3.884747505E0
1.742650777E1,-1.142572761E0,-2.542972326E0,3.345764160E0
1.744317371E1,-2.453839540E0,-1.811067581E0,4.573282242E0
1.745983965E1,2.852842808E0,-2.632105052E-1,9.326624870E0
1.747650559E1,1.102732277E1,-2.586043119E0,1.185643578E1
1.749317152E1,2.298455620E1,-2.853740215E0,1.190967655E1
1.750983746E1,2.903929520E1,-1.858026743E0,1.182712460E1
1.752650340E1,2.795235634E1,-2.665006161E0,8.085646629E0
1.754316934E1,2.139512444E1,-3.683451414E0,8.285148442E-2
1.755983527E1,1.522582912E1,-4.381557465E0,-7.412964344E0
1.757650121E1,8.874381065E0,-3.718745470E0,-1.269601822E1
1.759316715E1,3.288336515E0,-3.387638569E0,-1.433869076E1
1.760983309E1,-9.993025661E-1,-3.224627733E0,-9.582656860E0
1.762649902E1,-1.252642632E0,-3.228216887E0,2.782553673E0
1.764316496E1,-2.758924484E0,-2.750250578E0,1.514417458E1
1.765983090E1,-2.440679073E0,-2.591426849E0,1.938874245E1
1.767649684E1,4.476373196E0,-1.774278045E0,1.567418480E1
1.769316277E1,1.148943710E1,3.323032558E-1,8.181060791E0
1.770982871E1,1.441855145E1,2.471486807E0,4.808377266E0
1.772649465E1,1.390020561E1,3.020639420E0,5.428118229E0
1.774316059E1,1.274925804E1,2.777767897E0,6.911069870E0
1.775982652E1,1.140538883E1,2.545664072E0,5.023731232E0
1.777649246E1,9.799206734E0,2.617448807E0,1.816750646E0
1.779315840E1,7.811967850E0,3.184547901E0,3.062812984E-1
1.780982434E1,5.564808369E0,3.867100477E0,1.965703845E0
1.782649027E1,3.693919897E0,4.797011375E0,5.092823982E0
1.784315621E1,4.474578381E0,6.229115486E0,8.041678429E0
1.785982215E1,6.139384747E0,8.743971825E0,1.615245056E1
1.787648809E1,1.150349522E1,1.066361427E1,2.620051003E1
1.789315402E1,2.411995125E1,9.572187424E0,3.273680496E1
1.790981996E1,3.828217316E1,7.760222912E0,3.424218750E1
1.792648590E1,4.438267136E1,3.705285788E0,3.199742317E1
1.794315184E1,4.124717712E1,-2.130210400E0,2.352204514E1
1.795981777E1,2.944667435E1,-7.328916550E0,1.356550980E1
1.797648371E1,1.223510075E1,-1.147179031E1,7.325626373E0
1.799314965E1,5.745765567E-1,-1.665913010E1,1.499103427E0
1.800981559E1,-7.032206535E0,-2.246710968E1,-7.059125900E0
1.802648152E1,-1.372762394E1,-2.673859596E1,-1.099980545E1
1.804314746E1,-1.568824291E1,-2.961775970E1,-7.097112179E0
1.805981340E1,-1.502243996E1,-2.981427193E1,-8.331210136E0
1.807647934E1,-9.131908417E0,-2.909044266E1,-1.647907066E1
1.809314527E1,-3.087937593E0,-2.716751099E1,-2.203640175E1
1.810981121E1,2.923431158E0,-2.443640137E1,-1.889492416E1
1.812647715E1,1.483938885E1,-2.196970177E1,-1.210170078E1
1.814314309E1,2.952803040E1,-1.796710777E1,-6.690331936E0
1.815980902E1,4.486692047E1,-1.155643559E1,-2.995215654E0
1.817647496E1,5.481896973E1,-3.233600616E0,-3.120240688E0
1.819314090E1,5.498915863E1,5.058127880E0,-2.925225735E0
1.820980684E1,5.121029282E1,1.016500950E1,2.379662037E0
1.822647277E1,3.983272171E1,1.129292679E1,8.975178719E0
1.824313871E1,1.728006744E1,1.405573940E1,9.474081993E0
1.825980465E1,6.381658077E0,1.863201332E1,9.426823616E0
1.827647059E1,9.928120613E0,2.314128685E1,7.877171993E0
1.829313652E1,1.923949051E1,2.443789673E1,8.463114738E0
1.830980246E1,2.252244377E1,2.495953369E1,1.020927715E1
1.832646840E1,2.120339966E1,2.582334137E1,1.396600819E1
1.834313434E1,2.426082802E1,2.396022987E1,2.485963249E1
1.835980027E1,3.045405197E1,1.855274963E1,3.826661682E1
1.837646621E1,3.763401413E1,9.948758125E0,4.222285080E1
1.839313215E1,4.161896133E1,1.925624013E0,3.870091629E1
1.840979809E1,5.062405014E1,-7.131508827E0,4.169433594E1
1.842646402E1,6.572844696E1,-1.703121376E1,4.462434769E1
1.844312996E1,7.773861694E1,-2.633540535E1,3.569882202E1
1.845979590E1,7.808976746E1,-3.731217957E1,2.149113655E1
1.847646184E1,6.566622925E1,-4.445535278E1,1.876062775E1
1.849312777E1,4.311896133E1,-4.799732971E1,2.900489807E1
1.850979371E1,2.521526527E1,-5.391059494E1,3.135853958E1
1.852645965E1,7.431807995E0,-5.978826141E1,1.291346550E1
1.854312559E1,-1.431027603E1,-6.254030991E1,-1.983051747E-1
1.855979152E1,-3.484458160E1,-6.498008728E1,-4.791926384E0
1.857645746E1,-5.170500946E1,-6.628836823E1,-3.069094181E0
1.859312340E1,-4.663192749E1,-7.029604340E1,-2.939881802E0
1.860978934E1,-1.358674622E1,-7.491539001E1,-6.122634888E0
1.862645527E1,1.747927094E1,-7.370072937E1,-1.055803108E1
1.864312121E1,3.175066185E1,-6.991409302E1,-9.353543282E0
1.865978715E1,3.857469559E1,-7.026673126E1,-6.968796730E0
1.867645309E1,5.718995667E1,-7.214031219E1,1.018445134E0
1.869311902E1,6.994071198E1,-6.565785980E1,1.373031521E1
1.870978496E1,7.764141083E1,-5.113581467E1,2.119023895E1
1.872645090E1,7.839843750E1,-3.526631927E1,1.572832203E1
1.874311684E1,7.661100006E1,-1.932772636E1,1.276062393E1
1.875978277E1,6.623960876E1,-6.598806858E0,2.422403908E1
1.877644871E1,4.253780746E1,5.688038349E0,4.236612320E1
1.879311465E1,1.804577065E1,2.292683029E1,4.267240143E1
1.880978059E1,1.873131561E1,4.005884171E1,1.950419617E1
1.882644652E1,2.975594521E1,4.927659225E1,2.375205421E1
1.884311246E1,3.391736221E1,4.515016937E1,5.434489059E1
1.885977840E1,2.613739967E1,3.547927856E1,6.920072937E1
1.887644434E1,3.250081253E1,2.094078827E1,6.027011871E1
1.889311027E1,3.866741562E1,8.298907280E0,3.894528198E1
1.890977621E1,4.169613266E1,-3.646362543E0,3.582653809E1
1.892644215E1,4.640490723E1,-1.644706726E1,4.426452637E1
1.894310809E1,5.997909164E1,-2.805853653E1,4.527609253E1
1.895977402E1,7.250611877E1,-3.872514343E1,3.994279099E1
1.897643996E1,7.321528625E1,-4.645336151E1,4.127140427E1
1.899310590E1,7.079255676E1,-5.612096405E1,4.041058731E1
1.900977184E1,5.846174240E1,-6.127001953E1,2.367458725E1
1.902643777E1,3.919413757E1,-5.900999832E1,8.917152405E0
1.904310371E1,1.575135326E1,-5.451926804E1,8.763712645E-1
1.905976965E1,-6.498607159E0,-5.294538879E1,-3.336791277E0
1.907643559E1,-2.884577560E1,-5.429404449E1,-4.484747887E0
1.909310152E1,-4.183641052E1,-6.053631973E1,-6.247061729E0
1.910976746E1,-5.004498672E1,-6.604639435E1,-5.671288967E0
1.912643340E1,-3.904189301E1,-7.239155579E1,-1.228116274E0
1.914309934E1,-1.649013710E1,-7.665287781E1,-2.169392824E0
1.915976527E1,5.187938690E0,-7.839694214E1,-2.975475073E0
1.917643121E1,2.634766960E1,-7.839843750E1,2.313859463E0
1.919309715E1,4.521447754E1,-7.839843750E1,9.420842171E0
1.920976309E1,6.078337860E1,-7.839843750E1,1.919671822E1
1.922642902E1,6.741030121E1,-7.839843750E1,2.867857742E1
1.924309496E1,7.508916473E1,-7.408956909E1,4.610281372E1
1.925976090E1,7.839575195E1,-5.176333237E1,5.700481033E1
1.927642684E1,7.839843750E1,-2.526072884E1,3.644358444E1
1.929309277E1,7.359993744E1,-5.332704544E0,2.391775703E1
1.930975871E1,4.789712906E1,4.944767952E0,3.160828972E1
1.932642465E1,2.490509605E1,1.528923893E1,3.154218864E1
1.934309059E1,1.446700573E1,3.014717293E1,2.224397850E1
1.935975652E1,1.625952911E1,4.079673004E1,1.868585205E1
1.937642246E1,2.361835670E1,4.238676071E1,2.809921455E1
1.939308840E1,2.101646042E1,3.931048584E1,4.843402100E1
1.940975434E1,1.539183140E1,3.074747276E1,5.235735321E1
1.942642027E1,1.334088326E1,1.922453499E1,4.295086670E1
1.944308621E1,1.727049637E1,9.419346809E0,3.599851990E1
1.945975215E1,2.583381081E1,3.293122053E-1,4.045664978E1
1.947641809E1,3.903351593E1,-9.192028046E0,5.156293488E1
1.949308402E1,5.362375259E1,-2.180818558E1,5.409185028E1
1.950974996E1,6.294948196E1,-3.278496170E1,4.128725815E1
1.952641590E1,7.241219330E1,-3.911995697E1,3.004966545E1
1.954308184E1,6.854898834E1,-4.597748947E1,2.763201714E1
1.955974777E1,5.324179840E1,-5.073322296E1,2.871895599E1
1.957641371E1,3.324408340E1,-5.278805923E1,2.410768890E1
1.959307965E1,1.795364761E1,-5.250540924E1,1.627927017E1
1.960974559E1,3.665206194E0,-5.134399033E1,5.491229057E0
1.962641152E1,-1.427468300E1,-5.001807022E1,-7.838587761E0
1.964307746E1,-3.461427307E1,-5.029772949E1,-1.880997849E1
1.965974340E1,-4.849324417E1,-5.052534866E1,-1.438385487E1
1.967640934E1,-3.950101471E1,-5.564748383E1,-4.633102894E0
1.969307527E1,-2.558077049E1,-5.677420425E1,-4.049852371E0
1.970974121E1,-1.297119236E1,-5.739873123E1,-9.432806015E0
1.972640715E1,1.524527073E0,-6.166393661E1,-4.983352184E0
1.974307309E1,1.986790466E1,-6.511498260E1,6.853941441E0
1.975973902E1,3.821756363E1,-6.289534378E1,1.906870270E1
1.977640496E1,5.478636551E1,-5.554817963E1,2.543510628E1
1.979307090E1,6.325785446E1,-4.417898178E1,1.494138241E1
1.980973684E1,7.790013885E1,-3.507309723E1,1.854736686E0
1.982640277E1,7.839843750E1,-2.363839531E1,1.068156052E1
1.984306871E1,7.004659271E1,-1.052243805E1,3.410071182E1
1.985973465E1,5.123182678E1,2.672782898E0,3.403879929E1
1.987640059E1,3.079532814E1,9.453145027E0,1.643629837E1
1.989306652E1,1.170658588E1,1.438804245E1,9.337391853E0
1.990973246E1,4.588237286E0,1.628704643E1,1.419033527E1
1.992639840E1,1.633699656E0,1.672583008E1,2.048615074E1
1.994306434E1,1.387538075E0,1.749003792E1,2.112563324E1
1.995973027E1,3.471387386E0,1.789771461E1,1.691396523E1
1.997639621E1,3.985545158E0,1.635703659E1,1.331665611E1
1.999306215E1,4.105186462E0,1.504666710E1,1.352812195E1
2.000972809E1,1.188245773E1,1.417358589E1,1.552493286E1
2.002639402E1,2.670061111E1,1.242203999E1,1.537687683E1
2.004305996E1,3.828097534E1,8.183453560E0,1.529970837E1
2.005972590E1,3.937419510E1,2.639283419E0,1.275374508E1
2.007639184E1,3.112523842E1,-2.875275612E0,9.953245163E0
2.009305777E1,2.863879776E1,-1.205743313E1,8.690732002E0
2.010972371E1,2.455215454E1,-1.961187363E1,5.178068161E0
2.012638965E1,1.607617950E1,-2.072961998E1,5.518447161E-1
2.014305559E1,1.319252872E1,-2.066052818E1,-3.795614839E-1
2.015972152E1,1.016710377E1,-2.066860390E1,1.668395638E0
2.017638746E1,4.712963104E0,-1.910788536E1,5.019543648E0
2.019305340E1,-1.088734269E-1,-1.939053726E1,4.450949192E0
2.020971934E1,-3.215056419E0,-1.992234230E1,1.491924882E0
2.022638527E1,-3.384049416E0,-2.085853386E1,-4.840381145E0
2.024305121E1,-7.995915890E0,-2.012752724E1,-1.338245869E1
2.025971715E1,-1.700190163E1,-1.951526260E1,-2.012244225E1
2.027638309E1,-1.875883293E1,-2.059801483E1,-1.705095482E1
2.029304902E1,-8.337192535E0,-2.213301086E1,-8.477172852E0
2.030971496E1,5.094319344E0,-2.080708885E1,-2.839682341E0
2.032638090E1,1.142871952E1,-1.696810341E1,2.748754919E-1
2.034304684E1,1.396899986E1,-1.278305721E1,-6.032904387E-1
2.035971277E1,2.222034836E1,-8.204390526E0,-1.981257200E0
2.037637871E1,3.279782104E1,-4.831408024E0,-1.109372377E0
2.039304465E1,3.542035675E1,-4.833800793E0,3.652942896E0
2.040971059E1,2.982264519E1,4.648058116E-1,9.990333557E0
2.042637652E1,3.486103439E1,1.666002750E0,1.769372749E1
2.044304246E1,3.699542999E1,7.123433113E0,2.917119980E1
2.045970840E1,3.496332550E1,9.625428200E0,2.816711235E1
2.047637434E1,2.337967110E1,8.984749794E0,1.735544205E1
2.049304027E1,6.495316982E0,9.583254814E0,5.508875847E0
2.050970621E1,-2.520838737E0,1.101535892E1,-2.405983210E0
2.052637215E1,-4.805685043E0,1.175982571E1,-5.614758492E0
2.054303809E1,-7.115955353E0,1.016949654E1,-6.729813576E0
2.055970402E1,-1.097198868E1,7.825128078E0,-4.353740692E0
2.057636996E1,-1.122473145E1,5.576772213E0,2.205584288E0
2.059303590E1,-7.576872826E0,3.544667721E0,8.188239098E0
2.060970184E1,7.211369276E-1,1.446461320E0,1.014078236E1
2.062636777E1,7.668099403E0,-1.725823283E-1,1.062443161E1
2.064303371E1,1.634656715E1,3.457628787E-1,1.078504944E1
2.065969965E1,3.519512939E1,-6.899405003E0,3.853341818E0
2.067636559E1,4.094867325E1,-4.717150688E0,4.997709274E0
2.069303152E1,4.159263992E1,-7.394420147E0,1.083470058E1
2.070969746E1,2.593789864E1,-8.660522461E0,1.077218819E1
2.072636340E1,9.391230583E0,-8.069495201E0,4.813461781E0
2.074302934E1,7.220940590E0,-6.841079712E0,-2.700300455E0
2.075969527E1,1.185015488E1,-5.090131760E0,-4.962415218E0
2.077636121E1,1.223091316E1,-3.274577856E0,-6.771090031E0
2.079302715E1,1.022782135E1,-1.541276932E0,-8.846564293E0
2.080969309E1,9.623633385E0,-2.014756680E0,-5.476871967E0
2.082635902E1,8.644968987E0,-2.810070992E0,1.220339537E0
2.084302496E1,4.740480900E0,-2.812463999E0,2.270489693E0
2.085969090E1,1.179661512E0,-3.736990690E0,2.189432621E0
2.087635684E1,3.906881094E0,-5.535795212E0,9.835697174E0
2.089302277E1,4.749454021E0,-6.798308372E0,2.318734932E1
2.090968871E1,5.645864964E0,-5.632405281E0,3.147369385E1
2.092635465E1,5.758925915E0,-4.013361931E0,2.700360107E1
2.094302059E1,3.361018419E0,-1.348654628E0,1.588026619E1
2.095968652E1,2.589333296E0,1.025922656E0,4.678865433E0
2.097635246E1,2.962015390E0,2.576172590E0,-2.026421785E0
2.099301840E1,1.641476393E0,3.130111217E0,-2.215753794E0
2.100968434E1,-1.111466169E0,2.453241348E0,9.394819736E-1
2.102635027E1,-3.561118364E0,2.027318954E0,4.501497746E0
2.104301621E1,-5.163711071E0,9.460622668E-1,6.905087948E0
2.105968215E1,-5.607280731E0,2.021935135E-1,8.992527008E0
2.107634809E1,-5.465805054E0,-2.667997181E-1,9.731011391E0
2.109301402E1,-7.395915508E0,2.828017235E0,9.935298920E0
2.110967996E1,-7.429714203E0,3.023630619E0,1.090050316E1
2.112634590E1,-2.507678032E0,2.983849764E0,1.380628777E1
2.114301184E1,3.661916018E0,-3.768695518E-2,1.688674736E1
2.115967777E1,5.305785179E0,-1.396810263E-1,2.148455620E1
2.117634371E1,5.048257351E0,-1.569691658E0,2.543720055E1
2.119300965E1,4.296911240E0,-2.423032045E0,2.387468719E1
2.120967559E1,3.060420275E0,-1.172483087E0,1.680150414E1
2.122634152E1,2.388635159E0,2.330010980E-1,8.468797684E0
2.124300746E1,2.421536446E0,1.302293777E0,2.740679264E0
2.125967340E1,3.306581736E0,1.568794370E0,9.843474030E-1
2.127633934E1,4.073182583E0,1.418345571E0,2.903092146E0
2.129300527E1,4.568795681E0,1.066301584E0,6.538686752E0
2.130967121E1,4.008276939E0,8.892326951E-1,8.508278847E0
2.132633715E1,3.277868032E0,1.390229940E0,8.884550095E0
2.134300309E1,2.900998354E0,1.415653706E0,8.273183823E0
2.135966902E1,3.317947626E0,1.145563841E0,8.107182503E0
2.137633496E1,3.808775425E0,1.658525229E0,8.290831566E0
2.139300090E1,4.190729618E0,2.180160522E0,1.012343407E1
2.140966684E1,4.354339123E0,2.155334949E0,1.304566860E1
2.142633277E1,5.372185707E0,1.961815476E0,1.393908882E1
2.144299871E1,6.180660725E0,1.980658889E0,1.154746342E1
2.145966465E1,5.351547718E0,2.249552488E0,8.491230011E0
2.147633059E1,3.506083488E0,1.859522343E0,8.138288498E0
2.149299652E1,2.057528257E0,1.218245864E0,1.231466198E1
2.150966246E1,2.951247692E0,1.798804402E0,1.265354538E1
2.152632840E1,3.781856298E0,2.172084808E0,1.171585751E1
2.154299434E1,4.087539196E0,2.219642162E0,9.470193863E0
2.155966027E1,3.477668524E0,2.405085802E0,7.433602810E0
2.157632621E1,2.675474882E0,2.264806747E0,5.573482037E0
2.159299215E1,2.622832775E0,1.855334878E0,6.049354553E0
2.160965809E1,2.982653379E0,2.309073925E0,8.906983376E0
2.162632402E1,2.245364904E0,2.615056038E0,1.010548782E1
2.164298996E1,1.753639936E0,2.992523909E0,9.384351730E0
2.165965590E1,1.948056698E0,3.354438305E0,8.143672943E0
2.167632184E1,2.556730986E0,3.668496132E0,7.118647575E0
2.169298777E1,2.702693224E0,3.604488134E0,7.316354275E0
2.170965371E1,2.401795626E0,3.295814037E0,8.707481384E0
2.172631965E1,1.346261859E0,3.363710403E0,9.584152222E0
2.174298559E1,8.997012973E-1,2.918047190E0,9.189934731E0
2.175965152E1,1.096511006E0,2.970988512E0,8.186444283E0
2.177631746E1,1.408176184E0,3.045464993E0,7.731808186E0
2.179298340E1,1.400399446E0,3.289532900E0,7.603792191E0
2.180964934E1,1.303191066E0,3.336193085E0,7.628617764E0
2.182631527E1,1.147657514E0,3.491128206E0,7.991130352E0
2.184298121E1,1.249950767E0,3.809672832E0,7.852346420E0
2.185964715E1,1.349851131E0,4.075575352E0,7.238587379E0
2.187631309E1,1.417747378E0,4.080360889E0,7.648059368E0
2.189297902E1,1.171286702E0,4.242175579E0,8.534002304E0
2.190964496E1,1.575673699E0,4.088436604E0,8.364410400E0
2.192631090E1,2.073679924E0,4.237090588E0,8.454739571E0
2.194297684E1,2.087438583E0,4.260420799E0,8.619544983E0
2.195964277E1,1.754836321E0,4.319941998E0,8.954839706E0
2.197630871E1,1.851446509E0,4.453940392E0,8.970991135E0
2.199297465E1,2.031805515E0,4.618745804E0,8.954839706E0
2.200964059E1,2.282453775E0,4.760819912E0,8.863613129E0
2.202630652E1,2.190330029E0,4.894219398E0,8.598010063E0
2.204297246E1,2.080858469E0,4.854139805E0,8.595019341E0
2.205963840E1,2.062912226E0,4.913661480E0,8.664410591E0
2.207630434E1,2.120639086E0,4.895416260E0,8.913264275E0
2.209297027E1,2.506780863E0,4.971088886E0,8.697610855E0
2.210963621E1,2.488535643E0,4.969294548E0,8.423334122E0
2.212630215E1,2.141875267E0,4.824229717E0,8.208578110E0
2.214296809E1,1.942074656E0,4.810770035E0,8.113762856E0
2.215963402E1,1.892124534E0,4.804189682E0,6.267101765E0
2.217629996E1,3.087040424E0,4.304089546E0,9.533304214E0
2.219296590E1,2.909971476E0,4.724328995E0,1.065613651E1
2.220963184E1,2.266601324E0,4.853242397E0,9.788140297E0
2.222629777E1,2.129911184E0,4.825725079E0,7.698009491E0
