"Time (s)","Gyroscope x (rad/s)","Gyroscope y (rad/s)","Gyroscope z (rad/s)"
2.726902400E-2,3.057378232E-1,2.300669402E-1,1.014799103E-1
4.393496200E-2,3.375027776E-1,2.012035847E-1,4.482220486E-2
6.060089900E-2,2.146426141E-1,2.666424811E-1,7.887791097E-2
7.726683700E-2,8.155044913E-2,3.788888752E-1,1.291215420E-1
9.393277400E-2,3.733910993E-2,4.508182108E-1,1.101847365E-1
1.105987120E-1,4.207331315E-2,4.420370162E-1,7.223475724E-2
1.272646490E-1,1.008690447E-1,3.818668425E-1,9.162971750E-3
1.439305870E-1,1.899789423E-1,2.099084109E-1,-1.061377581E-2
1.605965240E-1,3.160461783E-1,4.291325063E-2,-2.214384731E-3
1.772624620E-1,3.958403766E-1,-8.933897130E-3,-5.192350596E-3
1.939283990E-1,3.554469347E-1,-1.015562657E-2,-2.160934173E-2
2.105943370E-1,2.532034516E-1,1.351538301E-2,-2.886336111E-2
2.272602740E-1,1.708130687E-1,3.420842811E-2,-4.329504073E-2
2.439262120E-1,7.903063297E-2,6.467530876E-2,-3.856083751E-2
2.605921490E-1,-1.290451828E-2,1.393535286E-1,-1.298087649E-3
2.772580870E-1,-5.535962060E-2,1.919642538E-1,5.062541738E-2
2.939240240E-1,-5.955931544E-2,1.611919403E-1,7.658717036E-2
3.105899620E-1,-2.939786762E-2,1.096502244E-1,5.726857483E-2
3.272558990E-1,-1.878409274E-2,4.535670951E-2,-1.580612548E-2
3.439218370E-1,-3.123046272E-2,4.436405376E-2,-2.270889878E-1
3.605877740E-1,8.857539296E-2,4.757109284E-2,-4.295906425E-1
3.772537120E-1,3.925569654E-1,1.034652218E-1,-5.984947681E-1
3.939196490E-1,4.831176698E-1,1.336266659E-2,-6.297252178E-1
4.105855870E-1,4.037816226E-1,-1.085812151E-1,-6.595812440E-1
4.272515240E-1,3.631591201E-1,-2.026543915E-1,-7.107411623E-1
4.439174620E-1,4.681515098E-1,-2.439641207E-1,-8.684970140E-1
4.605833990E-1,6.848557591E-1,-1.098029464E-1,-9.682970047E-1
4.772493370E-1,7.966440320E-1,-1.656970754E-2,-9.837977290E-1
4.939152740E-1,1.035797596E0,3.611738086E-1,-1.193171620E0
5.105812120E-1,1.241964459E0,4.587594569E-1,-1.175532937E0
5.272471490E-1,9.146936536E-1,-8.475748450E-2,-9.466876984E-1
5.439130870E-1,5.378664136E-1,-4.092794061E-1,-7.241802216E-1
5.605790240E-1,3.436878026E-1,-2.691622972E-1,-6.427824497E-1
5.772449620E-1,4.558578432E-1,-2.191477455E-2,-5.951350331E-1
5.939108990E-1,7.031053901E-1,1.052214578E-1,-5.046506524E-1
6.105768370E-1,7.344885468E-1,-3.993528336E-2,-3.487274349E-1
6.272427740E-1,4.967857897E-1,-3.273471594E-1,-2.448804229E-1
6.439087120E-1,3.061196208E-1,-3.301724195E-1,-1.508836001E-1
6.605746490E-1,1.440877318E-1,-2.138026655E-1,-3.871355578E-2
6.772405870E-1,-5.780307949E-2,-7.925970852E-2,-8.132137358E-2
6.939065240E-1,-1.430950761E-1,7.154753804E-2,-1.449276656E-1
7.105724620E-1,-1.244636998E-1,6.895136088E-2,-1.712712198E-1
7.272383990E-1,-7.567087561E-2,-7.208204269E-2,-2.157116234E-1
7.439043370E-1,5.879573524E-3,-2.430478185E-1,-2.638935745E-1
7.605702740E-1,9.476039559E-2,-1.649334878E-1,-1.801287532E-1
7.772362120E-1,5.283980444E-2,-4.169152305E-2,-7.719803602E-2
7.939021490E-1,-6.620246917E-2,-2.878700197E-2,-1.656970754E-2
8.105680870E-1,-1.356883347E-1,-9.537126124E-2,3.054323839E-3
8.272340240E-1,-1.292742640E-1,-1.729510874E-1,-4.260781780E-2
8.438999620E-1,-1.045342386E-1,-1.506545246E-1,-6.696604937E-2
8.605658990E-1,-1.017853469E-1,1.298087649E-3,3.115410358E-2
8.772318370E-1,-1.168278903E-1,2.096029818E-1,1.970802546E-1
8.938977740E-1,-1.753181964E-1,1.750891209E-1,2.893971801E-1
9.105637120E-1,-2.562577724E-1,6.750056148E-2,3.032943606E-1
9.272296490E-1,-3.339903057E-1,-1.740964688E-2,2.625955045E-1
9.438955870E-1,-3.220784664E-1,9.086613357E-2,1.981492639E-1
9.605615240E-1,-2.214384824E-1,3.555996716E-1,1.418733448E-1
9.772274620E-1,-1.463021189E-1,5.160280466E-1,9.628756344E-2
9.938933990E-1,-9.957095981E-2,4.023308158E-1,6.803506613E-2
1.010559337E0,-9.834922850E-2,1.418733448E-1,3.123046272E-2
1.027225274E0,-1.027780026E-1,4.749473557E-2,2.092211880E-2
1.043891212E0,-9.857830405E-2,7.162389904E-2,2.787070535E-2
1.060557149E0,-5.253437161E-2,1.319467872E-1,-0.000000000E0
1.077223087E0,1.015562657E-2,-1.970038936E-2,-1.074358448E-1
1.093889024E0,2.107483521E-2,-2.617555559E-1,-2.122755051E-1
1.110554962E0,-5.864302069E-2,-3.463603258E-1,-2.541197538E-1
1.127220899E0,-1.986837685E-1,-2.303723842E-1,-2.620609999E-1
1.143886837E0,-3.075704277E-1,3.000873141E-2,-2.535852492E-1
1.160552774E0,-2.977965772E-1,2.233474404E-1,-2.519817352E-1
1.177218712E0,-1.620318890E-1,2.602283955E-1,-2.545779049E-1
1.193884649E0,1.450803829E-3,2.128100246E-1,-2.796997130E-1
1.210550587E0,1.220965981E-1,1.356119812E-1,-2.970330119E-1
1.227216524E0,1.632536054E-1,1.556941569E-1,-2.750418782E-1
1.243882462E0,1.762344837E-1,1.948658675E-1,-2.605338395E-1
1.260548399E0,4.260781705E-1,1.782961637E-1,-2.964984775E-1
1.277214337E0,5.997928381E-1,3.619373962E-2,-1.676060259E-1
1.293880274E0,6.404153705E-1,-1.729510874E-1,-2.127336562E-1
1.310546212E0,5.955168009E-1,-3.527744114E-1,-2.508363426E-1
1.327212149E0,4.952586293E-1,-4.835758209E-1,-2.430478185E-1
1.343878087E0,3.392590284E-1,-4.893026948E-1,-2.299905866E-1
1.360544024E0,1.792124510E-1,-3.973675370E-1,-2.528216541E-1
1.377209962E0,5.299251899E-2,-2.787834108E-1,-3.391826749E-1
1.393875899E0,-3.214675933E-2,-2.443459183E-1,-4.697550237E-1
1.410541837E0,-7.605266571E-2,-2.528980076E-1,-5.970439911E-1
1.427207774E0,-1.007163301E-1,-2.264781147E-1,-6.680569649E-1
1.443873712E0,-1.698967665E-1,-1.592829973E-1,-6.504946351E-1
1.460539649E0,-2.522871494E-1,-6.902772188E-2,-6.501128674E-1
1.477205587E0,-2.248746008E-1,4.818195850E-2,-6.604211926E-1
1.493871524E0,-1.224783882E-1,7.490729541E-2,-6.674461365E-1
1.510537462E0,-1.293506175E-1,-5.703949928E-2,-6.376664639E-1
1.527203399E0,-3.240637779E-1,-2.596938908E-1,-7.008909583E-1
1.543869337E0,-4.805215001E-1,-2.814559340E-1,-5.512291193E-1
1.560535274E0,-6.491965652E-1,-3.727802336E-1,-4.964039922E-1
1.577201212E0,-6.669116020E-1,-4.550178945E-1,-4.020253718E-1
1.593867149E0,-5.117519498E-1,-4.075231552E-1,-3.434587121E-1
1.610533087E0,-3.265835941E-1,-4.488328993E-1,-2.711476088E-1
1.627199024E0,-1.592066288E-1,-6.023126841E-1,-2.120464295E-1
1.643864962E0,-4.291325063E-2,-7.307469845E-1,-2.454912812E-1
1.660530899E0,-5.650499370E-3,-5.879573226E-1,-3.184132576E-1
1.677196837E0,-8.628465235E-3,-2.282343507E-1,-2.768744528E-1
1.693862774E0,3.436114406E-3,2.122755162E-2,-1.944077164E-1
1.710528712E0,7.002037764E-2,1.634063199E-2,-1.580612659E-1
1.727194649E0,1.172096804E-1,-1.327867359E-1,-1.456148922E-1
1.743860587E0,1.411861181E-1,-2.326631248E-1,-1.136208475E-1
1.760526524E0,1.212566569E-1,-2.738201320E-1,-1.001054645E-1
1.777192462E0,1.153007299E-1,-2.527453005E-1,-1.152243689E-1
1.793858399E0,1.138499230E-1,-2.794706225E-1,-1.133154184E-1
1.810524337E0,8.865175396E-2,-3.010036349E-1,-4.650207981E-2
1.827190274E0,6.055197120E-2,-2.627482116E-1,-1.208748668E-1
1.843856212E0,1.072067693E-1,-2.796233594E-1,-2.450331300E-1
1.860522149E0,1.643989831E-1,-3.598757088E-1,-2.879463732E-1
1.877188087E0,1.758527011E-1,-4.135554433E-1,-3.384190798E-1
1.893854024E0,1.270598769E-1,-4.953349829E-1,-3.417024910E-1
1.910519962E0,5.192350596E-2,-4.960985482E-1,-3.209330738E-1
1.927185899E0,-1.275180187E-2,-4.055378437E-1,-2.680932879E-1
1.943851837E0,-1.145371469E-3,-2.751945853E-1,-2.211330533E-1
1.960517774E0,1.094975099E-1,-2.086103261E-1,-1.980729103E-1
1.977183712E0,2.529743910E-1,-1.654679924E-1,-2.302196622E-1
1.993849649E0,3.339903057E-1,-2.138026655E-1,-2.838230431E-1
2.010515587E0,2.926805913E-1,-2.687041461E-1,-3.322340846E-1
2.027181524E0,1.482110620E-1,-2.673296928E-1,-3.433823586E-1
2.043847462E0,-3.061959706E-2,-2.153298408E-1,-3.428478539E-1
2.060513399E0,-1.612683088E-1,-1.521053314E-1,-3.597993553E-1
2.077179337E0,-2.590066791E-1,-6.352993846E-2,-3.721693754E-1
2.093845274E0,-3.336085379E-1,-1.275180187E-2,-3.194822669E-1
2.110511212E0,-3.524689674E-1,-1.740964688E-2,-2.485456020E-1
2.127177149E0,-3.089448512E-1,-8.743002266E-2,-1.844048053E-1
2.143843087E0,-2.134972364E-1,-1.058323234E-1,-1.311832070E-1
2.160509024E0,-1.698967665E-1,-6.162098423E-2,-9.766200930E-2
2.177174962E0,-1.468366235E-1,3.375028074E-2,-6.658425927E-2
2.193840899E0,-5.833758786E-2,2.196822464E-1,-4.161516204E-2
2.210506837E0,1.308014244E-1,3.578140438E-1,2.924515121E-2
2.227172774E0,3.539961278E-1,3.077994883E-1,1.153770834E-1
2.243838712E0,4.544070363E-1,1.487455666E-1,1.547778696E-1
2.260504649E0,3.530034721E-1,3.199404106E-2,1.945604384E-1
2.277170587E0,1.399643868E-1,6.452259421E-2,2.575558722E-1
2.293836524E0,9.926552884E-4,3.061196208E-1,3.482692838E-1
2.310502462E0,2.825249685E-3,5.929206014E-1,4.322631955E-1
2.327168399E0,9.880737960E-2,7.289907336E-1,4.805978537E-1
2.343834337E0,2.366337478E-1,6.675988436E-1,5.154935122E-1
2.360500274E0,3.505600393E-1,4.170679152E-1,5.218312144E-1
2.377166212E0,3.482692838E-1,2.976438701E-1,4.650971591E-1
2.393832149E0,1.217148080E-1,2.764163017E-1,4.826595485E-1
2.410498087E0,-1.201112866E-1,4.301251769E-1,5.274817348E-1
2.427164024E0,-2.161697745E-1,5.083158612E-1,6.004037261E-1
2.443829962E0,-1.478292793E-1,4.066068828E-1,6.300306916E-1
2.460495899E0,-6.383536756E-2,2.395353466E-1,5.876519084E-1
2.477161837E0,-8.460476995E-2,1.073594838E-1,5.361865759E-1
2.493827774E0,-1.884517819E-1,-2.878700197E-2,4.610501826E-1
2.510493712E0,-2.479347438E-1,-9.521854669E-2,3.527744114E-1
2.527159649E0,-2.045633495E-1,-1.010217592E-1,2.422078848E-1
2.543825587E0,-1.234710440E-1,-7.162389904E-2,1.677587330E-1
2.560491524E0,-7.742711157E-2,-8.910989761E-2,1.256854236E-1
2.577157462E0,-8.384118974E-2,-1.450040340E-1,9.789107740E-2
2.593823399E0,-1.053741723E-1,-1.339320987E-1,7.078395784E-2
2.610489337E0,-1.069776937E-1,-2.535088919E-2,2.374736778E-2
2.627155274E0,-9.162971377E-2,1.647807807E-1,9.850194678E-3
2.643821212E0,-4.902189970E-2,2.888626754E-1,2.237292193E-2
2.660487149E0,3.909534588E-2,2.287688553E-1,1.122464053E-2
2.677153087E0,1.191186309E-1,2.871064469E-2,-5.826122686E-2
2.693819024E0,1.419496983E-1,-2.291506529E-1,-1.537852138E-1
2.710484962E0,1.225547493E-1,-3.421606421E-1,-2.018144578E-1
2.727150899E0,3.802633286E-2,-2.735147178E-1,-1.475238502E-1
2.743816837E0,-3.627009690E-2,-1.799760312E-1,-1.017853469E-1
2.760482774E0,-4.077522457E-2,-1.922696829E-1,-8.933897316E-2
2.777148712E0,-1.078939885E-1,-3.871355653E-1,-1.728747338E-1
2.793814649E0,-5.551233515E-2,-4.198168218E-1,-2.156352699E-1
2.810480587E0,-6.322450191E-2,-5.749764442E-1,-3.710239828E-1
2.827146524E0,2.641990222E-2,-5.557342172E-1,-3.788888752E-1
2.843812462E0,1.750891209E-1,-5.031235218E-1,-4.099666178E-1
2.860478399E0,3.187187016E-1,-4.050796926E-1,-4.078285992E-1
2.877144337E0,3.469711840E-1,-3.810268939E-1,-4.499782622E-1
2.893810274E0,3.355174661E-1,-3.715584874E-1,-4.977784455E-1
2.910476212E0,3.050506115E-1,-3.451386094E-1,-5.349648595E-1
2.927142149E0,2.457203567E-1,-2.532034516E-1,-5.531380773E-1
2.943808087E0,1.340084672E-1,-1.267544478E-1,-5.652790070E-1
2.960474024E0,7.673988491E-2,-2.924515121E-2,-5.417606831E-1
2.977139962E0,9.094249457E-2,-1.043051630E-1,-5.309178233E-1
2.993805899E0,1.143080741E-1,-2.499200553E-1,-5.664243698E-1
3.010471837E0,1.062904745E-1,-3.162752390E-1,-6.185769439E-1
3.027137774E0,3.428478539E-2,-3.276526034E-1,-6.698895693E-1
3.043803712E0,-1.035415828E-1,-4.342485070E-1,-6.727148294E-1
3.060469649E0,-2.091448307E-1,-5.430588126E-1,-6.493492723E-1
3.077135587E0,-2.532034516E-1,-5.118283033E-1,-5.959749222E-1
3.093801524E0,-2.955058515E-1,-2.257145345E-1,-5.365683436E-1
3.110467462E0,-2.521344423E-1,-1.045342386E-1,-5.438987017E-1
3.127133399E0,-2.194531709E-1,-1.928042024E-1,-5.371028781E-1
3.143799337E0,-1.837175786E-1,-2.240346521E-1,-3.953058720E-1
3.160465274E0,-1.941786408E-1,-2.437350452E-1,-2.454912812E-1
3.177131212E0,-2.185368687E-1,2.527453005E-2,-1.527925581E-1
3.193797149E0,-2.041815519E-1,3.971384764E-1,-5.642863363E-2
3.210463087E0,-1.508836001E-1,2.914588451E-1,-5.627591908E-2
3.227129024E0,-2.142608166E-1,-2.672533318E-2,-1.752418280E-1
3.243794962E0,-2.917642891E-1,-2.022725940E-1,-3.155116439E-1
3.260460899E0,-3.236056268E-1,-1.891390085E-1,-4.233292937E-1
3.277126837E0,-3.439932168E-1,-6.910407543E-2,-4.632645845E-1
3.293792774E0,-3.996582925E-1,7.750347257E-2,-4.231002033E-1
3.310458712E0,-3.463603258E-1,1.180496216E-1,-4.546361268E-1
3.327124649E0,-2.623664141E-1,-1.208748668E-1,-3.087157905E-1
3.343790587E0,-4.377609789E-1,-3.149771392E-1,-3.252091408E-1
3.360456524E0,-6.727148294E-1,-6.047561392E-2,-3.130682111E-1
3.377122462E0,-7.827468514E-1,1.439350098E-1,-2.381609082E-1
3.393788399E0,-7.174606919E-1,8.170315996E-3,-1.732565165E-1
3.410454337E0,-5.556578636E-1,-3.378082216E-1,-1.834121495E-1
3.427120274E0,-4.151589870E-1,-2.622137070E-1,-4.627300799E-2
3.443786212E0,-3.161225319E-1,-1.970038936E-2,6.330086291E-2
3.460452149E0,-2.686277926E-1,2.605338395E-1,1.563050300E-1
3.477118087E0,-2.662606835E-1,5.591703653E-1,2.819904685E-1
3.493784024E0,-1.886045039E-1,8.281798959E-1,4.024071693E-1
3.510449962E0,-5.421424750E-3,7.839685678E-1,4.221075773E-1
3.527115899E0,1.937968582E-1,3.420842886E-1,3.504073024E-1
3.543781837E0,3.591884971E-1,-1.627191007E-1,2.869537175E-1
3.560447774E0,4.765508771E-1,-5.413025618E-1,1.662315726E-1
3.577113712E0,5.681042671E-1,-8.381828070E-1,1.527161896E-1
3.593779649E0,6.401863098E-1,-9.551634192E-1,2.764926851E-1
3.610445587E0,5.624537468E-1,-8.782708645E-1,1.954767257E-1
3.627111524E0,3.570504785E-1,-6.652317643E-1,-4.650207981E-2
3.643777462E0,1.569158882E-1,-4.983129501E-1,-6.513345987E-2
3.660443399E0,4.886918236E-3,-5.030471683E-1,7.299833745E-2
3.677109337E0,-7.941242307E-3,-4.613556266E-1,2.039524764E-1
3.693775274E0,-1.450803876E-2,-1.241582632E-1,4.334849119E-1
3.710441212E0,-4.965566993E-1,8.850666881E-1,6.872992516E-1
3.727107149E0,-7.799979448E-1,1.505552649E0,7.136427760E-1
3.743773087E0,-8.416189551E-1,1.327256441E0,4.030944109E-1
3.760439024E0,-6.631700993E-1,1.173242211E0,-5.138900131E-2
3.777104962E0,-2.112064958E-1,8.464295268E-1,-1.099556610E-1
3.793770899E0,1.811977625E-1,3.608683646E-1,-2.034179717E-1
3.810436837E0,1.734855920E-1,7.116574794E-2,-2.091448307E-1
3.827102774E0,-2.390008420E-2,2.391535640E-1,-1.366809905E-1
3.843768712E0,-1.906661689E-1,4.269181192E-1,-8.040507883E-2
3.860434649E0,-3.049742281E-1,3.559814394E-1,-1.397353113E-1
3.877100587E0,-3.233765364E-1,1.747073233E-1,-2.011272311E-1
3.893766524E0,-2.597702444E-1,2.459494323E-1,-1.532506943E-1
3.910432462E0,-2.070067972E-1,2.523635030E-1,-8.613193035E-2
3.927098399E0,-1.974620372E-1,1.389717311E-1,-4.184423760E-2
3.943764337E0,-1.803578287E-1,-1.173623949E-1,-8.200860023E-2
3.960430274E0,-1.859319657E-1,-2.803869247E-1,-1.918115467E-1
3.977096212E0,-2.063195854E-1,-3.445277214E-1,-2.809978127E-1
3.993762149E0,-1.894444376E-1,-4.108065665E-1,-2.845866382E-1
4.010428087E0,-1.267544478E-1,-3.691914082E-1,-2.255618125E-1
4.027094024E0,-3.550651670E-2,-4.296670258E-1,-2.059377879E-1
4.043759962E0,1.664606482E-2,-4.653262496E-1,-2.475529462E-1
4.060425899E0,1.069013379E-3,-3.917934000E-1,-3.075704277E-1
4.077091837E0,-8.712458611E-2,-3.459785283E-1,-3.352120519E-1
4.093757774E0,-1.655443609E-1,-3.039052188E-1,-2.761872411E-1
4.110423712E0,-1.800523996E-1,-2.225074917E-1,-1.543197185E-1
4.127089649E0,-1.174387559E-1,-1.058323234E-1,-6.009382382E-2
4.143755587E0,-1.809686981E-2,-1.177441850E-1,-9.285144508E-2
4.160421524E0,5.131264031E-2,-3.575849831E-1,-2.105956376E-1
4.177087462E0,1.057559624E-1,-5.916988850E-1,-3.426951468E-1
4.193753399E0,1.076649204E-1,-7.547997832E-1,-4.050796926E-1
4.210419337E0,-4.024071619E-2,-5.710822344E-1,-3.446804583E-1
4.227085274E0,-4.375318885E-1,6.123919412E-2,-4.512763396E-2
4.243751212E0,-5.244274139E-1,2.565632164E-1,5.940660089E-2
4.260417149E0,-5.428296924E-1,2.689332068E-1,-1.629481763E-1
4.277083087E0,-5.054906011E-1,4.497491941E-2,-2.264017612E-1
4.293749024E0,-2.748127878E-1,-5.278635025E-1,-1.514181048E-1
4.310414962E0,-1.149189398E-1,-8.711695075E-1,-3.275762498E-2
4.327080899E0,-1.502727419E-1,-7.813724279E-1,-1.756236190E-3
4.343746837E0,-2.764926851E-1,-4.401280880E-1,-5.490147322E-2
4.360412774E0,-6.029235125E-1,4.375318885E-1,1.354592592E-1
4.377078712E0,-6.238456368E-1,8.171843290E-1,3.627773225E-1
4.393744649E0,-3.770562708E-1,5.044215918E-1,3.342193961E-1
4.410410587E0,-9.025526792E-2,2.046397030E-1,1.965457499E-1
4.427076524E0,1.650862098E-1,1.840230078E-1,1.616500914E-1
4.443742462E0,3.532325625E-1,3.138317764E-1,1.907425225E-1
4.460408399E0,3.786598146E-1,5.124391913E-1,2.879463732E-1
4.477074337E0,3.360520005E-1,5.195404887E-1,3.236819804E-1
4.493740274E0,2.165515572E-1,1.771507859E-1,1.930332631E-1
4.510406212E0,1.034652218E-1,-2.256381810E-1,-6.872228696E-4
4.527072149E0,-2.115119249E-2,-3.245982826E-1,-1.094975099E-1
4.543738087E0,-1.897498667E-1,-6.414080411E-2,-4.192059487E-2
4.560404024E0,-3.874409795E-1,1.564577371E-1,3.634645417E-2
4.577069962E0,-6.009382010E-1,1.574503928E-1,3.504836559E-2
4.593735899E0,-8.539889455E-1,-7.299833745E-2,4.780016840E-2
4.610401837E0,-1.150945544E0,-3.155116439E-1,7.735075057E-2
4.627067774E0,-1.406134367E0,-4.541015923E-1,1.143844277E-1
4.643733712E0,-1.477452874E0,-9.086613543E-3,1.917351782E-1
4.660399649E0,-9.950223565E-1,2.290742937E-3,3.131445646E-1
4.677065587E0,-3.472766280E-1,-3.959167302E-1,3.763690591E-1
4.693731524E0,-6.795870513E-2,-8.436806202E-1,2.138026655E-1
4.710397462E0,-3.652971387E-1,-1.136819363E0,-1.805869043E-1
4.727063399E0,-9.638682604E-1,-9.767727852E-1,-4.775435328E-1
4.743729337E0,-1.396895051E0,-4.169915617E-1,-4.707476795E-1
4.760395274E0,-1.316719055E0,2.110537887E-1,-1.608101577E-1
4.777061212E0,-8.139773011E-1,4.776962698E-1,1.772271395E-1
4.793727149E0,-1.645517051E-1,9.865466505E-2,3.946950138E-1
4.810393087E0,3.843866587E-1,-4.740310609E-1,5.600866675E-1
4.827059024E0,7.424297929E-1,-6.546943188E-1,7.532726526E-1
4.843724962E0,9.560033679E-1,-4.414261580E-1,8.297070861E-1
4.860390899E0,1.107803226E0,-2.333503515E-1,6.691260338E-1
4.877056837E0,1.385670424E0,-1.165224537E-1,3.762927055E-1
4.893722774E0,1.518151641E0,-1.047633067E-1,1.898262352E-1
4.910388712E0,1.376049280E0,7.284562290E-2,2.204458266E-1
4.927054649E0,1.301523805E0,3.528507650E-1,4.134790897E-1
4.943720587E0,1.674838543E0,6.716458201E-1,5.809323788E-1
4.960386524E0,2.380081892E0,4.712821841E-1,2.955058515E-1
4.977052462E0,2.795164585E0,3.802633286E-1,-1.506545246E-1
4.993718399E0,1.991877317E0,6.140718460E-1,-2.707658112E-1
5.010384337E0,9.156863093E-1,1.421864152E0,-7.826705277E-2
5.027050274E0,8.439860344E-1,2.308228970E0,3.149771392E-1
5.043716212E0,1.018387914E0,2.272340536E0,4.066832364E-1
5.060382149E0,7.181479335E-1,1.487913847E0,1.250745654E-1
5.077048087E0,-1.382845193E-1,3.977493346E-1,-2.441168427E-1
5.093714024E0,-1.244026065E0,-5.396226645E-1,-3.688859642E-1
5.110379962E0,-2.215759277E0,-9.414953589E-1,-5.542070866E-1
5.127045899E0,-3.112432480E0,-1.266780853E0,-9.669989347E-1
5.143711837E0,-3.324707985E0,-1.320765972E0,-1.206534266E0
5.160377774E0,-2.088393927E0,-1.060079455E0,-9.166789651E-1
5.177043712E0,-8.506292105E-2,-1.060537577E0,-3.649916947E-1
5.193709649E0,7.170788646E-1,-1.791131854E0,3.031416535E-1
5.210375587E0,-1.888335794E-1,-2.803869247E0,8.771254420E-1
5.227041524E0,-1.440342784E0,-2.950782299E0,1.246851325E0
5.243707462E0,-1.976987481E0,-2.093815327E0,1.792200923E0
5.260373399E0,-1.896811485E0,-1.361083031E0,2.699793339E0
5.277039337E0,-1.726609349E0,-1.022816658E0,3.251938581E0
5.293705274E0,-1.650709391E0,-2.399934977E-1,2.503400326E0
5.310371212E0,-2.152458429E0,1.041906238E0,7.745001912E-1
5.327037149E0,-2.317162752E0,2.662148714E0,-2.689332068E-1
5.343703087E0,-1.248378515E0,3.722151756E0,-4.384481907E-1
5.360369024E0,5.400808454E-1,2.535317898E0,-6.620246768E-1
5.377034962E0,1.696829677E0,9.298889041E-1,-7.704532146E-1
5.393700899E0,1.299309373E0,1.550374866E0,-7.647263408E-1
5.410366837E0,4.463894367E-1,2.986594200E0,-4.875464439E-1
5.427032774E0,9.979239702E-1,2.894277334E0,2.160170525E-1
5.443698712E0,3.413130522E0,1.250363827E0,5.652790070E-1
5.460364649E0,4.998248577E0,1.350392938E0,4.344012141E-1
5.477030587E0,4.304916859E0,3.414428711E0,8.811724186E-2
5.493696524E0,3.475667953E0,4.398608208E0,3.758345544E-1
5.510362462E0,4.036976337E0,2.856251001E0,1.232954144E0
5.527028399E0,4.285903454E0,5.673406720E-1,1.406363487E0
5.543694337E0,3.084256172E0,5.012145638E-1,1.129259944E0
5.560360274E0,4.955640435E-1,1.153007299E-1,9.085086584E-1
5.577026212E0,-1.331456184E0,-8.867465854E-1,7.845794559E-1
5.593692149E0,-1.486844897E0,-1.749898553E0,4.201986194E-1
5.610358087E0,-1.598404050E0,-2.402149439E0,-4.764745384E-2
5.627024024E0,-2.481561899E0,-1.828852773E0,-7.353284955E-1
5.643689962E0,-3.381823778E0,-1.395673275E0,-1.432172418E0
5.660355899E0,-3.403280497E0,-2.527987480E0,-1.483561516E0
5.677021837E0,-2.705443859E0,-3.720548391E0,-1.215849996E0
5.693687774E0,-2.294637203E0,-3.634187222E0,-9.360738993E-1
5.710353712E0,-1.700189352E0,-2.763246775E0,-4.637990892E-1
5.727019649E0,-6.785180569E-1,-4.237721920E0,1.903607398E-1
5.743685587E0,-1.553123742E-1,-4.894172192E0,5.529853702E-1
5.760351524E0,-7.168498039E-1,-3.275991440E0,8.203914165E-1
5.777017462E0,-1.982485294E0,-1.772576928E0,9.114102721E-1
5.793683399E0,-3.013090611E0,-1.009759426E0,7.535017133E-1
5.810349337E0,-3.324860573E0,-7.661771774E-1,3.729329407E-1
5.827015274E0,-3.438099623E0,-5.532144308E-1,-2.733619884E-2
5.843681212E0,-2.148258686E0,1.365435481E0,-1.664606482E-2
5.860347149E0,7.820596099E-1,3.030729294E0,3.399462402E-1
5.877013087E0,2.696662664E0,2.478965521E0,7.356339097E-1
5.893679024E0,2.635270596E0,1.881234407E0,5.343539715E-1
5.910344962E0,1.777616501E0,2.927111387E0,-2.732856274E-1
5.927010899E0,1.844353437E0,4.400822639E0,-3.471239209E-1
5.943676837E0,3.191615820E0,3.519802809E0,3.669770062E-1
5.960342774E0,4.619664669E0,1.896811485E0,7.285326123E-1
5.977008712E0,4.912651062E0,2.405814648E0,6.086503863E-1
5.993674649E0,4.527806282E0,3.751778841E0,5.336667299E-1
6.010340587E0,4.853473186E0,3.243081093E0,1.194698811E0
6.027006524E0,5.225260735E0,1.149036646E0,1.468824387E0
6.043672462E0,3.464519501E0,-9.277509153E-2,1.205847025E0
6.060338399E0,9.422589093E-2,-6.362156868E-1,1.019075155E0
6.077004337E0,-2.316704750E0,-1.067104459E0,9.022472501E-1
6.093670274E0,-1.639713764E0,-5.946768522E-1,1.182557821E0
6.110336212E0,3.885099888E-1,-5.994110554E-2,1.145676851E0
6.127002149E0,2.832885459E-2,-6.022363305E-1,8.939242363E-1
6.143668087E0,-2.726671219E0,-2.148716927E0,1.164461002E-1
6.160334024E0,-4.572475433E0,-1.941557288E0,-8.899536133E-1
6.176999962E0,-4.218402863E0,-5.765036345E-1,-1.464701056E0
6.193665899E0,-2.593961000E0,-1.108337760E0,-1.321987748E0
6.210331837E0,-1.445840597E0,-3.190317631E0,-1.080772519E0
6.226997774E0,-1.149571180E0,-3.170769930E0,-8.341358304E-1
6.243663712E0,-1.027932763E0,-1.631161690E0,-8.271872401E-1
6.260329649E0,-1.569464326E0,-1.422245979E0,-6.565269232E-1
6.276995587E0,-1.468289852E0,-1.608407021E0,-2.258672565E-1
6.293661524E0,-7.483857274E-1,-2.179718256E0,2.474002391E-1
6.310327462E0,-1.363450170E0,-3.158628941E0,7.835868001E-1
6.326993399E0,-3.086623430E0,-2.890841246E0,7.210494876E-1
6.343659337E0,-3.361512423E0,-1.128343582E0,1.624900252E-1
6.360325274E0,-2.560974121E0,-4.535670877E-1,-4.158461988E-1
6.376991212E0,-1.395596981E0,4.591412544E-1,-6.828704476E-1
6.393657149E0,2.825249685E-3,1.486310363E0,-8.265000582E-1
6.410323087E0,-5.268708616E-2,1.892230034E0,-1.007315993E0
6.426989024E0,-3.866010606E-1,2.693379164E0,-9.862411618E-1
6.443654962E0,6.615665555E-1,2.904891014E0,-2.082285285E-1
6.460320899E0,2.662835836E0,2.351218462E0,1.423544049E0
6.476986837E0,4.348822594E0,1.372994900E0,2.587088585E0
6.493652774E0,5.406764030E0,1.064279199E0,2.490037441E0
6.510318712E0,5.523210049E0,2.002338409E0,1.576794744E0
6.526984649E0,3.741317749E0,2.715904713E0,8.831577301E-1
6.543650587E0,2.400698662E0,2.808603525E0,9.857066870E-1
6.560316524E0,2.380081892E0,1.780365348E0,1.822209597E0
6.576982462E0,2.476598501E0,3.000109792E-1,2.682536364E0
6.593648399E0,8.682679534E-1,-1.318933368E0,2.832808971E0
6.610314337E0,-8.976657987E-1,-6.517927051E-1,2.558148861E0
6.626980274E0,-1.140179157E0,1.022205830E0,1.984776020E0
6.643646212E0,-7.654135823E-1,1.846644282E0,1.492724419E0
6.660312149E0,-1.787543058E0,2.236528695E-1,1.056643367E0
6.676978087E0,-3.735590935E0,-3.202993155E0,3.123809695E-1
6.693644024E0,-4.942888737E0,-4.019413948E0,-8.313106298E-1
6.710309962E0,-4.396699429E0,-1.335121274E0,-2.156276226E0
6.726975899E0,-2.228052855E0,3.193295598E-1,-2.723617077E0
6.743641837E0,-3.795761168E-1,-1.815413713E0,-2.323118687E0
6.760307774E0,5.277871490E-1,-3.465741396E0,-2.059530497E0
6.776973712E0,-9.912044406E-1,-3.523697138E0,-2.849225998E0
6.793639649E0,-3.308290958E0,-1.956752658E0,-3.944201231E0
6.810305587E0,-2.751258612E0,1.145371497E-1,-4.205956936E0
6.826971524E0,-7.762564421E-1,3.133736253E-1,-3.483914614E0
6.843637462E0,-1.850920320E-1,-8.476512432E-1,-2.558607101E0
6.860303399E0,-8.686497211E-1,-1.847102404E0,-2.093968153E0
6.876969337E0,-1.496466041E0,-2.080528975E0,-1.873904109E0
6.893635274E0,-1.170951366E0,-1.250745654E0,-1.486157656E0
6.910301212E0,-2.731329203E-1,-4.993819445E-2,-1.136132121E0
6.926967149E0,-3.962985426E-2,4.610501826E-1,-8.009964228E-1
6.943633087E0,-9.904409051E-1,6.154462695E-2,-4.197404683E-1
6.960299024E0,-1.740659237E0,4.201986194E-1,1.458439678E-1
6.976964962E0,-6.791289449E-1,1.597869515E0,7.646499872E-1
6.993630899E0,1.656512618E0,2.610378027E0,1.573664069E0
7.010296837E0,3.693593979E0,2.336863279E0,2.373896837E0
7.026962774E0,4.289110661E0,1.867642760E0,2.676427603E0
7.043628712E0,3.467115879E0,2.252716541E0,2.443230152E0
7.060294649E0,2.541808367E0,2.915810347E0,2.024940491E0
7.076960587E0,2.323958635E0,2.881372690E0,2.103894711E0
7.093626524E0,2.615799427E0,2.013104916E0,2.652985811E0
7.110292462E0,2.775234938E0,1.013806462E0,2.777525902E0
7.126958399E0,1.864893794E0,1.246622324E0,2.492862701E0
7.143624337E0,5.391645432E-1,1.791055560E0,2.274631262E0
7.160290274E0,2.641990185E-1,2.171471596E0,2.431012630E0
7.176956212E0,1.285488605E0,2.465679407E0,2.596175194E0
7.193622149E0,2.380616426E0,2.426431179E0,2.443840981E0
7.210288087E0,1.131856084E0,5.790234804E-1,1.727525592E0
7.226954024E0,-3.041953802E0,-2.021580696E0,-1.830303669E-1
7.243619962E0,-6.608029842E0,-3.072115421E0,-2.130390882E0
7.260285899E0,-5.972577572E0,-2.707658112E-1,-2.732016325E0
7.276951837E0,-2.043724537E0,6.940951347E-1,-2.345033646E0
7.293617774E0,5.562687516E-1,-1.560683131E0,-1.620700598E0
7.310283712E0,6.131555140E-2,-2.727511168E0,-1.822591424E0
7.326949649E0,-2.940092087E0,-3.131140232E0,-2.701091290E0
7.343615587E0,-5.105836868E0,-1.931249022E0,-3.379303932E0
7.360281524E0,-3.506287575E0,-3.507890999E-1,-3.317912102E0
7.376947462E0,-1.656741619E0,-7.898481488E-1,-2.747440815E0
7.393613399E0,-1.136742949E0,-1.341306329E0,-2.345339060E0
7.410279337E0,-1.316260934E0,-8.200859427E-1,-2.210643291E0
7.426945274E0,-1.974009514E0,9.285144508E-2,-2.443917274E0
7.443611212E0,-1.555872560E0,6.281980872E-1,-2.323271513E0
7.460277149E0,-3.947713599E-2,5.658134818E-1,-1.469511628E0
7.476943087E0,6.089558005E-1,6.024653837E-2,-6.369792223E-1
7.493609024E0,-4.549415410E-1,-3.049742281E-1,-1.498909444E-1
7.510274962E0,-8.206968307E-1,5.212203860E-1,2.367864549E-1
7.526940899E0,6.043743491E-1,2.089462996E0,1.173013091E0
7.543606837E0,2.875035048E0,2.499735117E0,2.318995476E0
7.560272774E0,4.396317482E0,2.229427338E0,2.768057346E0
7.576938712E0,4.228405952E0,2.071366072E0,2.579452991E0
7.593604649E0,2.841742992E0,1.850996614E0,2.185750484E0
7.610270587E0,1.289993644E0,2.324722290E0,1.728823662E0
7.626936524E0,5.235111117E-1,2.713308573E0,2.006996155E0
7.643602462E0,9.450841546E-1,1.103679895E0,2.739041328E0
7.660268399E0,1.332143426E0,-4.957931340E-1,3.176420450E0
7.676934337E0,5.597811937E-1,-6.041452885E-1,3.326845884E0
7.693600274E0,-3.427715003E-1,2.202167511E-1,3.297142744E0
7.710266212E0,-8.582650125E-2,9.193515182E-1,3.531103849E0
7.726932149E0,1.589164734E0,1.081154346E0,3.554698467E0
7.743598087E0,3.049742460E0,7.904590368E-1,3.159545422E0
7.760264024E0,2.203007460E0,-6.559923887E-1,2.013410330E0
7.776929962E0,-1.267468095E0,-2.431012630E0,1.520289779E-1
7.793595899E0,-4.163425446E0,-1.622456908E0,-1.596189618E0
7.810261837E0,-3.508730888E0,1.466533661E0,-2.612057686E0
7.826927774E0,4.016435891E-2,1.600083947E0,-2.781419992E0
7.843593712E0,2.260810614E0,-8.423825502E-1,-2.374507666E0
7.860259649E0,1.480812550E0,-2.782565355E0,-2.552574873E0
7.876925587E0,-2.098091364E0,-3.859367371E0,-3.467955828E0
7.893591524E0,-4.450913429E0,-2.316246510E0,-3.896706343E0
7.910257462E0,-2.665661097E0,-3.891972303E-1,-3.358152866E0
7.926923399E0,1.111392140E0,-2.533561587E-1,-2.447124243E0
7.943589337E0,2.293033600E0,-1.604283571E0,-2.024787664E0
7.960255274E0,4.856374860E-1,-2.403523922E0,-1.953163743E0
7.976921212E0,-1.260901213E0,-2.286543131E0,-2.246455193E0
7.993587149E0,-1.375438452E0,-1.225242019E0,-2.384205341E0
8.010253087E0,-1.382081509E-1,6.343067288E-1,-1.882303476E0
8.026919024E0,7.328086495E-1,1.340237379E0,-1.071151376E0
8.043584962E0,-1.303432733E-1,-2.240346521E-1,-1.475238502E-1
8.060250899E0,-1.233870506E0,-1.533728719E0,6.529380679E-1
8.076916837E0,-4.411970973E-1,-8.513928205E-2,1.243720651E0
8.093582774E0,1.874056816E0,2.540433884E0,1.968740821E0
8.110248712E0,3.712988853E0,2.699258804E0,2.812879562E0
8.126914649E0,4.230620384E0,1.231656075E0,3.404349327E0
8.143580587E0,3.844706535E0,7.848848701E-1,3.398698807E0
8.160246524E0,3.139234066E0,1.878790975E0,2.990106821E0
8.176912462E0,2.472169876E0,2.847393513E0,2.607399940E0
8.193578399E0,2.085186958E0,2.056094408E0,2.691852093E0
8.210244337E0,1.829998136E0,3.714057803E-1,2.766148329E0
8.226910274E0,1.142775297E0,4.205803871E-1,2.579681873E0
8.243576212E0,3.746891916E-1,1.807014346E0,2.276082277E0
8.260242149E0,4.254673123E-1,2.436586857E0,2.467511892E0
8.276908087E0,1.565951824E0,2.177351236E0,2.936121464E0
8.293574024E0,2.458654404E0,1.795942426E0,2.859763384E0
8.310239962E0,6.619483232E-1,5.746710300E-1,1.961486816E0
8.326905899E0,-3.173748016E0,-1.110628486E0,2.806923687E-1
8.343571837E0,-4.968621254E0,-1.523802161E0,-1.385823131E0
8.360237774E0,-3.500102520E0,-9.572250843E-1,-2.273257017E0
8.376903712E0,-1.003727198E0,-9.655481577E-1,-2.289597511E0
8.393569649E0,-3.255909383E-1,-1.790062904E0,-2.155894518E0
8.410235587E0,-2.193768024E0,-3.211545229E0,-2.833954334E0
8.426901524E0,-6.291907310E0,-3.984060049E0,-4.233903885E0
8.443567462E0,-7.831362724E0,-2.544939041E0,-4.937543869E0
8.460233399E0,-4.795670509E0,-1.371696830E0,-4.078056812E0
8.476899337E0,-1.717751741E0,-2.200793028E0,-2.700022221E0
8.493565274E0,-1.217224479E0,-3.309512615E0,-1.857028961E0
8.510231212E0,-2.337321281E0,-2.694142818E0,-1.766162753E0
8.526897149E0,-3.277442217E0,-1.374140263E0,-2.271042585E0
8.543563087E0,-3.032714605E0,3.067304790E-1,-2.816315651E0
8.560229024E0,-1.496084213E0,9.392809272E-1,-2.694829941E0
8.576894962E0,-8.109993339E-1,-8.109229803E-2,-2.003865480E0
8.593560899E0,-1.821675181E0,-1.697745919E0,-1.462333918E0
8.610226837E0,-2.218660831E0,-2.043037176E0,-1.433241487E0
8.626892774E0,-1.001131058E0,-1.456148922E-1,-1.062675595E0
8.643558712E0,1.024191141E0,1.825111270E0,3.239110410E-1
8.660224649E0,2.955745697E0,3.520871997E-1,1.687590361E0
8.676890587E0,3.863261700E0,-1.048243999E0,2.639317751E0
8.693556524E0,4.229093075E0,3.796524704E-1,2.941695690E0
8.710222462E0,4.058509350E0,1.861228585E0,2.886488914E0
8.726888399E0,2.893131971E0,8.299361467E-1,3.024162531E0
8.743554337E0,1.562057614E0,-8.794925809E-1,3.007821798E0
8.760220274E0,1.863672137E0,3.610974550E-1,3.465588570E0
8.776886212E0,3.552636862E0,1.206686974E0,3.914497852E0
8.793552149E0,4.065075874E0,7.081450224E-1,3.814850569E0
8.810218087E0,3.299051523E0,3.719402850E-1,3.385107279E0
8.826884024E0,3.171762705E0,1.370704174E0,2.430783749E0
8.843549962E0,2.759886980E0,2.400316715E0,1.391549945E0
8.860215899E0,1.329318166E0,2.552727461E0,6.263654828E-1
8.876881837E0,-7.162389904E-2,9.183588624E-1,-1.112537459E-1
8.893547774E0,-6.772199869E-1,-2.125045806E-1,-7.296779752E-1
8.910213712E0,-4.711294472E-1,-7.620538026E-2,-1.267238975E0
8.926879649E0,-3.810269013E-2,4.214967042E-2,-1.684001446E0
8.943545587E0,1.512653977E-1,-1.017242551E0,-1.994549870E0
8.960211524E0,1.291215420E-1,-1.858861566E0,-2.468351841E0
8.976877462E0,-1.243262529E0,-1.435608625E0,-3.354869366E0
8.993543399E0,-4.118526936E0,-1.191491723E0,-3.832794666E0
9.010209337E0,-4.335918427E0,-1.269376993E0,-3.345401049E0
9.026875274E0,-1.433699608E0,-1.147814870E0,-2.455142021E0
9.043541212E0,1.328172803E0,-6.653081179E-1,-1.834045172E0
9.060207149E0,1.446985960E0,-5.963567272E-2,-1.905592680E0
9.076873087E0,-4.072177410E-1,-6.071232557E-1,-2.193233728E0
9.093539024E0,-1.560301304E0,-1.493564367E0,-2.384663343E0
9.110204962E0,-1.377194643E0,-8.561269641E-1,-2.533256292E0
9.126870899E0,-1.084972262E0,4.125627875E-1,-2.349385977E0
9.143536837E0,-1.154229045E0,7.259364128E-1,-1.900705814E0
9.160202774E0,-1.385441303E0,7.315105945E-2,-1.209206820E0
9.176868712E0,-1.354821682E0,-1.055727005E0,-2.810741663E-1
9.193534649E0,-4.934260249E-1,-1.008385062E0,1.043738842E0
9.210200587E0,1.098793030E0,2.350302190E-1,2.344346285E0
9.226866524E0,2.214384794E0,6.378955245E-1,3.273242474E0
9.243532462E0,2.433990717E0,1.022663951E0,3.960389137E0
9.260198399E0,2.682001829E0,7.387645841E-1,4.256582260E0
9.276864337E0,1.936823130E0,-2.246455193E0,3.941986799E0
9.293530274E0,-3.019199073E-1,-3.325471401E0,2.121991634E0
9.310196212E0,-2.548833370E0,3.577376902E-1,-1.901316643E-2
9.326862149E0,-2.045862436E0,3.495597363E0,-5.263363719E-1
9.343528087E0,3.393353820E-1,2.545931578E0,4.445568323E-1
9.360194024E0,2.451476812E0,6.104066372E-1,1.278540015E0
9.376859962E0,3.543168545E0,-2.565632015E-2,1.212108493E0
9.393525899E0,2.901302338E0,3.269653618E-1,4.815141559E-1
9.410191837E0,1.434005022E0,4.973966479E-1,-4.764745235E-1
9.426857774E0,9.815833569E-1,-2.350302190E-1,-1.064050078E0
9.443523712E0,9.823469520E-1,-4.094321132E-1,-1.292360783E0
9.460189649E0,-9.179006815E-1,-4.892263412E-1,-9.366847873E-1
9.476855587E0,-2.604803801E0,-5.612320304E-1,-6.169734150E-2
9.493521524E0,-1.871231556E0,-5.936841965E-1,7.712168097E-1
9.510187462E0,6.100248694E-1,5.549706817E-1,1.339550138E0
9.526853399E0,1.831448913E0,1.087415695E0,1.428430915E0
9.543519337E0,1.285412192E0,7.579304576E-1,1.554116368E0
9.560185274E0,8.762855530E-1,2.377027571E-1,1.440724611E0
9.576851212E0,1.099785686E0,6.879864335E-1,1.036408424E0
9.593517149E0,1.223867536E0,1.670562506E0,8.826232553E-1
9.610183087E0,1.085353971E0,1.445687890E0,1.001131058E0
9.626849024E0,7.406735420E-1,-5.680279136E-1,1.416213632E0
9.643514962E0,2.847393453E-1,-2.897255182E0,1.426216602E0
9.660180899E0,-1.009454012E0,-2.192240953E0,4.513527155E-1
9.676846837E0,-2.697120667E0,9.256892204E-1,-3.219257295E-1
9.693512774E0,-1.739437461E0,2.886946917E0,1.162170246E-1
9.710178712E0,1.527085543E0,1.537928462E0,1.376660109E0
9.726844649E0,4.092793941E0,-4.569268525E-1,2.378554821E0
9.743510587E0,4.210309029E0,-1.090622663E0,1.978132844E0
9.760176524E0,1.246622324E0,-2.500727773E-1,5.658898354E-1
9.776842462E0,-2.160170555E0,3.262017965E-1,-4.999928176E-1
9.793508399E0,-2.988044977E0,-1.046564102E0,-4.092030525E-1
9.810174337E0,-1.167744398E0,-1.744935274E0,1.444695145E-1
9.826840274E0,9.595158696E-1,1.957821548E-1,5.681806207E-1
9.843506212E0,1.654527307E0,1.809381485E0,1.061377525E0
9.860172149E0,1.863977551E0,1.880699992E0,1.640095592E0
9.876838087E0,2.033110619E0,9.955568910E-1,2.175289392E0
9.893504024E0,2.077322006E0,4.862483740E-1,2.706589222E0
9.910169962E0,2.427729368E0,-3.069595397E-1,2.831816435E0
9.926835899E0,2.411770582E0,-1.852676511E0,2.443840981E0
9.943501837E0,-4.069886729E-2,-3.488266945E0,1.469893336E0
9.960167774E0,-2.381990910E0,-1.800676703E0,2.703076601E-1
9.976833712E0,-1.864359260E0,2.121609688E0,-1.679878086E-1
9.993499649E0,1.275180280E-1,3.024315119E0,3.781253099E-1
1.001016559E1,1.554039955E0,1.055727005E0,1.351767421E0
1.002683152E1,2.099389553E0,-6.734783947E-2,2.044946194E0
1.004349746E1,1.700876594E0,4.667007029E-1,2.227823734E0
1.006016340E1,8.239038587E-1,1.064660907E0,2.254625559E0
1.007682934E1,4.767036140E-1,9.998329282E-1,2.469650030E0
1.009349527E1,5.507709384E-1,6.650790572E-2,2.677267551E0
1.011016121E1,5.467239618E-1,-2.552651167E-1,2.880074739E0
1.012682715E1,5.335903764E-1,4.352411628E-1,3.150305986E0
1.014349309E1,4.921279252E-1,1.560835838E0,3.462763309E0
1.016015902E1,6.268236041E-1,1.802585602E0,4.117152214E0
1.017682496E1,1.658879638E0,1.004948974E0,5.279857159E0
1.019349090E1,3.114570379E0,4.587594569E-1,6.091161728E0
1.021015684E1,3.372508049E0,5.926151872E-1,6.233035088E0
1.022682277E1,1.559537768E0,-1.807396114E-1,5.917829037E0
1.024348871E1,-9.246202111E-1,-1.447749496E0,5.071704865E0
1.026015465E1,-2.392070055E0,-1.425147533E0,3.871813774E0
1.027682059E1,-2.572580576E0,-1.490510106E-1,2.664439440E0
1.029348652E1,-2.265239239E0,7.414371371E-1,1.461723089E0
1.031015246E1,-2.534859657E0,8.830050230E-1,4.038579762E-1
1.032681840E1,-2.388252258E0,6.669879556E-1,-8.345939964E-2
1.034348434E1,-1.158275962E0,-9.506583214E-2,1.123991162E-1
1.036015027E1,3.629300296E-1,-8.358920813E-1,5.575668216E-1
1.037681621E1,1.228678107E0,-1.510668635E0,7.483093739E-1
1.039348215E1,1.411632180E0,-1.864282966E0,9.585995674E-1
1.041014809E1,1.611843109E0,-2.195829868E0,1.162475705E0
1.042681402E1,2.378096581E0,-2.358243465E0,1.209435940E0
1.044347996E1,2.852204084E0,-2.336023331E0,1.236619353E0
1.046014590E1,2.374278784E0,-2.912297726E0,1.375362039E0
1.047681184E1,1.449811220E0,-3.830198526E0,1.671173334E0
1.049347777E1,1.284343243E0,-4.116312504E0,2.063424826E0
1.051014371E1,2.592281103E0,-2.746677160E0,2.780122042E0
1.052680965E1,4.310032845E0,-6.166679859E-1,3.350440502E0
1.054347559E1,4.843088627E0,8.391754627E-1,3.172297239E0
1.056014152E1,4.059425354E0,1.597411394E0,2.698418856E0
1.057680746E1,3.022100687E0,2.200716734E0,2.493244648E0
1.059347340E1,3.034089088E0,2.600374937E0,2.729191065E0
1.061013934E1,4.224587917E0,3.029278517E0,3.217119455E0
1.062680527E1,5.073995590E0,2.340451956E0,3.263697863E0
1.064347121E1,4.630889416E0,1.767613649E0,2.883969069E0
1.066013715E1,3.960618258E0,2.114890337E0,2.358319759E0
1.067680309E1,4.162585258E0,2.383212566E0,2.535088778E0
1.069346902E1,5.459985733E0,2.000963926E0,3.188637733E0
1.071013496E1,6.853063107E0,1.008079648E0,3.569206476E0
1.072680090E1,6.662320137E0,2.535852492E-1,3.361359835E0
1.074346684E1,5.177384377E0,1.204090834E0,2.563265085E0
1.076013277E1,3.761934280E0,2.304105520E0,2.331289053E0
1.077679871E1,3.861963511E0,1.938350320E0,2.937419653E0
1.079346465E1,4.314919949E0,7.170025110E-1,3.449858904E0
1.081013059E1,2.889543056E0,7.657953501E-1,2.842277527E0
1.082679652E1,1.966221035E-1,2.325867653E0,1.559461474E0
1.084346246E1,-1.652770996E0,3.832718372E0,6.826413870E-1
1.086012840E1,-2.336328745E0,3.901669741E0,6.120101213E-1
1.087679434E1,-3.588143349E0,2.029139996E0,7.549524903E-1
1.089346027E1,-5.482740402E0,-4.940368831E-1,2.396117151E-1
1.091012621E1,-6.701034069E0,-2.456898212E0,-3.085630834E-1
1.092679215E1,-6.606655121E0,-3.392208576E0,-9.870811105E-1
1.094345809E1,-6.397357941E0,-3.287674189E0,-1.640324593E0
1.096012402E1,-6.173399448E0,-3.245753765E0,-1.927201986E0
1.097678996E1,-5.566886902E0,-3.857000113E0,-1.939113855E0
1.099345590E1,-5.526417255E0,-4.948997498E0,-1.678045511E0
1.101012184E1,-5.429213524E0,-5.444026947E0,-1.698967695E0
1.102678777E1,-5.328802586E0,-4.372035503E0,-9.448550940E-1
1.104345371E1,-4.854618549E0,-3.582569122E0,2.606865466E-1
1.106011965E1,-4.088136196E0,-3.586616278E0,8.533017635E-1
1.107678559E1,-4.339507103E0,-2.776838541E0,4.586831033E-1
1.109345152E1,-4.369439602E0,-1.150029302E0,4.535670951E-2
1.111011746E1,-9.691369534E-1,7.128791809E-1,4.732674956E-1
1.112678340E1,4.418155670E0,6.564505696E-1,1.204854369E0
1.114344934E1,7.397801399E0,5.782598853E-1,1.306410670E0
1.116011527E1,7.730264664E0,1.866802812E0,2.106719911E-1
1.117678121E1,7.318083763E0,3.597840786E0,-9.253838062E-1
1.119344715E1,7.709495544E0,3.684812784E0,-9.978476167E-1
1.121011309E1,8.600059509E0,2.771493435E0,-7.775545120E-1
1.122677902E1,9.166407585E0,2.294637203E0,-7.922916412E-1
1.124344496E1,8.964975357E0,2.973613501E0,-1.321529627E0
1.126011090E1,8.108542442E0,3.846233845E0,-1.352912784E0
1.127677684E1,8.082580566E0,3.498575211E0,-5.394699574E-1
1.129344277E1,8.504077911E0,1.858937860E0,3.526980579E-1
1.131010871E1,7.507909775E0,3.773617148E-1,5.885682106E-1
1.132677465E1,4.501920700E0,9.560033679E-1,5.976548195E-1
1.134344059E1,8.164971471E-1,1.720806122E0,7.854194045E-1
1.136010652E1,-8.604030609E-1,1.735619545E0,1.265711784E0
1.137677246E1,-8.347467184E-1,1.698280454E0,1.388648391E0
1.139343840E1,-1.875431180E0,1.434157729E0,1.066188097E0
1.141010434E1,-4.760850906E0,5.920043588E-1,3.229947388E-1
1.142677027E1,-7.345496178E0,1.701258421E-1,-6.794343591E-1
1.144343621E1,-8.095026970E0,-7.073814273E-1,-1.445993304E0
1.146010215E1,-7.573119640E0,-1.720195174E0,-1.491808176E0
1.147676809E1,-7.110313416E0,-3.294852018E0,-1.143615246E0
1.149343402E1,-7.132457256E0,-4.084852695E0,-1.160719395E0
1.151009996E1,-7.364433289E0,-3.806374788E0,-1.746462345E0
1.152676590E1,-7.356033802E0,-3.643502951E0,-2.064799309E0
1.154343184E1,-6.182944298E0,-3.187950611E0,-1.821522355E0
1.156009777E1,-4.603171349E0,-2.872897148E0,-1.749364018E0
1.157676371E1,-4.222068310E0,-2.032118082E0,-2.076711178E0
1.159342965E1,-5.314981937E0,-1.719737053E0,-3.180849314E0
1.161009559E1,-5.812302113E0,-2.443001032E0,-3.381976604E0
1.162676152E1,-3.361283541E0,-8.920152783E-1,-1.868329883E0
1.164342746E1,1.355814338E0,6.167443395E-1,-8.183297515E-1
1.166009340E1,5.074835300E0,9.844849706E-1,-9.191987514E-1
1.167675934E1,5.235950947E0,1.862526655E0,-1.602680087E0
1.169342527E1,3.917399406E0,3.959396362E0,-2.396728039E0
1.171009121E1,4.750695229E0,5.250841141E0,-3.331885576E0
1.172675715E1,7.819756508E0,5.637136459E0,-3.990626812E0
1.174342309E1,1.152801132E1,5.026500702E0,-4.406473160E0
1.176008902E1,1.358402920E1,3.949317217E0,-4.730078697E0
1.177675496E1,1.319918442E1,2.930776596E0,-4.981984138E0
1.179342090E1,1.149960613E1,2.186972380E0,-4.589961529E0
1.181008684E1,9.803157806E0,1.716224551E0,-3.751931429E0
1.182675277E1,8.276377678E0,-2.873355150E-1,-2.028681993E0
1.184341871E1,7.318999767E0,-1.859166980E0,1.521053314E-1
1.186008465E1,4.909520149E0,-9.081268311E-1,1.741346359E0
1.187675059E1,3.512472380E-3,1.330387115E0,3.294622898E0
1.189341652E1,-3.439550400E0,8.471930623E-1,4.585303783E0
1.191008246E1,-4.975188255E0,5.568795800E-1,6.072301388E0
1.192674840E1,-7.491111279E0,-1.690568328E-1,7.481337547E0
1.194341434E1,-1.047457504E1,-1.744782567E0,8.455437660E0
1.196008027E1,-1.121608829E1,-2.775693178E0,9.135406494E0
1.197674621E1,-1.036225224E1,-2.619846344E0,9.884937286E0
1.199341215E1,-1.045021629E1,-2.581285477E0,1.023129749E1
1.201007809E1,-1.065730000E1,-2.857549191E0,9.100129128E0
1.202674402E1,-9.718706131E0,-3.289812326E0,7.307699203E0
1.204340996E1,-8.607848167E0,-3.145724535E0,6.071156025E0
1.206007590E1,-7.020210743E0,-2.406883478E0,4.905396938E0
1.207674184E1,-4.953960419E0,-4.184423760E-2,2.612286806E0
1.209340777E1,-4.793837547E0,2.354501963E0,5.661953092E-1
1.211007371E1,-5.272908211E0,2.406120062E0,-5.589412898E-2
1.212673965E1,-3.912894249E0,4.793761373E-1,-3.941605091E-1
1.214340559E1,-8.502474427E-1,5.019017458E-1,-8.862884641E-1
1.216007152E1,1.812359452E0,1.635514140E0,-1.653152823E0
1.217673746E1,2.716821194E0,2.105498075E0,-2.752862215E0
1.219340340E1,2.313650370E0,3.002705812E0,-3.487197876E0
1.221006934E1,2.233550787E0,4.101269722E0,-3.808741808E0
1.222673527E1,3.593564749E0,5.422646523E0,-3.600284338E0
1.224340121E1,6.182944298E0,5.892554283E0,-3.470628262E0
1.226006715E1,8.751248360E0,5.680126190E0,-3.610592604E0
1.227673309E1,1.044769669E1,6.231660843E0,-3.901364326E0
1.229339902E1,1.143920612E1,6.606731892E0,-4.491841316E0
1.231006496E1,1.185772514E1,6.092230797E0,-4.373944759E0
1.232673090E1,1.238551235E1,4.334161758E0,-3.967948437E0
1.234339684E1,1.211696148E1,2.598542452E0,-3.260261774E0
1.236006277E1,1.026329231E1,8.293253183E-1,-2.382983446E0
1.237672871E1,8.207732201E0,-1.125671029E0,-1.295491457E0
1.239339465E1,7.631457329E0,-2.625038624E0,1.157588735E-1
1.241006059E1,7.143605232E0,-2.273027897E0,1.380096197E0
1.242672652E1,4.900357246E0,-1.073060393E0,2.325867653E0
1.244339246E1,1.451949239E0,1.285106838E-1,3.704742193E0
1.246005840E1,-2.173762321E0,6.043743491E-1,5.769770622E0
1.247672434E1,-6.646056175E0,-7.399099469E-1,8.519196510E0
1.249339027E1,-8.943671227E0,-2.030972719E0,1.030933571E1
1.251005621E1,-8.098310471E0,-1.047174931E0,1.060720921E1
1.252672215E1,-8.044631004E0,4.282925725E-1,1.102397156E1
1.254338809E1,-9.718706131E0,1.802051067E0,1.138392353E1
1.256005402E1,-1.102336025E1,1.272889525E-1,1.092615604E1
1.257671996E1,-1.095746326E1,-2.255083799E0,1.105466747E1
1.259338590E1,-9.177556038E0,-1.634826899E0,9.850118637E0
1.261005184E1,-7.671850681E0,1.839084744E0,6.166298389E0
1.262671777E1,-6.347496033E0,3.922668219E0,2.212323189E0
1.264338371E1,-5.058647633E0,3.512930632E0,-1.578321904E-1
1.266004965E1,-4.744204998E0,3.069900990E0,-7.644209266E-1
1.267671559E1,-4.204123974E0,1.914679289E0,-1.252043724E0
1.269338152E1,-2.572198868E0,1.112384796E0,-1.835954070E0
1.271004746E1,-1.266628146E0,7.168498039E-1,-2.358167171E0
1.272671340E1,-1.858632445E0,1.731114388E0,-2.864344835E0
1.274337934E1,-2.431318283E0,3.441688538E0,-3.203222275E0
1.276004527E1,-1.217148080E-1,4.261774540E0,-2.995604515E0
1.277671121E1,3.905334949E0,4.822853565E0,-3.066694021E0
1.279337715E1,6.623377800E0,5.647750378E0,-3.334023714E0
1.281004309E1,8.005229950E0,6.503648281E0,-3.609981775E0
1.282670902E1,8.983224869E0,6.313364029E0,-3.822028160E0
1.284337496E1,1.017296028E1,5.039329052E0,-3.586997986E0
1.286004090E1,1.141080093E1,3.410992622E0,-3.656102180E0
1.287670684E1,1.212963676E1,3.397782564E0,-4.684034824E0
1.289337277E1,1.193797779E1,4.244288445E0,-5.216861725E0
1.291003871E1,1.158352375E1,3.505294800E0,-4.771312237E0
1.292670465E1,1.146051025E1,9.906699657E-1,-3.683209181E0
1.294337059E1,1.138231945E1,-1.746691465E0,-2.627787590E0
1.296003652E1,1.175716209E1,-2.680780172E0,-1.891924620E0
1.297670246E1,9.735657692E0,-1.201647401E0,-1.714468360E0
1.299336840E1,3.676795006E0,2.295248032E0,-3.685805500E-1
1.301003434E1,-2.233856201E0,2.679023743E0,2.848080635E0
1.302670027E1,-5.763738155E0,-2.020511627E0,7.241038322E0
1.304336621E1,-5.043757915E0,-4.400898933E0,9.614553452E0
1.306003215E1,-3.744677544E0,-2.244240761E0,9.340428352E0
1.307669809E1,-5.467316151E0,-2.535088919E-2,9.109979630E0
1.309336402E1,-7.815021992E0,2.111530542E0,9.081573486E0
1.311002996E1,-9.583781242E0,2.685667038E0,8.455361366E0
1.312669590E1,-1.099716949E1,4.998401105E-1,7.704608440E0
1.314336184E1,-1.011828804E1,-1.215697289E0,7.940249443E0
1.316002777E1,-7.854117393E0,8.310815096E-1,6.818625450E0
1.317669371E1,-5.798786640E0,2.525925875E0,3.659919977E0
1.319335965E1,-3.865857840E0,1.671784163E0,8.959095478E-1
1.321002559E1,-3.076391459E0,7.187587619E-1,1.530979872E-1
1.322669152E1,-3.014159441E0,9.414953738E-2,-1.092684343E-1
1.324335746E1,-2.546084404E0,4.076758921E-1,-5.920807123E-1
1.326002340E1,-1.494251609E0,-2.152534723E-1,-1.204548955E0
1.327668934E1,-1.255174398E0,-6.527853608E-1,-1.434463263E0
1.329335527E1,-1.582292438E0,4.688387364E-2,-1.473482251E0
1.331002121E1,-9.271399975E-1,6.519454122E-1,-1.482263446E0
1.332668715E1,1.485165000E0,6.343830824E-1,-2.117944479E0
1.334335309E1,4.178925991E0,9.102649093E-1,-3.481318474E0
1.336001902E1,5.127751827E0,1.910555959E0,-4.623177528E0
1.337668496E1,5.183416843E0,2.688950300E0,-5.201666355E0
1.339335090E1,5.866974354E0,2.335030556E0,-5.324450016E0
1.341001684E1,6.857110023E0,1.665064692E0,-6.014421940E0
1.342668277E1,7.182471752E0,1.944688082E0,-6.917280197E0
1.344334871E1,7.044416428E0,2.501720428E0,-6.893837929E0
1.346001465E1,7.075264931E0,9.572250843E-1,-6.046339512E0
1.347668059E1,6.061382294E0,-8.381828070E-1,-5.306735039E0
1.349334652E1,3.886016369E0,1.569922417E-1,-4.671359539E0
1.351001246E1,2.690095663E0,1.522962213E0,-3.568824768E0
1.352667840E1,3.782703876E0,4.253146052E-2,-1.415679097E0
1.354334434E1,4.476493359E0,-8.487202525E-1,7.160862088E-1
1.356001027E1,2.069609880E0,8.834631741E-2,2.286466837E0
1.357667621E1,-2.153222084E0,1.208290577E0,3.458105564E0
1.359334215E1,-4.442132473E0,1.058323264E0,4.549797058E0
1.361000809E1,-5.345983028E0,-3.062723279E-1,5.609724045E0
1.362667402E1,-5.335216522E0,-1.767460823E0,6.317410946E0
1.364333996E1,-5.494347095E0,-1.534645081E0,5.756789684E0
1.366000590E1,-5.831315041E0,-8.063415438E-2,4.145786762E0
1.367667184E1,-6.751430035E0,-2.902371287E-1,3.391292095E0
1.369333777E1,-6.064512730E0,-4.111120105E-1,2.943528414E0
1.371000371E1,-1.275409341E0,-1.607337892E-1,4.676169753E-1
1.372666965E1,2.699335098E0,9.873101711E-1,-2.656269073E0
1.374333559E1,3.234147310E0,1.677969217E0,-4.617603302E0
1.376000152E1,3.191310406E0,7.586940527E-1,-5.628508091E0
1.377666746E1,3.681529284E0,4.292088747E-1,-6.417057991E0
1.379333340E1,3.988336086E0,1.121624112E0,-6.848786831E0
1.380999934E1,3.712607145E0,1.982256174E0,-6.691030979E0
1.382666527E1,3.314628601E0,2.321209908E0,-5.521072388E0
1.384333121E1,2.776914835E0,1.601763844E0,-3.112661600E0
1.385999715E1,8.786526322E-1,7.470875978E-1,-1.756999791E-1
1.387666309E1,-2.426431179E0,-1.295186043E0,4.061639786E0
1.389332902E1,-5.141725063E0,-3.005989313E0,6.792052746E0
1.390999496E1,-5.471515656E0,-1.021213174E0,6.403924465E0
1.392666090E1,-3.751778841E0,-2.524398565E-1,6.392088890E0
1.394332684E1,-1.072144032E0,-1.618180752E0,6.864287376E0
1.395999277E1,1.731725335E0,-2.924896955E0,5.278406143E0
1.397665871E1,2.393749952E0,-2.175976753E0,2.506149054E0
1.399332465E1,5.211440325E-1,-6.395754218E-1,-2.923751473E-1
1.400999059E1,-9.192751646E-1,-5.611556768E-1,-2.892292023E0
1.402665652E1,-1.120249629E0,-8.352812529E-1,-4.284223557E0
1.404332246E1,-1.371315122E0,-4.401280880E-1,-4.653720379E0
1.405998840E1,-1.101923704E0,9.291253090E-1,-5.555204391E0
1.407665434E1,5.497782957E-3,1.807930708E0,-6.052219391E0
1.409332027E1,4.743365049E-1,1.952400208E0,-5.394241333E0
1.410998621E1,3.535379842E-2,2.115577459E0,-4.267348766E0
1.412665215E1,-4.491383433E-1,1.771660566E0,-3.291950226E0
1.414331809E1,-9.552397728E-1,9.453132749E-1,-2.313650370E0
1.415998402E1,-1.493564367E0,1.686750352E-1,-1.223943949E0
1.417664996E1,-1.701640248E0,-5.279398561E-1,-3.720930219E-1
1.419331590E1,-1.686368585E0,-1.161941171E0,3.146717250E-1
1.420998184E1,-1.829310894E0,-1.886503100E0,1.005177975E0
1.422664777E1,-2.448498726E0,-2.583729029E0,1.881234407E0
1.424331371E1,-3.310352564E0,-3.636630774E0,3.151756763E0
1.425997965E1,-4.273075581E0,-3.921140909E0,3.893270254E0
1.427664559E1,-5.631791592E0,-2.566930056E0,4.031630993E0
1.429331152E1,-6.091848850E0,-1.736764908E0,3.834016323E0
1.430997746E1,-4.258720398E0,-2.239964724E0,3.718028545E0
1.432664340E1,-1.766697288E0,-2.239201307E0,3.614944935E0
1.434330934E1,-6.004037261E-1,-1.241277218E0,3.329976559E0
1.435997527E1,-4.584540129E-1,-3.116937578E-1,2.833878040E0
1.437664121E1,-8.194751143E-1,5.016727000E-2,1.995237112E0
1.439330715E1,-1.514104724E0,1.773035079E-1,1.102992773E0
1.440997309E1,-2.266766548E0,6.136900187E-1,3.917170465E-1
1.442663902E1,-3.619526625E0,8.629992008E-1,2.012799382E-1
1.444330496E1,-6.305957317E0,1.356348872E0,1.171104193E0
1.445997090E1,-7.896038055E0,2.885801554E0,1.480736256E0
1.447663684E1,-6.990965843E0,3.814621449E0,1.166980863E0
1.449330277E1,-5.483656883E0,3.052491188E0,9.197332859E-1
1.450996871E1,-4.405022144E0,1.898033261E0,1.074282050E0
1.452663465E1,-3.958327532E0,1.442938924E0,1.672929525E0
1.454330059E1,-3.866010427E0,1.769140720E0,1.888030291E0
1.455996652E1,-3.832107544E0,2.227518320E0,1.592600822E0
1.457663246E1,-4.072635651E0,1.740048289E0,1.215010047E0
1.459329840E1,-4.453662395E0,1.390022755E0,1.047022223E0
1.460996434E1,-4.704498768E0,1.767766356E0,8.879683018E-1
1.462663027E1,-4.772915363E0,2.504545689E0,5.780308247E-1
1.464329621E1,-4.857978344E0,3.220173597E0,1.124754772E-1
1.465996215E1,-4.706026077E0,3.202153206E0,-6.904299259E-1
1.467662809E1,-4.257193089E0,2.325485945E0,-1.657047033E0
1.469329402E1,-3.033096313E0,1.806174397E0,-2.690172195E0
1.470995996E1,-1.589928269E0,1.646433353E0,-3.924882650E0
1.472662590E1,-9.416480660E-1,1.318475246E0,-5.285125732E0
1.474329184E1,-1.217835307E0,9.960150123E-1,-6.614978313E0
1.475995777E1,-1.677052855E0,1.379714489E0,-7.479733944E0
1.477662371E1,-1.179121733E0,1.768071771E0,-8.109535217E0
1.479328965E1,6.751583219E-1,1.543502569E0,-8.574480057E0
1.480995559E1,2.816163063E0,3.001636863E-1,-9.002848625E0
1.482662152E1,4.154644012E0,-9.654718041E-1,-9.180228233E0
1.484328746E1,4.249099255E0,-1.740200996E0,-8.671378136E0
1.485995340E1,3.423820734E0,-1.743178964E0,-7.501266956E0
1.487661934E1,3.040503025E0,-1.303967237E0,-6.102844715E0
1.489328527E1,3.267133951E0,-2.335412502E0,-4.538954258E0
1.490995121E1,3.309512615E0,-3.306611061E0,-2.513174057E0
1.492661715E1,2.910770655E0,-1.871002436E0,-8.265764117E-1
1.494328309E1,1.929187298E0,4.756345749E-1,1.156290650E0
1.495994902E1,5.897135735E-1,1.189811826E0,3.592190266E0
1.497661496E1,-1.286175847E0,1.547473192E0,5.688067436E0
1.499328090E1,-3.564701319E0,2.633132696E0,7.797230721E0
1.500994684E1,-5.962574959E0,2.690706730E0,9.755434036E0
1.502661277E1,-7.635275364E0,1.570609689E0,1.072144032E1
1.504327871E1,-7.791045666E0,2.835176289E-1,1.122700787E1
1.505994465E1,-7.639322281E0,8.432988524E-1,1.227128029E1
1.507661059E1,-8.796758652E0,2.582430840E0,1.262596416E1
1.509327652E1,-9.922657967E0,2.766988277E0,1.095440865E1
1.510994246E1,-1.023458099E1,1.349858403E0,9.683733940E0
1.512660840E1,-9.868597031E0,7.818305492E-1,8.896863937E0
1.514327434E1,-8.916716576E0,1.680030823E0,7.441249371E0
1.515994027E1,-7.026319504E0,3.205818415E0,4.413192749E0
1.517660621E1,-3.784307241E0,2.898629665E0,1.599931240E0
1.519327215E1,-2.493473768E0,1.845880628E0,6.058251262E-1
1.520993809E1,-3.974515438E0,2.576856613E0,-7.131083012E-1
1.522660402E1,-4.606989384E0,5.025966167E0,-2.707505465E0
1.524326996E1,-1.364824653E0,6.212571144E0,-3.640295982E0
1.525993590E1,3.920988321E0,5.725330353E0,-3.199786186E0
1.527660184E1,8.560048103E0,3.784383774E0,-3.286757946E0
1.529326777E1,1.025504494E1,3.654574871E0,-4.221762657E0
1.530993371E1,9.811481476E0,4.593779564E0,-5.287187576E0
1.532659965E1,9.221309662E0,5.352626324E0,-5.773206711E0
1.534326559E1,1.039478016E1,4.075842381E0,-5.797335625E0
1.535993152E1,1.276149940E1,1.463479280E0,-6.224330425E0
1.537659746E1,1.369726849E1,3.022253513E-1,-7.880613804E0
1.539326340E1,1.249837017E1,1.039310098E0,-9.283159256E0
1.540992934E1,1.126007080E1,5.367974043E-1,-9.021938324E0
1.542659527E1,9.804761887E0,-2.015090227E0,-7.411469460E0
1.544326121E1,7.975908756E0,-4.700146198E0,-5.174482822E0
1.545992715E1,5.659738541E0,-4.501462460E0,-3.226969481E0
1.547659309E1,3.277976751E0,-1.972940564E0,-1.091768026E0
1.549325902E1,1.606345296E0,1.315650046E-1,2.468428135E0
1.550992496E1,4.667770565E-1,-4.290561378E-1,6.359636784E0
1.552659090E1,-1.072525859E0,-9.595922232E-1,9.095395088E0
1.554325684E1,-3.338986874E0,-3.895026445E-1,1.045922661E1
1.555992277E1,-5.582769394E0,1.129336238E0,1.194087887E1
1.557658871E1,-7.126272202E0,2.445062637E0,1.247485161E1
1.559325465E1,-8.211015701E0,3.573864460E0,1.175907040E1
1.560992059E1,-9.492456436E0,3.604178667E0,1.057849789E1
1.562658652E1,-9.511164665E0,1.108261466E0,9.883105278E0
1.564325246E1,-9.402049065E0,-1.961639524E-1,9.897307396E0
1.565991840E1,-9.705343246E0,2.790888548E-1,8.773087502E0
1.567658434E1,-9.435112000E0,2.367100954E0,6.033893108E0
1.569325027E1,-7.199881554E0,1.950109482E0,2.968115568E0
1.570991621E1,-4.427395344E0,1.033277750E0,1.329165459E0
1.572658215E1,-3.747808218E0,2.264933825E0,8.685733676E-1
1.574324809E1,-3.886092663E0,2.449414968E0,1.111086726E0
1.575991402E1,-2.505309105E0,6.629409790E-1,1.273958445E0
1.577657996E1,6.850848794E-1,1.385135949E-1,7.279980779E-1
1.579324590E1,3.783696413E0,1.526092887E0,-1.507079720E0
1.580991184E1,4.331260204E0,3.654269457E0,-3.996964693E0
1.582657777E1,2.919551849E0,4.706254959E0,-5.093924999E0
1.584324371E1,2.389473915E0,4.852938652E0,-5.519545078E0
1.585990965E1,3.721388340E0,5.099193573E0,-5.543979645E0
1.587657559E1,6.663694859E0,4.754131317E0,-5.816196442E0
1.589324152E1,9.184580803E0,4.392957687E0,-6.521363258E0
1.590990746E1,9.863480568E0,4.202902317E0,-7.055335522E0
1.592657340E1,9.249408722E0,5.145695686E0,-7.747139931E0
1.594323934E1,9.756579399E0,5.298564911E0,-8.272636414E0
1.595990527E1,1.078344345E1,3.350517035E0,-7.970945358E0
1.597657121E1,1.127954197E1,1.201952815E0,-7.214847565E0
1.599323715E1,1.047655964E1,-1.182023361E-1,-5.900648117E0
1.600990309E1,8.701004982E0,-7.657953501E-1,-4.036059856E0
1.602656902E1,7.197667122E0,-1.086346626E0,-1.823584080E0
1.604323496E1,5.022148609E0,-9.795980453E-1,7.169261575E-1
1.605990090E1,2.183612585E0,1.522580534E-1,3.657629251E0
1.607656684E1,-1.154534444E-1,4.373791814E-1,6.381017208E0
1.609323277E1,-2.964221239E0,-2.237292193E-2,9.963739395E0
1.610989871E1,-5.314752579E0,-1.272813082E0,1.253700733E1
1.612656465E1,-6.035038471E0,-1.334357738E0,1.336068153E1
1.614323059E1,-6.315349102E0,2.717584670E-1,1.313595963E1
1.615989652E1,-6.784798622E0,1.176525593E0,1.290932941E1
1.617656246E1,-7.435369968E0,8.069523573E-1,1.266246319E1
1.619322840E1,-8.415426254E0,2.609156072E-1,1.169523525E1
1.620989434E1,-9.615622520E0,4.176788032E-2,1.071869183E1
1.622656027E1,-7.518371105E0,-1.582979679E0,8.167033195E0
1.624322621E1,-3.822562695E0,-1.283656001E0,4.604546070E0
1.625989215E1,-3.539732218E0,1.538615704E0,1.263344765E0
1.627655809E1,-5.104767799E0,3.954509497E0,-5.329031348E-1
1.629322402E1,-5.099269867E0,3.089906693E0,-4.085921645E-1
1.630988996E1,-3.336543322E0,1.066111803E0,2.256381810E-1
1.632655590E1,-1.638033867E0,1.305494428E0,3.733910993E-2
1.634322184E1,3.535379842E-2,2.472856998E0,-1.667660832E0
1.635988777E1,1.216613531E0,3.017519236E0,-3.757276535E0
1.637655371E1,8.762091398E-1,3.962679863E0,-4.582478523E0
1.639321965E1,1.378645420E0,4.899670124E0,-4.908833027E0
1.640988559E1,3.727649689E0,5.419363022E0,-4.738401890E0
1.642655152E1,6.723406792E0,4.295524597E0,-4.814072609E0
1.644321746E1,8.586773872E0,3.288972378E0,-5.432038784E0
1.645988340E1,9.803081512E0,3.487121582E0,-6.311989307E0
1.647654934E1,1.004857254E1,2.301585674E0,-6.629791737E0
1.649321527E1,9.287435532E0,1.780899882E0,-6.586573124E0
1.650988121E1,8.087162018E0,1.883372426E0,-6.142168999E0
1.652654715E1,7.209960461E0,2.276463985E0,-5.237630844E0
1.654321309E1,6.689045906E0,2.188728571E0,-4.044230461E0
1.655987902E1,6.786478519E0,1.365282774E0,-2.492557287E0
1.657654496E1,6.923388481E0,-1.450574756E0,-5.853611827E-1
1.659321090E1,4.721374035E0,-2.705901861E0,9.985348582E-1
1.660987684E1,2.261345148E0,-1.785328627E0,1.887037635E0
1.662654277E1,7.647263408E-1,-1.426598310E0,2.643746376E0
1.664320871E1,-1.094516993E0,-1.357876062E0,4.261545181E0
1.665987465E1,-3.166188478E0,-5.297724605E-1,5.743426800E0
1.667654059E1,-4.538419724E0,-1.304196268E-1,6.025646687E0
1.669320652E1,-5.153408051E0,-1.048396677E-1,5.626751900E0
1.670987246E1,-4.963352680E0,-6.094139814E-1,5.210294724E0
1.672653840E1,-4.509633064E0,-2.278220177E0,5.376373768E0
1.674320434E1,-4.130972862E0,-2.893131971E0,5.092474461E0
1.675987027E1,-5.947608471E0,-1.314199209E0,5.211287498E0
1.677653621E1,-8.170316696E0,8.856012225E-1,5.137219906E0
1.679320215E1,-6.889256477E0,9.866229892E-1,3.735514402E0
1.680986809E1,-3.242317438E0,7.498364896E-2,1.581605315E0
1.682653402E1,-9.640209675E-1,2.549596727E-1,-3.535379842E-2
1.684319996E1,-3.477347791E-1,4.915170670E-1,-4.088212550E-1
1.685986590E1,-1.639408320E-1,2.816086709E-1,-1.676823795E-1
1.687653184E1,1.705839932E-1,-1.204930767E-1,-2.736674249E-1
1.689319777E1,1.665370166E-1,-4.077522457E-1,-5.234347582E-1
1.690986371E1,-3.546833694E-1,-4.629591405E-1,-6.145299673E-1
1.692652965E1,-6.503419280E-1,-1.436295807E-1,-7.679333687E-1
1.694319559E1,-2.974911332E-1,-8.933897130E-3,-8.985057473E-1
1.695986152E1,8.820123672E-1,-2.684750557E-1,-1.486615777E0
1.697652746E1,2.357556343E0,-6.059778333E-1,-2.283565283E0
1.699319340E1,3.515450478E0,-5.668061376E-1,-2.574871302E0
1.700985934E1,4.424417019E0,-5.784889460E-1,-2.808527231E0
1.702652527E1,5.083769321E0,-1.062141180E0,-3.148626089E0
1.704319121E1,4.856986046E0,-1.306257963E0,-3.371438980E0
1.705985715E1,3.534310818E0,-6.276635528E-1,-2.483547211E0
1.707652309E1,2.272187948E0,1.015715361E0,-1.865810156E0
1.709318902E1,2.476522207E0,2.329685450E0,-2.396422625E0
1.710985496E1,3.790339708E0,2.110537767E0,-2.817231894E0
1.712652090E1,4.317133904E0,1.304730773E0,-2.538372278E0
1.714318684E1,4.354014874E0,1.292208076E0,-2.461785078E0
1.715985277E1,3.330663919E0,1.955378175E0,-3.223686218E0
1.717651871E1,8.261182308E-1,1.848858595E0,-3.029813051E0
1.719318465E1,-1.310152292E0,2.908479869E-1,-1.901622057E0
1.720985059E1,-1.995466113E0,-9.356157780E-1,-7.363211513E-1
1.722651652E1,-2.426431179E0,-1.270980477E0,2.255618125E-1
1.724318246E1,-4.117915630E0,-1.190804482E0,1.568242550E0
1.725984840E1,-5.254124165E0,-2.935968935E-1,2.377943754E0
1.727651434E1,-3.011028767E0,-3.592648506E-1,2.222326040E0
1.729318027E1,1.116737127E0,-1.074816585E0,1.789222956E0
1.730984621E1,3.732994556E0,-1.389717340E0,5.136609077E-1
1.732651215E1,3.764988661E0,-1.095127821E0,-3.410152495E-1
1.734317809E1,2.513174057E0,-4.323395491E-1,-1.102381825E0
1.735984402E1,1.534874082E0,2.074649483E-1,-1.664377451E0
1.737650996E1,1.062217474E0,5.756636858E-1,-1.695378780E0
1.739317590E1,1.050916553E0,3.365101218E-1,-1.622762322E0
1.740984184E1,1.264490128E0,4.795288667E-2,-1.431103468E0
1.742650777E1,1.235397696E0,4.447095692E-1,-1.084285021E0
1.744317371E1,8.927788734E-1,8.985821009E-1,-3.397935331E-1
1.745983965E1,6.094139814E-1,9.905172586E-1,5.193877816E-1
1.747650559E1,9.066760540E-1,4.080576599E-1,1.147204041E0
1.749317152E1,1.102076411E0,5.345066893E-4,1.522045970E0
1.750983746E1,1.408806920E0,5.329031348E-1,1.117348075E0
1.752650340E1,2.152534723E0,4.770853817E-1,3.262017965E-1
1.754316934E1,2.527605772E0,-2.744309902E-1,-2.972620726E-1
1.755983527E1,2.330296516E0,-8.502474427E-1,-6.629409790E-1
1.757650121E1,1.578398228E0,-1.347491384E0,-8.025236130E-1
1.759316715E1,3.043633699E-1,-1.758679748E0,-7.895427346E-1
1.760983309E1,-1.261206746E0,-1.670562506E0,-4.521162808E-1
1.762649902E1,-2.301433086E0,-1.232572436E0,-1.063668281E-1
1.764316496E1,-1.579849005E0,-9.404263496E-1,9.537126124E-2
1.765983090E1,4.786125422E-1,-1.355661631E0,8.456659317E-1
1.767649684E1,2.240652084E0,-1.767002702E0,1.685757756E0
1.769316277E1,3.004309416E0,-9.634101391E-1,1.904981852E0
1.770982871E1,2.731329203E0,3.860665262E-1,1.633757830E0
1.772649465E1,2.441779137E0,1.131321549E0,1.172096848E0
1.774316059E1,2.692615509E0,1.332601547E0,7.799215913E-1
1.775982652E1,3.197495222E0,1.320078731E0,3.915643096E-1
1.777649246E1,3.261178017E0,1.314428329E0,1.672242396E-2
1.779315840E1,2.921995401E0,1.281441569E0,-3.139081299E-1
1.780982434E1,2.460181475E0,1.359403253E0,-5.182424188E-1
1.782649027E1,2.255465508E0,1.588248372E0,-4.518872201E-1
1.784315621E1,2.007378101E0,2.031507254E0,-1.941022873E-1
1.785982215E1,1.823278666E0,1.891924620E0,1.130099818E-1
1.787648809E1,2.294178963E0,1.115515471E0,5.358811021E-1
1.789315402E1,3.233765364E0,-8.422297984E-2,9.631046653E-1
1.790981996E1,4.116693974E0,-4.303542376E-1,6.752346754E-1
1.792648590E1,4.986489296E0,-3.641517758E-1,-3.422369957E-1
1.794315184E1,5.514581680E0,1.404988952E-2,-1.448360443E0
1.795981777E1,5.350564480E0,4.788416326E-1,-2.344193697E0
1.797648371E1,4.826977253E0,1.422551423E-1,-2.217897415E0
1.799314965E1,4.406167507E0,-1.142240763E0,-1.300836563E0
1.800981559E1,3.518504858E0,-1.869780779E0,-3.221548200E-1
1.802648152E1,1.528307319E0,-1.752800107E0,8.070287108E-1
1.804314746E1,4.406625926E-1,-1.381470680E0,2.392375469E0
1.805981340E1,8.206968307E-1,-2.260428667E0,3.840506792E0
1.807647934E1,1.052443624E0,-2.406120062E0,5.250077248E0
1.809314527E1,1.006399691E-1,-1.541593671E0,6.168054581E0
1.810981121E1,-1.247614980E0,-1.367802620E0,7.202019215E0
1.812647715E1,-1.571526051E0,-2.115882874E0,8.095790863E0
1.814314309E1,-1.012279272E0,-3.528507710E0,8.536835670E0
1.815980902E1,-8.384118974E-2,-4.034914494E0,8.228806496E0
1.817647496E1,5.729147792E-1,-3.354640245E0,6.677515507E0
1.819314090E1,1.427132785E-1,-2.014555693E0,4.832169533E0
1.820980684E1,-6.890554428E-1,-9.043089747E-1,2.862512350E0
1.822647277E1,-4.231002033E-1,-5.805506110E-1,7.835104465E-1
1.824313871E1,2.590830326E-1,-3.039052188E-1,-3.307832778E-1
1.825980465E1,8.280271888E-1,-2.451094985E-1,-1.939495653E-2
1.827647059E1,1.276860118E0,-3.610974550E-1,4.069886729E-2
1.829313652E1,1.411403060E0,-6.427060962E-1,-7.669407129E-1
1.830980246E1,1.422169566E0,-9.334777594E-1,-2.230801821E0
1.832646840E1,9.970076680E-1,2.792415619E-1,-3.283627272E0
1.834313434E1,9.292016625E-1,1.509294152E0,-3.974362612E0
1.835980027E1,2.333808899E0,1.360395908E0,-4.919293880E0
1.837646621E1,4.656622410E0,5.915461779E-1,-6.319319725E0
1.839313215E1,6.015719891E0,1.209283233E0,-7.557542801E0
1.840979809E1,6.773421288E0,2.420093536E0,-8.130457878E0
1.842646402E1,8.453375816E0,2.179947376E0,-8.536529541E0
1.844312996E1,9.522542000E0,5.803215504E-1,-9.658307076E0
1.845979590E1,8.587231636E0,8.965204358E-1,-1.121318626E1
1.847646184E1,6.546561718E0,3.179703951E0,-1.137140083E1
1.849312777E1,5.807109833E0,3.464977741E0,-1.038890076E1
1.850979371E1,7.253179550E0,1.726303816E0,-8.847230911E0
1.852645965E1,8.201088905E0,7.817541957E-1,-7.345267296E0
1.854312559E1,6.008618832E0,1.518228054E0,-5.184103966E0
1.855979152E1,3.124496937E0,2.416581154E0,-2.436892271E0
1.857645746E1,9.502001405E-1,2.960785151E0,1.476154685E0
1.859312340E1,3.283398226E-3,1.876729369E0,6.579777241E0
1.860978934E1,-6.172025204E-1,1.255021691E0,1.066745567E1
1.862645527E1,-1.793804407E0,1.451185584E0,1.185619831E1
1.864312121E1,-3.704818487E0,2.262872219E0,1.224928951E1
1.865978715E1,-5.730827808E0,3.788583279E0,1.302852440E1
1.867645309E1,-7.853506565E0,4.584921837E0,1.325553703E1
1.869311902E1,-8.947565079E0,2.906494617E0,1.215437698E1
1.870978496E1,-7.999426842E0,-2.489273995E-2,1.076786613E1
1.872645090E1,-6.648652077E0,-1.178052783E0,8.873803139E0
1.874311684E1,-7.142230988E0,3.941605091E-1,6.709204197E0
1.875978277E1,-7.688878536E0,2.479729176E0,3.904724121E0
1.877644871E1,-6.076195717E0,1.247920394E0,1.498298645E0
1.879311465E1,-2.131994486E0,-1.171027780E0,1.220889568E0
1.880978059E1,-1.748600453E-1,-2.012723207E0,1.822133303E0
1.882644652E1,-2.402912855E0,-9.537126124E-2,7.312051654E-1
1.884311246E1,-2.159025192E0,1.402240157E0,-1.880928993E0
1.885977840E1,1.875507593E0,6.879864335E-1,-3.481241941E0
1.887644434E1,6.227842808E0,1.101770997E0,-4.363789082E0
1.889311027E1,7.713160515E0,2.428034782E0,-5.786874771E0
1.890977621E1,7.048081398E0,3.079445601E0,-7.206219196E0
1.892644215E1,7.543034554E0,2.899317026E0,-7.943380356E0
1.894310809E1,9.097303391E0,2.411617756E0,-8.304859161E0
1.895977402E1,9.575228691E0,3.213377714E0,-9.450994492E0
1.897643996E1,9.486805916E0,4.138761520E0,-1.025809956E1
1.899310590E1,1.057032776E1,3.428783894E0,-1.061965466E1
1.900977184E1,1.140904522E1,1.316871762E0,-1.068539906E1
1.902643777E1,1.059827518E1,-4.717403352E-1,-1.031376457E1
1.904310371E1,8.976886749E0,-1.884212375E0,-9.180151939E0
1.905976965E1,7.312967777E0,-3.020115376E0,-7.073813915E0
1.907643559E1,5.307116985E0,-2.776914835E0,-4.220694065E0
1.909310152E1,3.124115229E0,-1.304578066E0,-5.986474752E-1
1.910976746E1,9.482148290E-1,7.864884138E-1,3.496819019E0
1.912643340E1,-7.434988022E-1,5.658134818E-1,7.892525673E0
1.914309934E1,-1.755930781E0,-8.031344414E-1,1.096990967E1
1.915976527E1,-3.394804716E0,8.413135409E-1,1.296529961E1
1.917643121E1,-5.872548580E0,2.710483313E0,1.420520210E1
1.919309715E1,-8.563713074E0,4.766730785E0,1.431683826E1
1.920976309E1,-1.075183105E1,5.581089497E0,1.318612671E1
1.922642902E1,-1.219270802E1,4.113945007E0,1.182366943E1
1.924309496E1,-1.123716259E1,1.132237911E0,1.112361813E1
1.925976090E1,-7.153760910E0,-2.977431297E0,9.584010124E0
1.927642684E1,-3.601964235E0,-2.760192394E0,7.019599915E0
1.929309277E1,-4.557662010E0,1.648265839E0,4.486954689E0
1.930975871E1,-5.258553028E0,3.255298376E0,1.999513149E0
1.932642465E1,-3.650985956E0,1.918573499E0,1.160413980E0
1.934309059E1,-2.245080709E0,2.901607659E-3,9.605085254E-1
1.935975652E1,-2.574565887E0,8.933897316E-2,3.796524704E-1
1.937642246E1,-3.600284338E0,2.813872337E0,-1.121547699E0
1.939308840E1,-2.393520832E0,4.546742916E0,-2.887405157E0
1.940975434E1,1.292742610E0,3.786292553E0,-4.074468136E0
1.942642027E1,4.218173981E0,3.071657181E0,-4.582478523E0
1.944308621E1,5.328726292E0,3.184209108E0,-4.849808216E0
1.945975215E1,5.792448997E0,4.056218624E0,-5.012985229E0
1.947641809E1,7.456749916E0,4.958771229E0,-4.861491203E0
1.949308402E1,1.053237820E1,4.216188908E0,-5.334529400E0
1.950974996E1,1.280807781E1,2.315406561E0,-6.398350239E0
1.952641590E1,1.233397102E1,3.136408806E0,-7.524021626E0
1.954308184E1,1.111483765E1,3.986350775E0,-8.606855392E0
1.955974777E1,1.051618958E1,2.848691463E0,-8.740711212E0
1.957641371E1,1.033346462E1,8.922443390E-1,-7.921465397E0
1.959307965E1,1.002100754E1,-5.416843295E-1,-6.324741364E0
1.960974559E1,9.344169617E0,-2.454225540E0,-4.829802513E0
1.962641152E1,7.767145634E0,-2.930471182E0,-3.626856804E0
1.964307746E1,4.754665852E0,-1.498985767E0,-1.692400813E0
1.965974340E1,1.448665857E0,2.069304436E-1,2.037921190E0
1.967640934E1,2.176205814E-2,-3.649153411E-1,6.169734478E0
1.969307527E1,1.462257504E-1,-9.992220402E-1,8.891518593E0
1.970974121E1,-9.711986184E-1,-8.104648590E-1,1.056498241E1
1.972640715E1,-3.517817497E0,7.618247271E-1,1.204228306E1
1.974307309E1,-5.442270756E0,2.741637468E0,1.277333546E1
1.975973902E1,-6.072912216E0,3.255680084E0,1.215307808E1
1.977640496E1,-4.780627728E0,8.578068614E-1,1.076656818E1
1.979307090E1,-3.798891783E0,-1.154458046E0,1.037065125E1
1.980973684E1,-5.271610260E0,1.142698884E0,9.474818230E0
1.982640277E1,-8.366633415E0,4.454425812E0,6.262738228E0
1.984306871E1,-8.610597610E0,4.758712769E0,2.874958754E0
1.985973465E1,-5.542681694E0,2.763552189E0,3.481929302E-1
1.987640059E1,-3.746968269E0,2.185674191E0,-1.417740822E0
1.989306652E1,-4.105774879E0,2.754083872E0,-2.171166182E0
1.990973246E1,-4.248946190E0,1.855349064E0,-2.378096581E0
1.992639840E1,-3.111210585E0,-5.343539715E-1,-2.399171352E0
1.994306434E1,-1.162857413E0,-8.432224989E-1,-2.057545185E0
1.995973027E1,3.870591819E-1,3.540725112E-1,-2.219042778E0
1.997639621E1,9.479094148E-1,8.450550437E-1,-2.794782639E0
1.999306215E1,1.262886524E0,2.699258626E-1,-3.016373873E0
2.000972809E1,1.717217207E0,2.802342176E-2,-2.656116486E0
2.002639402E1,2.362214088E0,8.815542459E-1,-2.847928047E0
2.004305996E1,2.962923288E0,1.579849005E0,-4.158156395E0
2.005972590E1,3.656254768E0,1.784946918E0,-5.787943840E0
2.007639184E1,4.397921085E0,2.270126343E0,-6.714549065E0
2.009305777E1,5.031464100E0,2.167577267E0,-6.648117542E0
2.010972371E1,5.584220409E0,1.610774040E0,-6.589092731E0
2.012638965E1,5.462658405E0,1.263802886E0,-5.763814449E0
2.014305559E1,4.420599461E0,5.458840132E-1,-4.420599461E0
2.015972152E1,3.376631498E0,8.576541543E-1,-3.253083944E0
2.017638746E1,3.034547091E0,1.375285745E0,-2.010355949E0
2.019305340E1,3.527591467E0,7.732021213E-1,-7.843503952E-1
2.020971934E1,4.149146080E0,-5.343539715E-1,2.848920524E-1
2.022638527E1,4.534067631E0,-1.702785611E0,7.860302329E-1
2.024305121E1,3.970544815E0,-1.848935008E0,7.030289769E-1
2.025971715E1,1.906585336E0,-1.297934890E0,1.120555043E0
2.027638309E1,-1.099861979E0,-7.848085165E-1,2.698571444E0
2.029304902E1,-3.098382473E0,-8.016073108E-1,4.184347153E0
2.030971496E1,-3.680383921E0,-5.711585879E-1,4.423195362E0
2.032638090E1,-3.656713009E0,-9.392045736E-1,3.724366188E0
2.034304684E1,-3.718333960E0,-1.588095665E0,3.417559385E0
2.035971277E1,-4.317133904E0,-1.014417291E0,3.574017048E0
2.037637871E1,-5.333460331E0,2.830594778E-1,2.964526892E0
2.039304465E1,-6.088871002E0,7.576250434E-1,1.632994294E0
2.040971059E1,-6.584740639E0,2.351829410E-2,1.173242211E0
2.042637652E1,-6.872228622E0,6.699659228E-1,1.380783439E0
2.044304246E1,-5.364385605E0,2.044793606E0,7.913753390E-1
2.045970840E1,-2.008065224E0,1.691026449E0,-4.177551568E-1
2.047637434E1,8.052725196E-1,7.755692005E-1,-1.915977359E0
2.049304027E1,2.172006130E0,2.517526448E-1,-2.499429703E0
2.050970621E1,2.102443933E0,-2.306014486E-2,-2.212552309E0
2.052637215E1,1.347720385E0,2.851211429E-1,-2.088928461E0
2.054303809E1,4.066832364E-1,1.305799842E0,-2.344117165E0
2.055970402E1,-5.610029697E-1,2.497596979E0,-2.333274364E0
2.057636996E1,-8.784235716E-1,2.578994751E0,-1.761886716E0
2.059303590E1,-7.483093441E-2,1.839542866E0,-1.086575747E0
2.060970184E1,1.188971877E0,1.081383348E0,-5.000692010E-1
2.062636777E1,2.258214474E0,5.698604584E-1,-2.013563067E-1
2.064303371E1,2.980103731E0,-3.339139521E-1,8.331431746E-1
2.065969965E1,2.696586132E0,-1.574503928E-1,1.332372427E0
2.067636559E1,7.037925720E-1,1.554727197E0,7.336485982E-1
2.069303152E1,-4.519635737E-1,3.249266148E0,-3.119228184E-1
2.070969746E1,-1.081230640E-1,5.186852932E0,-1.712864876E0
2.072636340E1,6.168970466E-1,5.762745380E0,-1.558468819E0
2.074302934E1,7.094430923E-1,5.807796955E0,-7.580068111E-1
2.075969527E1,4.434878230E-1,5.510076523E0,-8.143591285E-1
2.077636121E1,1.237001196E-1,4.133798122E0,-1.642309904E0
2.079302715E1,-5.739838481E-1,3.236285210E0,-2.316551924E0
2.080969309E1,-1.725616693E0,3.778198719E0,-2.713537693E0
2.082635902E1,-2.048687696E0,4.534372807E0,-3.089066744E0
2.084302496E1,-1.349705696E0,4.576522350E0,-3.414963245E0
2.085969090E1,-1.861686826E0,2.913825035E0,-3.233994484E0
2.087635684E1,-3.627849579E0,1.901698470E0,-2.701091290E0
2.089302277E1,-3.923508167E0,2.521344423E0,-2.192088366E0
2.090968871E1,-2.068693638E0,2.650160551E0,-1.471420527E0
2.092635465E1,7.124210596E-1,1.571144223E0,-9.721149206E-1
2.094302059E1,2.534707069E0,2.415206581E-1,-6.768381596E-1
2.095968652E1,2.830136538E0,-4.348593652E-1,-3.916406929E-1
2.097635246E1,1.801516652E0,1.158352345E-1,-4.740310609E-1
2.099301840E1,3.291797638E-1,1.056872368E0,-8.642209172E-1
2.100968434E1,-5.933024287E-1,1.834274173E0,-1.084972262E0
2.102635027E1,-7.756455541E-1,2.121151686E0,-1.102916360E0
2.104301621E1,-4.639517963E-1,1.918802619E0,-8.353576064E-1
2.105968215E1,3.947713599E-2,1.297782183E0,-4.324922562E-1
2.107634809E1,7.573196292E-1,5.445095897E-1,-1.220202371E-1
2.109301402E1,1.540601015E0,8.278744817E-1,3.908007443E-1
2.110967996E1,1.723631382E0,5.956695080E-1,9.360738993E-1
2.112634590E1,1.007468700E0,-9.133955836E-1,1.495320678E0
2.114301184E1,6.650790572E-2,-9.078214169E-1,1.403614521E0
2.115967777E1,-7.269290686E-1,1.290451828E-2,1.064890027E0
2.117634371E1,-8.306233883E-1,9.554688931E-1,8.875865340E-1
2.119300965E1,2.848920524E-1,1.805487156E0,1.025718331E0
2.120967559E1,1.643608093E0,1.784259677E0,1.123991251E0
2.122634152E1,2.265239239E0,1.041524410E0,1.106886983E0
2.124300746E1,1.875584006E0,1.465311944E-1,9.853248596E-1
2.125967340E1,7.947350740E-1,-3.200931549E-1,9.157626629E-1
2.127633934E1,-2.925278842E-1,-1.547778696E-1,7.887027860E-1
2.129300527E1,-7.610611320E-1,1.492800862E-1,5.655080676E-1
2.130967121E1,-5.391645432E-1,2.010508776E-1,3.397935331E-1
2.132633715E1,-1.954767257E-1,1.374445739E-3,2.774853408E-1
2.134300309E1,3.764454275E-2,-1.601992846E-1,3.071122766E-1
2.135966902E1,1.496618707E-2,-4.066832364E-1,3.601811528E-1
2.137633496E1,-2.714530230E-1,-4.951822758E-1,3.076467812E-1
2.139300090E1,-6.161335111E-1,-2.052505612E-1,2.011272311E-1
2.140966684E1,-4.716639817E-1,2.428187430E-2,2.149480432E-1
2.142633277E1,2.328922004E-1,-1.374445707E-1,1.595884264E-1
2.144299871E1,6.433169842E-1,-7.504473925E-1,-1.721875072E-1
2.145966465E1,1.826485693E-1,-9.456950426E-1,-6.629409790E-1
2.147633059E1,-6.879100800E-1,-1.991419196E-1,-9.019418359E-1
2.149299652E1,-1.036026716E0,5.867356062E-1,-7.877101302E-1
2.150966246E1,-9.076687098E-1,3.191768527E-1,-6.617956161E-1
2.152632840E1,-4.776198864E-1,-2.586248815E-1,-6.649262905E-1
2.154299434E1,-8.834631741E-2,-6.582831740E-1,-7.471640110E-1
2.155966027E1,-9.697478265E-3,-7.041743994E-1,-7.938187718E-1
2.157632621E1,-2.451858521E-1,-5.222893953E-1,-7.260891199E-1
2.159299215E1,-6.350703239E-1,-6.360629201E-2,-5.526798964E-1
2.160965809E1,-4.807505906E-1,1.337793916E-1,-5.312996507E-1
2.162632402E1,2.435823344E-2,-2.305250913E-1,-5.308414698E-1
2.164298996E1,5.300015807E-1,-7.316632867E-1,-4.228711426E-1
2.165965590E1,6.707295179E-1,-9.654718041E-1,-3.255909383E-1
2.167632184E1,4.135554433E-1,-7.341831326E-1,-2.923751473E-1
2.169298777E1,-6.246092543E-2,-4.276817143E-1,-2.926042378E-1
2.170965371E1,-3.068068326E-1,-4.189768732E-1,-3.207040131E-1
2.172631965E1,-2.002109289E-1,-6.644681692E-1,-3.187950552E-1
2.174298559E1,7.231111825E-2,-9.232457280E-1,-3.099375069E-1
2.175965152E1,2.686277926E-1,-8.948405385E-1,-2.476293147E-1
2.177631746E1,2.881754637E-1,-6.808851361E-1,-2.218202800E-1
2.179298340E1,1.858556122E-1,-4.950295389E-1,-2.719111741E-1
2.180964934E1,6.360629201E-2,-3.824777007E-1,-3.467421234E-1
2.182631527E1,-3.100138716E-2,-3.539197743E-1,-4.012618065E-1
2.184298121E1,-7.429642975E-2,-4.458549321E-1,-4.241692424E-1
2.185964715E1,-1.728747338E-1,-4.587594569E-1,-4.382191300E-1
2.187631309E1,-3.305542171E-1,-3.063486814E-1,-4.297433794E-1
2.189297902E1,-3.280344009E-1,-2.299905866E-1,-4.181369543E-1
2.190964496E1,-2.392299175E-1,-2.492328286E-1,-3.431532979E-1
2.192631090E1,-1.563813835E-1,-2.118937224E-1,-3.339139521E-1
2.194297684E1,-1.031597927E-1,-2.193768173E-1,-3.662897944E-1
2.195964277E1,-8.788817376E-2,-2.441168427E-1,-3.649916947E-1
2.197630871E1,-7.765618712E-2,-2.222020626E-1,-3.158170879E-1
2.199297465E1,-8.697187155E-2,-1.149952933E-1,-2.535852492E-1
2.200964059E1,-6.620246917E-2,-4.993819445E-2,-1.924987584E-1
2.202630652E1,-5.253437161E-2,-5.230529606E-2,-1.622609496E-1
2.204297246E1,-6.902772188E-2,-9.040798992E-2,-1.276707351E-1
2.205963840E1,-8.284853399E-2,-1.059086844E-1,-9.781472385E-2
2.207630434E1,-3.092502989E-2,-1.081230640E-1,-6.307178736E-2
2.209297027E1,4.497491941E-2,-8.910989761E-2,-5.597048625E-2
2.210963621E1,8.544471115E-2,-4.207331315E-2,-7.994692773E-2
2.212630215E1,6.566796452E-2,-6.215549260E-2,-6.971494108E-2
2.214296809E1,5.031998456E-2,-5.871937796E-2,-2.306014486E-2
2.215963402E1,-1.059850380E-1,5.757400393E-2,3.642281145E-2
2.217629996E1,-2.970330119E-1,3.035234511E-1,8.399390499E-4
2.219296590E1,2.244928107E-2,1.767689884E-1,-1.575267613E-1
2.220963184E1,2.632827163E-1,-1.643989831E-1,-1.450040340E-1
2.222629777E1,2.796997130E-1,-2.929860055E-1,-8.613193035E-2
