"Time (s)","Linear Acceleration x (m/s^2)","Linear Acceleration y (m/s^2)","Linear Acceleration z (m/s^2)"
3.837964900E-2,0.000000000E0,0.000000000E0,0.000000000E0
5.504558700E-2,-3.491613865E-1,-4.926109314E-2,-4.516744614E-1
7.171152400E-2,-3.035023808E-1,-1.731383801E-1,-4.329309464E-1
8.837746200E-2,8.996725082E-3,-2.188322544E-1,-2.299375534E-1
1.050433990E-1,1.200796366E-1,-2.021522522E-1,-1.412210464E-1
1.217093370E-1,3.398698568E-1,-1.856784821E-1,-1.305675507E-1
1.383752740E-1,2.650809288E-1,-4.218816757E-3,-5.723953247E-2
1.550412120E-1,3.491272926E-1,-1.854205132E-2,3.581237793E-2
1.717071490E-1,5.327104330E-1,8.132100105E-2,-1.813917160E-1
1.883730870E-1,5.874162912E-1,2.360124588E-1,-4.067478180E-1
2.050390240E-1,5.112369061E-1,2.818276882E-1,-4.359302521E-1
2.217049620E-1,4.964438677E-1,2.610087395E-1,-3.452777863E-1
2.383708990E-1,3.184791803E-1,2.313370705E-1,-2.333850861E-1
2.550368370E-1,2.311888933E-1,1.968517303E-1,-5.619335175E-2
2.717027740E-1,2.016621828E-1,1.578698158E-1,2.681035995E-1
2.883687120E-1,3.705203533E-1,1.417565346E-1,3.297824860E-1
3.050346490E-1,5.883454084E-1,3.287329674E-1,2.581005096E-1
3.217005870E-1,9.086365700E-1,4.443476200E-1,2.338666916E-1
3.383665240E-1,1.625087142E0,4.422624111E-1,1.073732376E-1
3.550324620E-1,1.646138191E0,4.708986282E-1,8.142490387E-1
3.716983990E-1,1.583355784E0,2.948734760E-1,1.489674568E0
3.883643370E-1,6.646972895E-1,3.859150410E-1,8.159227371E-1
4.050302740E-1,1.569365263E-1,1.419637203E-1,4.400167465E-1
4.216962120E-1,2.019386292E-1,-1.834599972E-1,6.417274475E-1
4.383621490E-1,4.018287659E-1,-4.418399334E-1,1.116941452E0
4.550280870E-1,1.887367964E-1,-4.530222416E-1,8.053102493E-1
4.716940240E-1,-3.505529165E-1,-6.872677803E-1,3.529806137E-1
4.883599620E-1,-1.440905333E-1,-1.841208339E0,-3.833713531E-1
5.050258990E-1,-3.828386068E-1,-6.089692116E-1,5.383682251E-2
5.216918370E-1,-1.069412827E0,1.187692165E0,1.196289062E-1
5.383577740E-1,-9.559617639E-1,2.348136902E-1,-1.148302555E0
5.550237120E-1,-2.528896332E-1,-6.936836243E-1,-6.200542450E-1
5.716896490E-1,2.654649615E-1,-2.970547676E-1,-4.996013641E-2
5.883555870E-1,-6.723082066E-2,6.438913345E-1,-1.533536911E-1
6.050215240E-1,-7.012666464E-1,9.493784904E-1,-5.954999924E-1
6.216874620E-1,-7.698823810E-1,4.615087509E-1,-9.929614067E-1
6.383533990E-1,-5.357046127E-1,4.638934135E-1,-1.385701656E0
6.550193370E-1,-4.591567218E-1,6.865849495E-1,-1.379176617E0
6.716852740E-1,-1.281077862E-1,-1.886510849E-2,-1.129856586E0
6.883512120E-1,-9.202480316E-2,-2.011170387E-1,-5.917305946E-1
7.050171490E-1,-1.662648916E-1,-1.714897156E-2,-6.952857971E-2
7.216830870E-1,-1.470735669E-1,6.082677841E-2,1.371793747E-1
7.383490240E-1,-3.535695672E-1,6.095886230E-2,2.769308090E-1
7.550149620E-1,-8.117260337E-1,8.504533768E-2,-8.539104462E-2
7.716808990E-1,-9.893367290E-1,9.241533279E-2,-4.167900085E-1
7.883468370E-1,-1.017983675E0,2.409405708E-1,-4.145059586E-1
8.050127740E-1,-7.395811677E-1,1.241455078E-1,-1.769733429E-2
8.216787120E-1,-4.885379374E-1,-1.916933060E-2,2.852153778E-1
8.383446490E-1,-6.436177492E-1,-2.087144852E-1,1.678934097E-1
8.550105870E-1,-1.067285657E0,-2.203688622E-1,-1.091136932E-1
8.716765240E-1,-1.224676967E0,-2.662253380E-1,-2.497987747E-1
8.883424620E-1,-1.105569005E0,-2.103590965E-1,-2.911691666E-1
9.050083990E-1,-8.831518888E-1,-9.254026413E-2,-4.760246277E-1
9.216743370E-1,-7.418406606E-1,-8.385324478E-2,-3.717784882E-1
9.383402740E-1,-6.135131717E-1,-2.832946777E-1,-6.895828247E-2
9.550062120E-1,-6.701728702E-1,-2.175450325E-1,1.275081635E-1
9.716721490E-1,-7.688920498E-1,-1.515769958E-2,1.519966125E-1
9.883380870E-1,-1.098852277E0,2.912654877E-1,4.518604279E-2
1.005004024E0,-1.288420439E0,3.270998001E-1,-5.095005035E-2
1.021669962E0,-1.378450036E0,3.948540688E-1,-9.210205078E-2
1.038335899E0,-1.409116745E0,5.216193199E-1,1.434555054E-1
1.055001837E0,-1.142179966E0,4.509420395E-1,5.370874405E-1
1.071667774E0,-9.465643167E-1,4.280705452E-1,9.153194427E-1
1.088333712E0,-8.915763497E-1,3.955488205E-1,8.275804520E-1
1.104999649E0,-9.320728779E-1,8.291339874E-2,6.241025925E-1
1.121665587E0,-1.014223099E0,6.800508499E-2,5.971012115E-1
1.138331524E0,-7.968768477E-1,-8.896780014E-2,8.551940918E-1
1.154997462E0,-6.435831785E-1,-2.159042358E-1,1.226905823E0
1.171663399E0,-4.678032398E-1,-3.396182060E-1,1.474156380E0
1.188329337E0,-3.082437217E-1,-3.517289162E-1,1.188927650E0
1.204995274E0,-3.913338780E-1,-3.276853561E-1,5.714607239E-1
1.221661212E0,-6.096833944E-1,-3.048734665E-1,-2.277946472E-1
1.238327149E0,-4.172970355E-1,-9.219374657E-1,-3.385257721E-1
1.254993087E0,-4.710224867E-1,-7.834446430E-1,3.370456696E-1
1.271659024E0,-9.093635082E-1,3.558578491E-1,2.888393402E-2
1.288324962E0,-3.303761482E-1,-3.847517967E-1,-8.413167000E-1
1.304990899E0,-4.025637507E-1,-2.547488213E-1,-1.159892082E0
1.321656837E0,-6.046419144E-1,9.334421158E-2,-1.344651222E0
1.338322774E0,-5.574305058E-1,9.777784348E-2,-1.258076191E0
1.354988712E0,-1.798263639E-1,-1.410241127E-1,-1.006174564E0
1.371654649E0,2.495151758E-1,-3.843021393E-1,-6.167397499E-1
1.388320587E0,4.952136278E-1,-5.368757248E-1,-1.157751083E-1
1.404986524E0,6.532971263E-1,-6.181812286E-1,3.483486176E-1
1.421652462E0,5.023740530E-1,-6.457452774E-1,3.572626114E-1
1.438318399E0,3.706215620E-1,-5.325098038E-1,2.024593353E-1
1.454984337E0,6.617087126E-1,-4.687986374E-1,1.481122971E-1
1.471650274E0,8.362839818E-1,-3.076076508E-1,4.867038727E-1
1.488316212E0,7.852985859E-1,-5.034151077E-1,5.191688538E-1
1.504982149E0,7.187605500E-1,-3.295354843E-1,-4.997539520E-2
1.521648087E0,9.000297189E-1,-3.190193176E-1,-5.394420624E-1
1.538314024E0,3.898102641E-1,6.149535179E-1,-6.569719315E-1
1.554979962E0,7.644755244E-1,-7.295799255E-2,-1.648130417E-1
1.571645899E0,1.042903304E0,-2.610297203E-1,8.084955215E-1
1.588311837E0,1.234556794E0,-1.536498070E-1,1.272747993E0
1.604977774E0,1.187283278E0,1.287822723E-1,1.542996407E0
1.621643712E0,1.374559283E0,2.477664948E-1,1.488366127E0
1.638309649E0,1.746995449E0,1.160526276E-1,1.249001503E0
1.654975587E0,1.759295225E0,1.035413742E-1,6.829681396E-1
1.671641524E0,1.361440182E0,1.849956512E-1,2.594842911E-1
1.688307462E0,1.137701988E0,3.372750282E-1,2.811183929E-1
1.704973399E0,1.186291695E0,4.939169884E-1,2.879705429E-1
1.721639337E0,1.153704882E0,7.258229256E-1,8.663940430E-2
1.738305274E0,1.067156076E0,8.463420868E-1,-3.025922775E-1
1.754971212E0,1.050766706E0,7.991728783E-1,-5.183296204E-1
1.771637149E0,1.173381805E0,9.101557732E-1,-5.487098694E-1
1.788303087E0,1.130985022E0,1.265029430E0,-2.906379700E-1
1.804969024E0,9.108161330E-1,1.326744080E0,-4.455518723E-1
1.821634962E0,1.079889655E0,4.280347824E-1,-8.164148331E-1
1.838300899E0,1.051998138E0,6.957039833E-1,-4.480228424E-1
1.854966837E0,1.005041361E0,8.185815811E-1,-2.114276886E-1
1.871632774E0,1.004123092E0,6.272025108E-1,-2.708492279E-1
1.888298712E0,7.950261235E-1,5.250272751E-1,-2.834281921E-1
1.904964649E0,6.904540062E-1,3.039436340E-1,-3.280506134E-1
1.921630587E0,5.026732087E-1,8.733129501E-2,-2.335290909E-1
1.938296524E0,4.068619013E-1,-1.508989334E-1,-5.932235718E-2
1.954962462E0,5.014640689E-1,-2.778425217E-1,-6.416130066E-2
1.971628399E0,5.691392422E-1,-2.373709679E-1,-3.681182861E-1
1.988294337E0,4.702205062E-1,-2.585506439E-2,-8.948349953E-1
2.004960274E0,1.649512649E-1,1.770229340E-1,-1.693232059E0
2.021626212E0,-1.252885461E-1,3.696665764E-1,-2.230530739E0
2.038292149E0,-2.008617520E-1,4.810423851E-1,-2.161273956E0
2.054958087E0,-2.377942801E-1,5.987739563E-1,-1.814713001E0
2.071624024E0,-3.391212225E-1,6.191568375E-1,-1.499660015E0
2.088289962E0,-5.404727459E-1,7.149996758E-1,-1.053766727E0
2.104955899E0,-6.862987280E-1,7.524013519E-1,-4.683294296E-1
2.121621837E0,-6.668604612E-1,7.554364204E-1,1.083860397E-1
2.138287774E0,-6.032320261E-1,6.529741287E-1,4.479522705E-1
2.154953712E0,-5.313462019E-1,5.704011917E-1,6.041803360E-1
2.171619649E0,-3.250150084E-1,4.621763229E-1,8.768053055E-1
2.188285587E0,-2.781493068E-1,4.259533882E-1,1.186347008E0
2.204951524E0,-5.939970613E-1,3.671879768E-1,1.367687225E0
2.221617462E0,-8.172023296E-1,4.134211540E-1,1.343456268E0
2.238283399E0,-8.601981401E-1,5.493040085E-1,8.232612610E-1
2.254949337E0,-8.332527280E-1,7.030129433E-1,2.101106644E-1
2.271615274E0,-8.102121353E-1,5.857739449E-1,2.785301208E-2
2.288281212E0,-7.322763801E-1,3.256874084E-1,3.010902405E-1
2.304947149E0,-6.811599135E-1,-4.833698273E-2,6.558828354E-1
2.321613087E0,-6.727309823E-1,-1.849675179E-1,7.251386642E-1
2.338279024E0,-8.849573135E-1,-3.639836311E-1,4.923400879E-1
2.354944962E0,-9.610083699E-1,-4.453740120E-1,2.543888092E-1
2.371610899E0,-8.538500071E-1,-6.689252853E-1,-7.950630188E-1
2.388276837E0,-1.148566961E0,-1.754188538E-1,-1.362323284E0
2.404942774E0,-1.216325045E0,-2.760663033E-1,-1.402987957E0
2.421608712E0,-1.269888520E0,-1.147317886E-1,-4.802274704E-1
2.438274649E0,-9.592981339E-1,-2.510395050E-1,2.500524521E-1
2.454940587E0,-5.828404427E-1,-7.159771919E-1,1.773624420E-1
2.471606524E0,-3.989224136E-1,-5.659728050E-1,-6.821441650E-2
2.488272462E0,-1.296448708E-1,-5.965461731E-1,3.167629242E-2
2.504938399E0,1.595185399E-1,-6.224842072E-1,6.946935654E-1
2.521604337E0,2.083898783E-1,-5.692510605E-1,1.287493706E0
2.538270274E0,1.765035391E-1,-6.167840958E-1,1.446539879E0
2.554936212E0,1.076351404E-1,-5.252494812E-1,1.325601578E0
2.571602149E0,1.879717112E-1,-4.945940971E-1,9.389581680E-1
2.588268087E0,3.270425797E-1,-6.306662560E-1,6.525945663E-1
2.604934024E0,4.908587337E-1,-6.170201302E-1,1.952362061E-1
2.621599962E0,4.039003849E-1,-5.636205673E-1,-2.789373398E-1
2.638265899E0,3.021273017E-1,-4.288487434E-1,-3.930501938E-1
2.654931837E0,3.015763760E-1,-1.927847862E-1,-3.228101730E-1
2.671597774E0,3.889177442E-1,1.114845276E-3,-5.061731339E-1
2.688263712E0,3.781284690E-1,1.883378029E-1,-7.050981522E-1
2.704929649E0,7.447540760E-2,3.909096718E-1,-1.040651321E0
2.721595587E0,-1.569276750E-1,3.565659523E-1,-1.308205128E0
2.738261524E0,-1.187579036E-1,3.903875351E-1,-1.172795773E0
2.754927462E0,-1.457161307E-1,4.974875450E-1,-8.160605431E-1
2.771593399E0,4.194272757E-1,-4.061794281E-1,-9.650597572E-1
2.788259337E0,-1.516534686E-1,1.243347168E0,-6.028347015E-1
2.804925274E0,2.527191639E-1,1.529693604E-3,-4.109525681E-1
2.821591212E0,-1.792406440E-1,7.042603493E-1,8.124542236E-2
2.838257149E0,-6.407713890E-2,5.150604248E-2,5.378103256E-1
2.854923087E0,-6.532317400E-2,-2.410268784E-2,6.641826630E-1
2.871589024E0,-2.623975277E-2,-1.186866760E-1,3.883342743E-1
2.888254962E0,-2.580721378E-1,-5.188846588E-2,2.797918320E-1
2.904920899E0,-4.205508232E-1,-2.666854858E-2,1.855440140E-1
2.921586837E0,-3.563254476E-1,2.421951294E-2,8.068752289E-2
2.938252774E0,-3.677201271E-1,1.436276436E-1,1.883668900E-1
2.954918712E0,-4.269056618E-1,1.288657188E-1,4.954700470E-1
2.971584649E0,-1.629714370E-1,7.375526428E-2,7.960901260E-1
2.988250587E0,1.981202960E-1,-1.138782501E-2,6.417274475E-1
3.004916524E0,3.908587098E-1,-4.790115356E-2,3.294334412E-1
3.021582462E0,3.447182178E-1,-1.928901672E-1,1.029014587E-2
3.038248399E0,8.586490154E-2,-1.065282822E-1,-2.804374695E-2
3.054914337E0,1.898860335E-1,-8.908796310E-2,1.414794922E-1
3.071580274E0,4.843031168E-1,-3.826551437E-1,2.969732285E-1
3.088246212E0,5.060077310E-1,-7.528753281E-1,1.938114166E-1
3.104912149E0,8.030216098E-1,-5.585269928E-1,5.146903992E-1
3.121578087E0,5.286396146E-1,-8.101644516E-1,4.846982956E-1
3.138244024E0,1.064179540E-1,-9.241719246E-1,3.114862442E-1
3.154909962E0,1.630415916E-1,-9.757080078E-1,2.459430695E-2
3.171575899E0,4.301102757E-1,-1.037043095E0,-3.231821060E-1
3.188241837E0,6.245074272E-1,-1.188967466E0,1.741600037E-1
3.204907774E0,8.358246088E-1,-8.757367134E-1,-3.646183014E-2
3.221573712E0,1.209670067E0,-8.059937954E-1,-4.222917557E-1
3.238239649E0,1.304493666E0,-6.918101311E-1,-6.382141113E-1
3.254905587E0,1.152814388E0,-6.914656162E-1,-6.123876572E-1
3.271571524E0,7.664422989E-1,-7.091240883E-1,-7.750592232E-1
3.288237462E0,4.560952187E-1,-9.197878838E-1,-7.592539787E-1
3.304903399E0,6.523829103E-1,-1.294503450E0,-2.576351166E-1
3.321569337E0,-1.859567463E-1,5.390963554E-1,1.651916504E-1
3.338235274E0,5.685858130E-1,-5.368268490E-1,-6.487808228E-1
3.354901212E0,5.088376999E-1,-5.142576694E-1,-6.582174301E-1
3.371567149E0,1.781429052E-1,-5.470113754E-1,5.068635941E-1
3.388233087E0,3.340816498E-2,-3.789989948E-1,1.503766060E0
3.404899024E0,2.761952281E-1,-4.707944393E-1,2.067584038E0
3.421564962E0,9.017634392E-2,-8.580734730E-1,1.569392204E0
3.438230899E0,4.718781114E-1,-5.696732998E-1,1.506558418E0
3.454896837E0,4.080315828E-1,-6.568880081E-1,1.224426270E0
3.471562774E0,2.831168771E-1,-6.629514694E-1,1.148929596E0
3.488228712E0,3.896418214E-1,-6.558814049E-1,1.371786118E0
3.504894649E0,6.707253456E-1,-5.005517006E-1,1.653037071E0
3.521560587E0,8.088060617E-1,-4.012787342E-1,1.568058014E0
3.538226524E0,6.415824294E-1,-3.492245674E-1,1.099474907E0
3.554892462E0,1.053914547E0,-3.059339523E-2,6.685924530E-1
3.571558399E0,3.716298938E-1,-3.738319874E-1,2.553396225E-1
3.588224337E0,6.711959839E-1,9.066200256E-2,-1.208229065E-1
3.604890274E0,1.110794306E0,1.541433334E-1,-7.079362869E-1
3.621556212E0,1.232303500E0,-4.191589355E-2,-1.010035038E0
3.638222149E0,6.001865864E-1,1.025094986E-1,-1.034431458E0
3.654888087E0,1.867394447E-1,4.556035995E-2,-4.962720871E-1
3.671554024E0,1.878684759E-1,-3.676700592E-2,-1.240100861E-1
3.688219962E0,3.111565113E-1,2.620601654E-2,-4.185371399E-1
3.704885899E0,6.603111029E-1,9.994935989E-2,-1.587389469E0
3.721551837E0,9.182475805E-1,-1.055567265E-1,-9.519186020E-1
3.738217774E0,1.511539578E0,2.278094292E-1,1.513824463E-1
3.754883712E0,1.242937803E0,2.901222706E-1,6.110944748E-1
3.771549649E0,1.286040068E0,-2.863645554E-3,1.469697952E0
3.788215587E0,6.076462865E-1,1.198008060E-1,6.731128693E-1
3.804881524E0,2.728269100E-1,2.077670097E-1,-5.974311829E-1
3.821547462E0,2.223046422E-1,-3.100442886E-2,-1.400757313E0
3.838213399E0,2.616069317E-1,1.501717567E-1,-1.259906292E0
3.854879337E0,4.314741790E-1,2.611987591E-1,-9.079647064E-1
3.871545274E0,4.894301295E-2,2.367212772E-1,-6.255445480E-1
3.888211212E0,-3.813068271E-1,-4.443407059E-3,-3.832702637E-1
3.904877149E0,-3.584168851E-1,2.265367508E-1,-3.817243576E-1
3.921543087E0,-3.080766201E-1,3.024086952E-1,-4.413824081E-1
3.938209024E0,-1.196556315E-1,3.788404465E-1,-4.362573624E-1
3.954874962E0,2.321586013E-2,4.653751850E-1,-5.796957016E-1
3.971540899E0,-3.331912756E-1,4.857909679E-1,-5.293893814E-1
3.988206837E0,-6.384899616E-1,5.802404881E-1,-2.478084564E-1
4.004872774E0,-7.465981245E-1,5.883133411E-1,1.116914749E-1
4.021538712E0,-6.353952885E-1,6.709902287E-1,4.325962067E-1
4.038204649E0,-4.500622451E-1,7.269251347E-1,3.647127151E-1
4.054870587E0,-3.557621241E-1,7.305922508E-1,1.583862305E-1
4.071536524E0,-5.339639187E-1,8.184168339E-1,-5.616664886E-2
4.088202462E0,-8.979802132E-1,7.163994312E-1,-1.416864395E-1
4.104868399E0,-1.087474823E0,6.384994984E-1,-3.465938568E-2
4.121534337E0,-8.938576579E-1,5.957996845E-1,-2.299022675E-2
4.138200274E0,-4.683085084E-1,6.831896305E-1,-1.572513580E-1
4.154866212E0,-3.071820438E-1,8.833847046E-1,-3.226146698E-1
4.171532149E0,-3.109187782E-1,1.039769888E0,-5.152845383E-1
4.188198087E0,-7.007220387E-1,1.078429699E0,-8.078336716E-1
4.204864024E0,-1.193281174E0,1.045347929E0,-1.701665401E0
4.221529962E0,-1.344718456E0,1.435540676E0,-2.459836960E0
4.238195899E0,-3.989577889E-1,1.695766687E0,-1.164438248E0
4.254861837E0,-1.894022226E-1,1.621185303E0,-8.863048553E-1
4.271527774E0,-8.367480040E-1,1.772170544E0,-5.785036087E-1
4.288193712E0,-1.473643064E0,1.781458139E0,-2.169198990E-1
4.304859649E0,-1.421089649E0,1.582103491E0,-4.646759033E-1
4.321525587E0,-9.779258966E-1,1.513273716E0,-7.346639633E-1
4.338191524E0,-6.426286697E-1,1.492441177E0,-7.775869370E-1
4.354857462E0,-9.153601527E-1,1.635921955E0,-1.578336239E0
4.371523399E0,-1.414274693E0,1.408526897E0,-2.142095566E-1
4.388189337E0,-8.068960309E-1,1.371087313E0,9.680004120E-1
4.404855274E0,-5.597483516E-1,1.342726946E0,1.218523979E0
4.421521212E0,-6.669228673E-1,1.293047190E0,9.194545746E-1
4.438187149E0,-7.229297161E-1,1.247876406E0,2.917423248E-1
4.454853087E0,-4.535681903E-1,1.165382147E0,-1.751832962E-1
4.471519024E0,-1.909642816E-1,1.033493996E0,-6.546020508E-3
4.488184962E0,1.296378374E-1,1.036088943E0,6.338491440E-1
4.504850899E0,5.199835300E-1,9.849441051E-1,1.305464745E0
4.521516837E0,4.902546406E-1,8.206567764E-1,1.793476105E0
4.538182774E0,1.523019671E-1,5.411624908E-1,2.064098358E0
4.554848712E0,1.625101566E-1,3.969810009E-1,2.050125122E0
4.571514649E0,2.144448161E-1,1.658687592E-1,1.924333572E0
4.588180587E0,-2.656400204E-2,-5.686950684E-2,1.708097458E0
4.604846524E0,-2.323764563E-2,-1.560461521E-1,1.363960266E0
4.621512462E0,-3.326586485E-1,-5.118027925E-1,1.186227798E0
4.638178399E0,-1.070685387E0,-6.826359034E-1,1.313774109E0
4.654844337E0,-1.759941936E0,1.452299356E-1,1.534567833E0
4.671510274E0,-1.519577265E0,8.340123892E-1,-4.013633728E-1
4.688176212E0,-2.566744089E-1,1.184988737E0,-3.878609180E0
4.704842149E0,2.302842140E-1,1.330504060E0,-6.522779465E0
4.721508087E0,-6.183321476E-1,1.022016168E0,-7.397347450E0
4.738174024E0,-2.185016155E0,5.979127884E-1,-6.421167374E0
4.754839962E0,-3.231073856E0,3.318055868E-1,-4.444681168E0
4.771505899E0,-3.170654297E0,3.299006224E-1,-2.640074253E0
4.788171837E0,-2.453164577E0,7.228188515E-1,-1.667885780E0
4.804837774E0,-1.963051081E0,1.285561442E0,-1.711184978E0
4.821503712E0,-1.375358343E0,1.792085886E0,-2.275039673E0
4.838169649E0,-2.800273895E-2,2.148085594E0,-2.703995705E0
4.854835587E0,1.216628313E0,2.656834602E0,-2.353558064E0
4.871501524E0,1.518217325E0,3.100048304E0,-1.722073078E0
4.888167462E0,6.581158638E-1,3.770233631E0,-2.025915623E0
4.904833399E0,-3.166079521E-1,4.445541382E0,-2.190265656E0
4.921499337E0,-8.335828185E-1,4.741082191E0,-8.536901474E-1
4.938165274E0,4.410800934E-1,3.862794161E0,9.849443436E-1
4.954831212E0,2.284547329E0,2.902995110E0,1.683463097E0
4.971497149E0,2.521219730E0,1.746232748E0,-9.667158127E-1
4.988163087E0,1.396278143E-1,2.827224731E-1,-4.035954952E0
5.004829024E0,-1.576000094E0,1.721819401E0,-3.529166698E0
5.021494962E0,-1.742522955E0,1.295314789E0,-9.338526726E-1
5.038160899E0,5.034921765E-1,1.755926609E0,-6.056632996E-1
5.054826837E0,2.021137476E0,2.987725735E0,-2.231411457E0
5.071492774E0,2.170977592E0,4.363226891E0,-3.241994381E0
5.088158712E0,2.784008265E0,4.468238354E0,-2.747159481E0
5.104824649E0,5.287987232E0,3.489090443E0,2.598638535E-1
5.121490587E0,8.394392014E0,9.523644447E-1,5.630378723E0
5.138156524E0,8.725521088E0,-1.975403428E0,1.261000252E1
5.154822462E0,6.717030525E0,-2.412822962E0,1.658903122E1
5.171488399E0,3.402938366E0,8.553600311E-1,1.270968151E1
5.188154337E0,1.120549440E-1,5.022846222E0,2.131305695E0
5.204820274E0,-2.412446260E0,8.391556740E0,-5.851560593E0
5.221486212E0,-3.870398045E0,7.596270084E0,-8.221855164E0
5.238152149E0,-6.650516510E0,3.208987236E0,-6.709537506E0
5.254818087E0,-1.064292908E1,-5.499272346E-1,-5.007774353E0
5.271484024E0,-1.246076107E1,-8.071148396E-2,-5.050851345E0
5.288149962E0,-1.018908310E1,5.670339584E0,-6.021708488E0
5.304815899E0,-8.552715302E0,1.037376881E1,-6.764152527E0
5.321481837E0,-1.086211777E1,1.127736092E1,-3.538238525E0
5.338147774E0,-1.170931721E1,1.174136829E1,1.025885582E0
5.354813712E0,-1.096605301E1,1.455276299E1,3.601720810E0
5.371479649E0,-1.216477776E1,1.899981117E1,1.823658943E0
5.388145587E0,-1.116708660E1,2.358489418E1,1.521547318E0
5.404811524E0,-1.106183910E1,2.751014900E1,1.252172375E1
5.421477462E0,-9.004911423E0,2.720742226E1,3.275943756E1
5.438143399E0,1.254683614E0,1.819713020E1,4.435957336E1
5.454809337E0,1.106344795E1,7.335666656E0,3.341075134E1
5.471475274E0,1.432226276E1,-2.212674141E0,1.525041294E1
5.488141212E0,6.120294571E0,-8.220064163E0,8.402983665E0
5.504807149E0,1.729389787E0,-1.522764683E1,4.716905594E0
5.521473087E0,3.299732685E0,-2.130101395E1,-4.105217457E0
5.538139024E0,4.709026337E0,-2.438840103E1,-1.565326023E1
5.554804962E0,4.853684425E0,-2.430813217E1,-1.851737022E1
5.571470899E0,7.035851479E0,-2.346639061E1,-1.218759727E1
5.588136837E0,1.089481163E1,-2.028604889E1,-5.370903969E0
5.604802774E0,1.310154629E1,-1.533631706E1,-4.363813877E0
5.621468712E0,1.520264530E1,-1.069972801E1,-3.996866703E0
5.638134649E0,1.429115963E1,-6.992769241E0,1.613480568E0
5.654800587E0,1.149218082E1,-4.442944527E0,1.037339401E1
5.671466524E0,1.101903820E1,-1.817854166E0,1.636563492E1
5.688132462E0,1.002604961E1,1.530017138E0,1.751037216E1
5.704798399E0,4.691700935E0,6.184900284E0,1.589712334E1
5.721464337E0,-1.414051056E-1,1.106822109E1,1.364129829E1
5.738130274E0,-2.246403217E0,9.541053772E0,4.578509331E0
5.754796212E0,-6.773656845E0,7.369043350E0,-6.497445107E0
5.771462149E0,-1.053235817E1,5.553986073E0,-1.371816444E1
5.788128087E0,-1.428076172E1,4.606376171E0,-1.519034004E1
5.804794024E0,-1.873907471E1,7.510718346E0,-1.162403774E1
5.821459962E0,-2.006382751E1,9.936003685E0,-4.910619259E0
5.838125899E0,-2.109727287E1,1.058430099E1,6.061967850E0
5.854791837E0,-2.186611176E1,1.156914711E1,1.178235912E1
5.871457774E0,-2.085136032E1,1.375903797E1,7.265402794E0
5.888123712E0,-1.215816307E1,1.478993988E1,3.709458351E0
5.904789649E0,-3.858918190E0,1.462232494E1,8.321558952E0
5.921455587E0,-2.934529781E0,1.323068142E1,1.853685379E1
5.938121524E0,-1.348128080E0,1.111214066E1,2.931446075E1
5.954787462E0,6.021635056E0,7.382411957E0,3.140334702E1
5.971453399E0,1.413768959E1,2.238797188E0,2.388974190E1
5.988119337E0,1.560545635E1,-2.963116646E0,1.534465504E1
6.004785274E0,1.051314545E1,-6.623100281E0,1.014030743E1
6.021451212E0,9.411048889E0,-1.064172554E1,-4.519338608E-1
6.038117149E0,6.526109219E0,-1.395620346E1,-1.637724495E1
6.054783087E0,4.750494003E0,-1.722143173E1,-2.145789337E1
6.071449024E0,5.610216618E0,-2.243228531E1,-1.071119308E1
6.088114962E0,6.953468323E0,-2.466703987E1,1.243289948E0
6.104780899E0,7.606201172E0,-2.193078041E1,-1.496281147E0
6.121446837E0,6.205848217E0,-1.602397346E1,-1.597732353E1
6.138112774E0,8.717602730E0,-1.135003853E1,-2.000037766E1
6.154778712E0,1.235105991E1,-1.059907913E1,-9.464764595E0
6.171444649E0,9.593355179E0,-8.581485748E0,4.506516457E0
6.188110587E0,5.420418262E0,-5.125401020E0,1.460580158E1
6.204776524E0,5.309172630E0,-2.868303776E0,1.775474930E1
6.221442462E0,6.234824657E0,-1.439023137E0,1.640901947E1
6.238108399E0,5.793949127E0,-2.097668648E-1,1.276919556E1
6.254774337E0,1.695045710E0,-2.018604279E-1,9.411077499E0
6.271440274E0,-8.865231276E-1,-9.134929180E-1,8.206192017E0
6.288106212E0,-5.272698402E0,9.280560017E-1,1.869853020E0
6.304772149E0,-7.747789860E0,2.798629284E0,-9.930024147E0
6.321438087E0,-5.188433170E0,4.989789009E0,-1.301200485E1
6.338104024E0,-7.107548237E0,9.816333771E0,-6.990984440E0
6.354769962E0,-1.256669044E1,1.421564674E1,-1.068171978E0
6.371435899E0,-1.751685333E1,1.578671265E1,3.260288239E-1
6.388101837E0,-2.130783081E1,1.848189735E1,-2.240171909E0
6.404767774E0,-2.272438431E1,1.848870850E1,-5.807323456E0
6.421433712E0,-2.143860054E1,1.601097870E1,1.830258369E0
6.438099649E0,-2.020567513E1,1.316485882E1,1.582271194E1
6.454765587E0,-1.484194469E1,9.754456520E0,2.592838669E1
6.471431524E0,-1.317134619E0,6.058771133E0,2.964336395E1
6.488097462E0,1.399985313E1,3.238921881E0,2.875664139E1
6.504763399E0,2.088674545E1,-3.338353634E-1,1.912305832E1
6.521429337E0,1.723892593E1,-5.772599697E0,7.872657776E0
6.538095274E0,6.695313454E0,-1.004963684E1,6.354241371E0
6.554761212E0,-2.088888884E0,-1.476965332E1,4.807107925E0
6.571427149E0,-4.485921383E0,-1.693003273E1,-4.553593159E0
6.588093087E0,-2.345642567E0,-1.785289383E1,-1.422786903E1
6.604759024E0,2.537137508E0,-1.951780510E1,-1.483677387E1
6.621424962E0,5.120316029E0,-2.009939194E1,-1.066162205E1
6.638090899E0,3.315099239E0,-1.674549294E1,-1.631239700E1
6.654756837E0,3.119317055E0,-1.287382698E1,-2.475151634E1
6.671422774E0,8.690452576E0,-1.069832230E1,-1.968194580E1
6.688088712E0,1.664872932E1,-1.109111023E1,-3.274496555E0
6.704754649E0,1.873301315E1,-1.034493160E1,1.356294060E1
6.721420587E0,1.197236824E1,-7.667287827E0,2.223057556E1
6.738086524E0,4.615059853E0,-2.530428648E0,2.077303505E1
6.754752462E0,5.536998749E0,1.420470715E0,1.187678814E1
6.771418399E0,9.315351486E0,3.538721561E0,2.216323853E0
6.788084337E0,1.018831635E1,1.037142277E-1,5.942275047E0
6.804750274E0,3.621735096E0,-4.766628265E0,1.605790138E1
6.821416212E0,-6.323094368E0,-3.060460329E0,1.211851025E1
6.838082149E0,-1.224777603E1,1.075960636E0,-1.458699703E0
6.854748087E0,-1.274659061E1,3.511060715E0,-1.046470737E1
6.871414024E0,-1.249677086E1,3.306369305E0,-9.781452179E0
6.888079962E0,-1.395718956E1,2.609835625E0,-5.568596840E0
6.904745899E0,-1.693314552E1,4.638046265E0,-5.294307709E0
6.921411837E0,-2.069175911E1,7.914791107E0,-9.632268906E0
6.938077774E0,-2.033470345E1,8.617694855E0,-1.009659481E1
6.954743712E0,-1.767808914E1,7.946897984E0,-3.887224197E-1
6.971409649E0,-1.443202114E1,7.714917183E0,1.413205910E1
6.988075587E0,-1.237107468E1,6.812674522E0,2.197060776E1
7.004741524E0,-8.179251671E0,5.324022293E0,2.093239594E1
7.021407462E0,-8.244036436E-1,2.563345909E0,1.421533966E1
7.038073399E0,6.047367096E0,1.664316654E-1,1.047777176E1
7.054739337E0,6.855871677E0,-5.894956589E-1,1.300330257E1
7.071405274E0,2.412903786E0,-4.094695091E0,1.668780518E1
7.088071212E0,4.461153746E-1,-8.091550827E0,1.662062645E1
7.104737149E0,3.279763699E0,-1.084292984E1,1.057465935E1
7.121403087E0,4.285875797E0,-1.105581188E1,4.245872498E-1
7.138069024E0,3.203427553E0,-1.175556183E1,-4.635921955E0
7.154734962E0,3.439669847E0,-1.573256493E1,-4.967756271E0
7.171400899E0,5.685505867E0,-1.881608963E1,-7.773824692E0
7.188066837E0,7.821289539E0,-1.717415428E1,-2.014894104E1
7.204732774E0,9.046520233E0,-1.368869305E1,-3.391913986E1
7.221398712E0,1.892662239E1,-1.806017303E1,-3.463933182E1
7.238064649E0,1.779592323E1,-1.779743385E1,-1.629199028E1
7.254730587E0,1.250069141E1,-1.768969345E1,6.966436386E0
7.271396524E0,5.225805283E0,-1.118509769E1,2.005376053E1
7.288062462E0,1.992127419E0,-3.901661634E0,1.016603756E1
7.304728399E0,4.691200256E0,1.597921848E-1,-4.617877960E0
7.321394337E0,5.649866104E0,4.404392242E-1,-5.880670547E0
7.338060274E0,6.085666656E0,-3.933093071E0,1.125391579E1
7.354726212E0,1.393949986E0,-5.621591568E0,2.636261749E1
7.371392149E0,-3.987192154E0,-1.488588810E0,2.079596710E1
7.388058087E0,-5.640109062E0,3.232576132E0,1.028222561E1
7.404724024E0,-5.601789474E0,5.983110428E0,1.636548042E0
7.421389962E0,-6.409763336E0,6.865345955E0,-2.073415279E0
7.438055899E0,-1.299568939E1,7.587047100E0,5.774154663E-1
7.454721837E0,-2.081948090E1,9.563823700E0,4.934253693E-1
7.471387774E0,-2.278967285E1,1.059465599E1,-5.041800022E0
7.488053712E0,-1.952052689E1,1.005897713E1,-4.187002182E0
7.504719649E0,-1.628216362E1,9.326805115E0,7.000369072E0
7.521385587E0,-1.475436115E1,6.954741955E0,1.709463120E1
7.538051524E0,-1.007529926E1,4.305385590E0,2.038818169E1
7.554717462E0,-1.575899839E0,7.593054771E-1,1.554104519E1
7.571383399E0,5.167481422E0,-2.576507807E0,8.235660553E0
7.588049337E0,7.152015209E0,-3.528820753E0,5.085007668E0
7.604715274E0,4.388870239E0,-4.807340145E0,6.094099998E0
7.621381212E0,-8.645657301E-1,-9.635031700E0,8.928207397E0
7.638047149E0,-1.954063654E0,-1.239178085E1,1.167814159E1
7.654713087E0,-1.517462134E-1,-1.216427135E1,5.928184509E0
7.671379024E0,1.557754755E0,-1.062231636E1,-1.610901833E0
7.688044962E0,2.958086252E0,-1.082032871E1,-3.361392498E0
7.704710899E0,3.361547470E0,-1.179872036E1,-1.020322800E0
7.721376837E0,5.808514595E0,-1.265546417E1,-2.086452961E0
7.738042774E0,7.893195152E0,-1.116083717E1,-1.165301514E1
7.754708712E0,1.133879280E1,-1.043199730E1,-2.151605606E1
7.771374649E0,1.468872452E1,-1.118894005E1,-2.287043190E1
7.788040587E0,1.471002865E1,-1.165416908E1,-1.095204353E1
7.804706524E0,1.254715347E1,-1.426030159E1,7.393265724E0
7.821372462E0,7.040435791E0,-1.158476067E1,1.817451859E1
7.838038399E0,3.144191027E0,-6.013283253E0,9.008890152E0
7.854704337E0,2.851805210E0,2.409219742E-2,-3.782011986E0
7.871370274E0,5.156293392E0,1.449830294E0,-3.815389156E0
7.888036212E0,6.121681213E0,-4.908584595E0,1.096385765E1
7.904702149E0,3.048994303E0,-8.215572357E0,2.738095093E1
7.921368087E0,-2.177673101E0,-2.525912046E0,2.293919754E1
7.938034024E0,-5.926191330E0,3.562996387E0,1.169939041E0
7.954699962E0,-7.131402493E0,5.975716114E0,-1.490607643E1
7.971365899E0,-6.954352379E0,3.563449144E0,-1.467658806E1
7.988031837E0,-9.694675446E0,4.744455814E-1,-8.628533363E0
8.004697774E0,-1.676419067E1,1.603601217E0,-7.095396519E0
8.021363712E0,-2.274930954E1,5.877491951E0,-1.326064301E1
8.038029649E0,-2.428287888E1,8.592546463E0,-1.679233551E1
8.054695587E0,-2.017218208E1,9.093179703E0,-7.721216202E0
8.071361524E0,-1.495666409E1,8.581930161E0,7.892469406E0
8.088027462E0,-1.219419956E1,7.263134003E0,1.743259430E1
8.104693399E0,-1.061685753E1,6.535672188E0,1.702123451E1
8.121359337E0,-6.332013130E0,4.807450294E0,1.252259731E1
8.138025274E0,7.393720150E-1,1.352342129E0,1.082653713E1
8.154691212E0,4.159028053E0,3.107142448E-1,1.147977257E1
8.171357149E0,2.296588659E0,-1.618469238E0,1.295053864E1
8.188023087E0,-7.492824793E-1,-4.891642094E0,1.354347515E1
8.204689024E0,-6.700156927E-1,-7.528318882E0,1.101399517E1
8.221354962E0,1.436748743E0,-1.045658684E1,5.330988884E0
8.238020899E0,2.336789131E0,-1.413493919E1,1.659805775E0
8.254686837E0,6.721775532E-1,-1.799889183E1,1.724396706E0
8.271352774E0,2.494400024E0,-2.123124886E1,-1.210843563E0
8.288018712E0,6.797784805E0,-2.031508636E1,-1.334964943E1
8.304684649E0,1.162615585E1,-1.734477615E1,-2.898336601E1
8.321350587E0,1.632614136E1,-1.563228416E1,-2.807481194E1
8.338016524E0,1.859277534E1,-1.642462730E1,-7.841373444E0
8.354682462E0,1.520766258E1,-1.551444626E1,9.991505623E0
8.371348399E0,9.782527924E0,-1.186915302E1,1.202975082E1
8.388014337E0,7.620991707E0,-7.285996914E0,-5.551362038E-1
8.404680274E0,9.998202324E0,-3.631069899E0,-1.316713715E1
8.421346212E0,1.335808468E1,-6.705786705E0,-9.051549911E0
8.438012149E0,1.071339226E1,-1.631199455E1,1.843575668E1
8.454678087E0,8.494515419E-1,-1.555949402E1,3.805811691E1
8.471344024E0,-7.239423752E0,-6.861317635E0,2.742678070E1
8.488009962E0,-9.139423370E0,-6.822431087E-2,8.287231445E0
8.504675899E0,-7.326747894E0,2.559581757E0,-2.275036812E0
8.521341837E0,-5.914649487E0,3.398640156E0,-1.761296749E0
8.538007774E0,-8.125736237E0,4.310000420E0,2.171000481E0
8.554673712E0,-1.509942245E1,7.108108044E0,3.077325821E0
8.571339649E0,-1.783636856E1,8.889362335E0,-4.699224472E0
8.588005587E0,-1.596538353E1,1.023160362E1,-6.329884529E0
8.604671524E0,-1.214201164E1,1.150810146E1,4.473789215E0
8.621337462E0,-1.484834671E1,1.191935825E1,1.456390381E1
8.638003399E0,-1.844972038E1,1.116846275E1,1.914570618E1
8.654669337E0,-1.662007904E1,9.318585396E0,1.905786133E1
8.671335274E0,-1.116182327E1,5.591219425E0,1.385492802E1
8.688001212E0,-4.541798115E0,1.135448694E0,1.147638702E1
8.704667149E0,-2.552217007E0,-1.711046219E0,9.232880592E0
8.721333087E0,-3.291825294E0,-5.052406311E0,9.240871429E0
8.737999024E0,9.462022781E-2,-1.476065254E1,1.492031574E1
8.754664962E0,5.105018616E-3,-1.791252708E1,2.226676369E1
8.771330899E0,2.069303513E0,-1.932572746E1,2.134524536E1
8.787996837E0,3.559307575E0,-1.742189789E1,7.141808510E0
8.804662774E0,5.356163979E0,-1.482547092E1,-2.713116169E0
8.821328712E0,8.044538498E0,-1.372237492E1,-8.206018448E0
8.837994649E0,6.229686260E0,-1.270763016E1,-1.719192123E1
8.854660587E0,3.701647758E0,-1.119623470E1,-2.402291870E1
8.871326524E0,4.595069885E0,-1.066468143E1,-2.111748505E1
8.887992462E0,6.474348545E0,-1.158467770E1,-1.398458099E1
8.904658399E0,7.426356792E0,-1.162485218E1,-7.104215622E0
8.921324337E0,7.337714672E0,-1.166195393E1,-3.995517254E0
8.937990274E0,7.588685036E0,-1.077889252E1,-1.983014107E0
8.954656212E0,9.979906082E0,-8.572019577E0,-1.781419277E0
8.971322149E0,1.115854263E1,-6.612946510E0,-6.250248909E0
8.987988087E0,7.959072590E0,-6.919508934E0,2.103188992E0
9.004654024E0,5.784853935E0,-7.666678429E0,2.374864197E1
9.021319962E0,4.696679592E0,-4.276470184E0,3.366181946E1
9.037985899E0,1.836973190E0,1.475656986E0,2.005487442E1
9.054651837E0,-2.112005949E0,7.213837624E0,-3.522705555E0
9.071317774E0,-6.771687984E0,9.465177536E0,-1.535496140E1
9.087983712E0,-8.788610458E0,8.113601685E0,-1.235755157E1
9.104649649E0,-1.000478363E1,6.908280849E0,-8.403748512E0
9.121315587E0,-1.382496452E1,6.149251461E0,-8.614076614E0
9.137981524E0,-1.690154839E1,5.491928577E0,-9.920609474E0
9.154647462E0,-1.866474533E1,4.664990425E0,-8.429219246E0
9.171313399E0,-1.815707397E1,2.931292057E0,-2.466567039E0
9.187979337E0,-1.621577835E1,-1.094057560E-1,5.096750259E0
9.204645274E0,-1.221481609E1,-3.669231653E0,9.193138123E0
9.221311212E0,-7.929251671E0,-6.516789913E0,7.188089371E0
9.237977149E0,-4.285192966E0,-7.745141506E0,3.251928329E0
9.254643087E0,-2.509269714E-1,-7.682225227E0,2.057752609E0
9.271309024E0,6.962872982E0,-1.096872711E1,2.250833511E0
9.287974962E0,1.887633705E1,-1.475878239E1,4.701736927E0
9.304640899E0,1.804257965E1,-1.196539497E1,1.223640823E1
9.321306837E0,6.062087536E0,-1.362395763E1,2.199793434E1
9.337972774E0,-2.290547132E0,-1.180340862E1,1.991007423E1
9.354638712E0,-1.127082586E0,-8.261376381E0,7.047981262E0
9.371304649E0,2.837327003E0,-3.680116415E0,-6.379785538E0
9.387970587E0,5.437751293E0,1.563699245E-1,-1.737039948E1
9.404636524E0,6.002990723E0,2.003816128E0,-1.849746895E1
9.421302462E0,4.136122704E0,2.539973259E-1,-1.134809685E1
9.437968399E0,9.009714127E-1,-3.684041262E0,-1.043756485E1
9.454634337E0,-5.447065830E0,-4.869629860E0,-9.898578644E0
9.471300274E0,-5.926026821E0,-5.488780975E0,2.792703152E0
9.487966212E0,-1.648032904E0,-6.215413094E0,1.856684494E1
9.504632149E0,2.613615990E-1,-4.600692749E0,2.008774948E1
9.521298087E0,-1.933233500E0,-1.158753872E0,8.755546570E0
9.537964024E0,-5.437112808E0,1.776196241E0,-1.516261101E0
9.554629962E0,-3.417549133E0,2.646137476E0,-2.304540634E0
9.571295899E0,-1.218971491E0,1.515092373E0,-1.667816639E0
9.587961837E0,-1.978277683E0,-3.593268394E-1,-3.373055935E0
9.604627774E0,-3.397938490E0,-2.510904074E0,-4.249590874E0
9.621293712E0,-2.093932390E0,-5.718113422E0,-2.651310921E0
9.637959649E0,4.492342949E0,-6.940469742E0,3.087417603E0
9.654625587E0,1.423831940E1,-1.292529774E1,5.463616848E0
9.671291524E0,1.051086903E1,-1.400681400E1,1.074679375E1
9.687957462E0,4.009685516E-1,-1.358392906E1,2.110986328E1
9.704623399E0,-6.396048546E0,-1.006254196E1,2.114282227E1
9.721289337E0,-5.300970078E0,-4.968541145E0,6.365782738E0
9.737955274E0,-1.186561584E-1,4.894757271E-1,-1.215411568E1
9.754621212E0,1.111457348E0,3.793809175E0,-2.595618820E1
9.771287149E0,-3.332087517E0,3.846245050E0,-1.878857803E1
9.787953087E0,-5.049287319E0,-7.016255856E-1,3.020924091E0
9.804619024E0,-1.345784426E0,-4.770156384E0,2.026649475E1
9.821284962E0,-6.770596504E-1,-4.929649353E0,2.000577927E1
9.837950899E0,-4.269425869E0,-3.879621029E0,1.246309757E1
9.854616837E0,-6.564667225E0,-4.693160057E0,6.871050835E0
9.871282774E0,-5.918160915E0,-6.819902420E0,3.466533661E0
9.887948712E0,-3.214895725E0,-8.628867149E0,1.868264198E0
9.904614649E0,1.236714363E0,-8.744909286E0,3.684605598E0
9.921280587E0,5.038515568E0,-8.298644066E0,2.749633789E-2
9.937946524E0,9.360864639E0,-7.636634827E0,-2.958184242E0
9.954612462E0,1.088332748E1,-8.142539024E0,5.557270527E0
9.971278399E0,2.705342293E0,-7.685766220E0,1.573028088E1
9.987944337E0,-8.373151779E0,-5.046548367E0,1.546343708E1
1.000461027E1,-1.351971245E1,-2.606154919E0,7.655510902E0
1.002127621E1,-1.263307571E1,-9.380667210E-1,-1.906954765E0
1.003794215E1,-1.042889977E1,3.765704632E-1,-9.377827644E0
1.005460809E1,-1.014509773E1,1.429118633E0,-1.123028755E1
1.007127402E1,-1.095180130E1,1.407896280E0,-8.463896751E0
1.008793996E1,-9.813129425E0,-3.974246979E-1,-5.423108101E0
1.010460590E1,-9.381900787E0,-2.473676443E0,-3.424604416E0
1.012127184E1,-9.354763031E0,-3.962191343E0,-1.000953674E0
1.013793777E1,-1.050271130E1,-4.921807766E0,1.202971935E0
1.015460371E1,-1.332568359E1,-5.991068840E0,5.697714806E0
1.017126965E1,-1.437804031E1,-7.642902851E0,1.167056847E1
1.018793559E1,-9.197815895E0,-9.753749847E0,1.197947693E1
1.020460152E1,-4.827189445E0,-7.692632675E0,4.616969109E0
1.022126746E1,-1.038770199E0,-4.319021225E0,4.025173187E-1
1.023793340E1,6.941537380E0,-3.617529392E0,6.122543812E0
1.025459934E1,1.324417114E1,-3.244386435E0,1.841759300E1
1.027126527E1,1.673148537E1,-6.203340530E0,2.645678520E1
1.028793121E1,1.522830963E1,-6.963459015E0,2.574660110E1
1.030459715E1,1.010255814E1,-6.730289459E0,1.916155624E1
1.032126309E1,3.305031776E0,-5.597943306E0,1.530821609E1
1.033792902E1,-8.130493164E-1,-4.307623863E0,1.306345272E1
1.035459496E1,-7.747321129E-1,-4.266262531E0,7.905385017E0
1.037126090E1,-7.380614281E-1,-3.193876982E0,1.465401649E0
1.038792684E1,-1.621817112E0,-1.786443233E0,-3.099545479E0
1.040459277E1,-1.675706387E0,-3.860235214E-2,-2.955368996E0
1.042125871E1,-9.686365128E-1,1.186963677E0,-2.862382889E0
1.043792465E1,-4.833282948E0,3.909210205E0,-5.269327164E0
1.045459059E1,-1.112605476E1,6.802814484E0,-5.186553478E0
1.047125652E1,-1.626581383E1,8.270297050E0,-1.155142784E-1
1.048792246E1,-1.870713997E1,7.189150810E0,1.052106857E1
1.050458840E1,-2.034828758E1,6.301760674E0,1.834507561E1
1.052125434E1,-1.924094009E1,6.013569832E0,1.739377594E1
1.053792027E1,-1.712366486E1,8.091497421E0,9.322611809E0
1.055458621E1,-1.612831688E1,9.471334457E0,2.448047161E0
1.057125215E1,-1.498386765E1,8.609720230E0,1.890049458E0
1.058791809E1,-1.311857986E1,6.237581730E0,6.454153538E0
1.060458402E1,-1.001922417E1,4.289987087E0,9.608570099E0
1.062124996E1,-5.826162815E0,4.208936214E0,7.320042610E0
1.063791590E1,-2.697026014E0,5.005612850E0,4.363075256E0
1.065458184E1,-1.036320448E0,4.676904202E0,7.654071808E0
1.067124777E1,-2.334245443E0,2.413445950E0,1.625972366E1
1.068791371E1,-1.682591438E0,-2.194436550E0,2.479251480E1
1.070457965E1,-1.535987854E-1,-6.012927055E0,2.493470383E1
1.072124559E1,2.268553734E0,-6.334331512E0,1.712859917E1
1.073791152E1,1.670096874E0,-7.194558620E0,9.755935669E0
1.075457746E1,-5.586606026E0,-8.914362907E0,1.000705624E1
1.077124340E1,-1.147943306E1,-1.390973854E1,1.177080631E1
1.078790934E1,-1.019181347E1,-1.863332367E1,3.886417389E0
1.080457527E1,-3.873377800E0,-2.195997620E1,-1.134253025E1
1.082124121E1,-1.121446848E0,-2.370143890E1,-1.799656296E1
1.083790715E1,-1.854736328E0,-2.793502617E1,-1.547366905E1
1.085457309E1,-2.648300648E0,-3.019522095E1,-1.517124271E1
1.087123902E1,2.391489983E0,-2.882223701E1,-1.961729813E1
1.088790496E1,1.229197693E1,-2.558529663E1,-1.666812706E1
1.090457090E1,2.102703285E1,-2.326971436E1,-3.726273060E0
1.092123684E1,2.985665703E1,-2.091341782E1,9.446928024E0
1.093790277E1,3.167276382E1,-1.731002617E1,1.384453583E1
1.095456871E1,2.973480988E1,-1.239787865E1,1.576472759E1
1.097123465E1,2.361150932E1,-6.250594616E0,1.252258301E1
1.098790059E1,1.617406845E1,1.040775776E-1,8.679875374E0
1.100456652E1,8.186142921E0,1.421782970E-1,8.315440178E0
1.102123246E1,-5.466017723E0,3.441762924E-2,8.415981293E0
1.103789840E1,-1.402478218E1,7.090840340E0,1.067877197E1
1.105456434E1,-1.597221184E1,1.997326851E1,1.305480766E1
1.107123027E1,-1.623382378E1,3.063143921E1,1.564126968E1
1.108789621E1,-1.789889145E1,3.200563049E1,3.178132248E1
1.110456215E1,-2.115718079E1,2.789474678E1,5.733999634E1
1.112122809E1,-2.068691254E1,2.083273697E1,6.433239746E1
1.113789402E1,-1.171111012E1,1.401294136E1,4.953332138E1
1.115455996E1,2.060128212E0,7.698425770E0,3.404115677E1
1.117122590E1,8.483061790E0,9.232771397E-1,2.805012512E1
1.118789184E1,9.703805923E0,-7.151107788E0,3.002000618E1
1.120455777E1,1.337234688E1,-1.351846313E1,3.181700516E1
1.122122371E1,1.953730011E1,-1.725821877E1,3.089990807E1
1.123788965E1,2.544054794E1,-2.232640266E1,2.502593422E1
1.125455559E1,2.213436127E1,-2.742896080E1,1.800094986E1
1.127122152E1,1.466660690E1,-3.079478264E1,1.438022995E1
1.128788746E1,7.263403416E0,-3.131320572E1,4.683552742E0
1.130455340E1,2.533890724E0,-3.260560989E1,-1.105662251E1
1.132121934E1,-1.535198450E0,-3.407695389E1,-2.465566063E1
1.133788527E1,-5.563400745E0,-3.436599731E1,-2.419402885E1
1.135455121E1,-5.580242634E0,-3.529225159E1,-1.337376976E1
1.137121715E1,-2.146942616E-1,-3.750823212E1,-1.134044456E1
1.138788309E1,1.618573904E0,-3.434045410E1,-2.178490639E1
1.140454902E1,4.934323311E0,-3.094400024E1,-2.697328758E1
1.142121496E1,8.965658188E0,-3.039038658E1,-1.734428406E1
1.143788090E1,9.438234329E0,-2.764779472E1,-1.531692028E0
1.145454684E1,8.024935722E0,-2.280008698E1,6.699513435E0
1.147121277E1,9.734624863E0,-1.766042519E1,1.068676472E1
1.148787871E1,1.390935707E1,-1.249753857E1,1.425688076E1
1.150454465E1,1.674467468E1,-8.328459740E0,1.762352180E1
1.152121059E1,1.067666435E1,-4.409664154E0,2.428069687E1
1.153787652E1,4.588055134E0,4.871311188E-1,2.995716286E1
1.155454246E1,-3.520879745E-1,7.934004784E0,2.597870064E1
1.157120840E1,-6.256912231E0,1.719840813E1,1.377211571E1
1.158787434E1,-1.211120319E1,2.271758080E1,9.267947197E0
1.160454027E1,-2.115810585E1,2.183570290E1,2.084722519E1
1.162120621E1,-2.508307838E1,2.106561661E1,4.023328400E1
1.163787215E1,-1.806194305E1,2.198398209E1,5.180266953E1
1.165453809E1,-8.660297394E0,2.427698326E1,4.364282608E1
1.167120402E1,-1.224440575E0,2.586241531E1,2.628459930E1
1.168786996E1,1.014354706E1,2.312411308E1,2.560304451E1
1.170453590E1,2.299008942E1,1.566586590E1,4.504631042E1
1.172120184E1,3.077842903E1,2.846314669E0,5.973303986E1
1.173786777E1,3.529603577E1,-1.347647572E1,5.743201065E1
1.175453371E1,3.703524399E1,-2.961555862E1,4.037182999E1
1.177119965E1,3.431751251E1,-4.111834717E1,2.228195572E1
1.178786559E1,2.468920135E1,-4.476747131E1,9.040208817E0
1.180453152E1,1.180539894E1,-4.481120682E1,1.360481262E0
1.182119746E1,-3.682350159E0,-4.819785690E1,-1.271782398E0
1.183786340E1,-1.319268513E1,-5.529508972E1,-3.420726299E0
1.185452934E1,-1.362391472E1,-5.944613647E1,-1.755797386E1
1.187119527E1,-1.405335426E1,-5.922699738E1,-2.842275620E1
1.188786121E1,-9.802463531E0,-6.170613861E1,-1.813541603E1
1.190452715E1,-5.736578941E0,-6.390989685E1,-1.361143303E1
1.192119309E1,-1.554503441E-1,-6.432534027E1,-1.789856339E1
1.193785902E1,1.274008942E1,-6.722722626E1,-1.164426517E1
1.195452496E1,2.517372131E1,-6.750975800E1,5.631198883E0
1.197119090E1,3.147632217E1,-6.420453644E1,1.424394608E1
1.198785684E1,4.405281067E1,-5.921487045E1,1.652531815E1
1.200452277E1,5.917444611E1,-4.830671692E1,2.703236008E1
1.202118871E1,6.650664520E1,-3.504930878E1,3.944362640E1
1.203785465E1,6.147301102E1,-2.036193085E1,4.511400986E1
1.205452059E1,5.694270325E1,-5.495764732E0,5.277724457E1
1.207118652E1,4.980082703E1,6.867072105E0,4.905681992E1
1.208785246E1,2.735812759E1,1.941429520E1,3.413867569E1
1.210451840E1,2.135289192E0,3.090107536E1,3.303081512E1
1.212118434E1,-4.554566383E0,3.670386887E1,4.554959488E1
1.213785027E1,-2.391335964E0,3.778741074E1,5.277198792E1
1.215451621E1,-1.068414688E0,3.771549225E1,4.465300369E1
1.217118215E1,2.569971085E-1,3.443795395E1,2.979839897E1
1.218784809E1,-3.321313858E-1,2.710970306E1,2.231676674E1
1.220451402E1,2.251718521E0,1.843860054E1,2.824556160E1
1.222117996E1,8.024006844E0,9.688129425E0,3.959922409E1
1.223784590E1,1.818425179E1,1.411086321E0,4.777769470E1
1.225451184E1,2.892432404E1,-7.630414009E0,4.657198715E1
1.227117777E1,4.015560532E1,-1.796832848E1,4.176461411E1
1.228784371E1,4.908314896E1,-3.118729973E1,3.728084564E1
1.230450965E1,4.727339554E1,-4.144160080E1,3.214607239E1
1.232117559E1,4.152586746E1,-4.840657425E1,2.596771812E1
1.233784152E1,3.010650253E1,-5.252348709E1,1.078673553E1
1.235450746E1,1.647669411E1,-5.120053864E1,-3.412143230E0
1.237117340E1,-1.045050621E-1,-4.849439621E1,-6.685480118E0
1.238783934E1,-1.383273029E1,-4.788931274E1,-3.719231606E0
1.240450527E1,-2.027549744E1,-5.056940079E1,-9.838654518E0
1.242117121E1,-2.541960144E1,-5.270705414E1,-2.112275505E1
1.243783715E1,-2.981888008E1,-5.755162811E1,-2.733005333E1
1.245450309E1,-3.278008270E1,-6.324637985E1,-3.074032211E1
1.247116902E1,-2.692879486E1,-7.050919342E1,-2.689232063E1
1.248783496E1,-4.319701195E0,-7.903603363E1,-3.953912020E0
1.250450090E1,1.571320724E1,-7.790776062E1,1.332828999E1
1.252116684E1,2.153319359E1,-7.179096222E1,1.284487247E1
1.253783277E1,2.903659821E1,-7.030319214E1,9.371654510E0
1.255449871E1,4.150814819E1,-6.607803345E1,1.698440170E1
1.257116465E1,5.748653412E1,-6.280108643E1,3.347351456E1
1.258783059E1,7.083898163E1,-4.846108627E1,4.640905380E1
1.260449652E1,7.167107391E1,-2.248832321E1,4.850476456E1
1.262116246E1,6.488312531E1,-1.041165352E0,4.676210022E1
1.263782840E1,3.600344086E1,1.132485676E1,3.982839966E1
1.265449434E1,1.088090992E1,2.223993301E1,2.986710930E1
1.267116027E1,2.454813004E0,3.051142883E1,3.089994431E1
1.268782621E1,-9.614601135E-1,3.496925354E1,3.458493042E1
1.270449215E1,-3.983726740E0,3.650136948E1,3.011795807E1
1.272115809E1,-4.448450089E0,3.428078079E1,2.558603668E1
1.273782402E1,-2.941413403E0,2.808799362E1,3.631511688E1
1.275448996E1,1.443808556E0,2.064183235E1,5.616293716E1
1.277115590E1,1.155309296E1,1.383471012E1,6.121237564E1
1.278782184E1,1.973633385E1,6.238091946E0,4.894576645E1
1.280448777E1,2.795573425E1,-2.872091055E0,3.748362732E1
1.282115371E1,3.673658752E1,-1.548115921E1,3.363104248E1
1.283781965E1,4.480548477E1,-2.995359993E1,3.621171188E1
1.285448559E1,5.523099518E1,-3.921250916E1,3.867303467E1
1.287115152E1,6.111635590E1,-5.071878815E1,3.299990845E1
1.288781746E1,5.022820663E1,-5.890956497E1,2.085750389E1
1.290448340E1,3.255300522E1,-6.231535339E1,1.243245316E1
1.292114934E1,1.518724537E1,-6.346480179E1,6.594332218E0
1.293781527E1,2.525024414E-1,-6.362981796E1,2.206382275E0
1.295448121E1,-1.218421268E1,-6.688582611E1,-3.207094193E0
1.297114715E1,-2.375253677E1,-6.868067169E1,-2.495769310E1
1.298781309E1,-4.335636520E1,-6.367462158E1,-4.540836334E1
1.300447902E1,-5.857282639E1,-6.010177612E1,-4.242655182E1
1.302114496E1,-4.995697784E1,-6.066156006E1,-2.018618011E1
1.303781090E1,-1.761778259E1,-6.360338974E1,4.332489967E0
1.305447684E1,8.087808609E0,-6.003296280E1,7.435714245E0
1.307114277E1,1.645043945E1,-5.346230698E1,5.246388316E-1
1.308780871E1,2.490588379E1,-4.952919769E1,1.486536980E0
1.310447465E1,3.725070190E1,-4.461751175E1,7.129302979E0
1.312114059E1,4.567974091E1,-4.471798325E1,1.717589760E1
1.313780652E1,5.172476959E1,-4.074277115E1,3.438389587E1
1.315447246E1,6.531182098E1,-2.642176437E1,4.213925171E1
1.317113840E1,6.466193390E1,-6.756859303E0,3.840087891E1
1.318780434E1,4.289462280E1,7.134456635E0,3.303478622E1
1.320447027E1,1.739459229E1,1.754455948E1,2.147013474E1
1.322113621E1,7.281202316E0,2.470484543E1,1.531038952E1
1.323780215E1,2.389362335E0,2.898857689E1,1.601104927E1
1.325446809E1,-3.627107143E0,3.101160622E1,1.738373947E1
1.327113402E1,-7.763158321E0,2.993211174E1,1.407733822E1
1.328779996E1,-6.771335602E0,2.918587875E1,1.586005402E1
1.330446590E1,-1.131062508E0,2.797887802E1,2.600847435E1
1.332113184E1,9.692955971E0,2.487642860E1,3.534709930E1
1.333779777E1,1.799439812E1,1.997936249E1,3.149531937E1
1.335446371E1,1.862120056E1,1.364845371E1,1.920508385E1
1.337112965E1,1.752532578E1,6.512502193E0,1.379228878E1
1.338779559E1,2.048140717E1,-2.502734661E0,1.622143173E1
1.340446152E1,2.915692139E1,-1.227944756E1,1.646259499E1
1.342112746E1,3.035520744E1,-2.134100914E1,1.297653484E1
1.343779340E1,2.553676796E1,-2.933654594E1,1.130908203E1
1.345445934E1,1.846644592E1,-3.437721252E1,1.171233940E1
1.347112527E1,1.387324142E1,-3.905015182E1,6.009143829E0
1.348779121E1,5.966397285E0,-4.057271576E1,2.660934925E-1
1.350445715E1,-8.779325485E0,-4.310042191E1,4.266754150E0
1.352112309E1,-2.371053314E1,-4.582070541E1,9.414607048E0
1.353778902E1,-2.891615486E1,-4.735977173E1,-4.216947556E0
1.355445496E1,-2.883000946E1,-4.456933594E1,-2.489301300E1
1.357112090E1,-2.566448784E1,-4.175570679E1,-3.136595154E1
1.358778684E1,-2.158989716E1,-3.848340607E1,-2.187810898E1
1.360445277E1,-1.198603249E1,-3.317584610E1,-1.282283974E1
1.362111871E1,3.465447426E0,-2.593015099E1,-2.678390503E0
1.363778465E1,2.178214645E1,-1.560883617E1,2.662613869E0
1.365445059E1,3.310148621E1,-3.239492893E0,6.683886051E0
1.367111652E1,3.113771629E1,7.609665871E0,1.417791367E1
1.368778246E1,4.278287506E1,1.517079926E1,3.426024628E1
1.370444840E1,5.757571793E1,2.323653603E1,5.446762085E1
1.372111434E1,5.196841049E1,2.699778938E1,3.816108704E1
1.373778027E1,3.137719345E1,2.246587563E1,1.547692966E1
1.375444621E1,1.826168442E1,1.387256718E1,9.129255295E0
1.377111215E1,1.089754391E1,1.374127388E0,6.536849976E0
1.378777809E1,2.542039871E0,-1.348107529E1,7.984291315E-1
1.380444402E1,-1.117715073E1,-2.632209015E1,-6.433964729E0
1.382110996E1,-2.745956039E1,-3.619892502E1,-1.257325554E1
1.383777590E1,-3.922095490E1,-4.177061844E1,-2.026329994E1
1.385444184E1,-4.680562592E1,-4.069142151E1,-3.106280899E1
1.387110777E1,-4.072980499E1,-4.246900940E1,-3.107786560E1
1.388777371E1,-4.673955917E0,-4.591957474E1,-1.253969193E1
1.390443965E1,2.504994965E1,-3.664041901E1,6.960957050E0
1.392110559E1,2.076777267E1,-2.379596901E1,2.184451294E1
1.393777152E1,2.079311180E1,-9.842313766E0,2.318346405E1
1.395443746E1,3.353844833E1,4.519098759E0,2.031985283E1
1.397110340E1,3.696536636E1,1.878373146E1,4.600195885E0
1.398776934E1,3.451435471E1,2.732631493E1,-4.581183910E0
1.400443527E1,2.809885788E1,2.497061157E1,2.177453995E0
1.402110121E1,1.880912781E1,1.420196629E1,9.671674728E0
1.403776715E1,1.523408890E1,4.256070137E0,1.277052307E1
1.405443309E1,1.911676025E1,-5.388355255E0,1.692774582E1
1.407109902E1,1.364874363E1,-1.577232742E1,1.532724667E1
1.408776496E1,4.994815826E0,-2.252679443E1,5.010195732E0
1.410443090E1,-1.754234791E0,-2.396290970E1,-4.611176491E0
1.412109684E1,-5.152396679E0,-2.321297646E1,-9.560437202E0
1.413776277E1,-9.837760925E0,-2.196269035E1,-1.366934586E1
1.415442871E1,-1.307128334E1,-2.062523842E1,-1.545687008E1
1.417109465E1,-1.350679016E1,-1.845744324E1,-1.439230442E1
1.418776059E1,-1.375716877E1,-1.612862968E1,-1.375683022E1
1.420442652E1,-1.435310650E1,-1.354953194E1,-1.417451572E1
1.422109246E1,-1.465585041E1,-1.154730320E1,-1.398616600E1
1.423775840E1,-9.009385109E0,-1.197508335E1,-9.498907089E0
1.425442434E1,3.410734653E0,-1.426728630E1,-5.147067070E0
1.427109027E1,1.137110519E1,-1.465749550E1,-7.285622954E-1
1.428775621E1,1.246870422E1,-1.491322136E1,1.038297558E1
1.430442215E1,1.268316460E1,-1.418270779E1,2.196129227E1
1.432108809E1,1.234560490E1,-1.065914440E1,2.229038239E1
1.433775402E1,1.156090641E1,-7.206343174E0,1.427250767E1
1.435441996E1,9.930963516E0,-4.767230034E0,7.320855141E0
1.437108590E1,9.363905907E0,-3.907727242E0,1.691485763E0
1.438775184E1,7.147657394E0,-3.893584013E0,-2.588744164E0
1.440441777E1,4.291413307E0,-5.355998039E0,-5.692623615E0
1.442108371E1,-2.429563046E0,-9.029493332E0,-1.032267094E1
1.443774965E1,-9.515797615E0,-1.012184143E1,-1.043783379E1
1.445441559E1,-1.424807549E0,-1.504945850E1,-9.822154045E-1
1.447108152E1,6.026436806E0,-1.970470619E1,8.555766106E0
1.448774746E1,6.503339767E0,-1.842219925E1,9.194824219E0
1.450441340E1,3.198574066E0,-1.511451244E1,6.155609131E0
1.452107934E1,3.753702164E0,-1.265062714E1,2.233934641E0
1.453774527E1,8.975781441E0,-1.022505665E1,2.004568577E-1
1.455441121E1,1.193583965E1,-6.972699165E0,-1.849845290E0
1.457107715E1,1.097434330E1,-3.595199585E0,-2.754550457E0
1.458774309E1,1.020912170E1,-7.291350365E-1,-2.093803883E0
1.460440902E1,1.137084579E1,2.455411673E0,-1.714079380E-1
1.462107496E1,1.273764133E1,6.801645756E0,9.184844494E-1
1.463774090E1,1.382560635E1,1.173140717E1,5.522301197E-1
1.465440684E1,1.503000927E1,1.726455688E1,1.047010899E0
1.467107277E1,1.550650024E1,2.195335770E1,3.598321915E0
1.468773871E1,1.664974213E1,2.493841553E1,6.244300842E0
1.470440465E1,1.856768036E1,2.447550774E1,4.274466991E0
1.472107059E1,2.004289246E1,2.052620125E1,-1.298975348E0
1.473773652E1,2.005604172E1,1.501484776E1,-5.479423523E0
1.475440246E1,1.831929398E1,9.972406387E0,-4.286505699E0
1.477106840E1,1.887224960E1,4.675534248E0,2.389335871E0
1.478773434E1,1.988709259E1,-7.031562924E-1,8.457951546E0
1.480440027E1,2.053178596E1,-7.513564110E0,8.601165771E0
1.482106621E1,1.824863243E1,-1.563269901E1,4.086324692E0
1.483773215E1,1.144457626E1,-2.185565186E1,-8.086310625E-1
1.485439809E1,4.049354553E0,-2.399812508E1,-2.804529428E0
1.487106402E1,-1.924354076E0,-2.524335098E1,-3.930772543E-1
1.488772996E1,-1.022758293E1,-2.671284103E1,3.580574274E0
1.490439590E1,-1.491424561E1,-3.139534760E1,5.103655815E0
1.492106184E1,-1.274860859E1,-3.961414337E1,5.364776134E0
1.493772777E1,-1.876445007E1,-4.291201019E1,4.944471359E0
1.495439371E1,-2.219358063E1,-4.857259369E1,3.957634211E0
1.497105965E1,-2.095826149E1,-5.202069855E1,-7.836484909E-2
1.498772559E1,-1.896077156E1,-5.434539795E1,-2.814079523E0
1.500439152E1,-1.073886967E1,-5.907484055E1,-1.604977965E0
1.502105746E1,6.174014091E0,-6.270723724E1,6.789731026E0
1.503772340E1,1.996774292E1,-6.029556656E1,1.740042114E1
1.505438934E1,2.895132828E1,-5.657038116E1,1.828276634E1
1.507105527E1,4.418037033E1,-5.691460037E1,1.511759281E1
1.508772121E1,6.031192398E1,-5.333134842E1,2.059769821E1
1.510438715E1,5.987294388E1,-4.178235626E1,2.826570320E1
1.512105309E1,6.508328247E1,-3.090729713E1,3.617246246E1
1.513771902E1,7.010945892E1,-1.354181194E1,4.309244156E1
1.515438496E1,6.897099304E1,2.025223255E0,5.189963150E1
1.517105090E1,5.054544449E1,1.668305969E1,5.195889282E1
1.518771684E1,2.572383881E1,3.479640961E1,3.522080231E1
1.520438277E1,1.916356659E1,4.612469482E1,2.969960403E1
1.522104871E1,1.694701004E1,4.419640732E1,4.696082306E1
1.523771465E1,5.385017395E0,3.757423782E1,7.130200195E1
1.525438059E1,1.700496674E-2,3.007975388E1,7.540815735E1
1.527104652E1,9.559976578E0,1.829989433E1,6.387068558E1
1.528771246E1,2.081655884E1,6.006420612E0,4.068724823E1
1.530437840E1,2.991796112E1,-3.809001923E0,2.493714523E1
1.532104434E1,3.801023102E1,-1.275535107E1,2.473783112E1
1.533771027E1,4.559320831E1,-2.366628265E1,3.403515625E1
1.535437621E1,5.437010956E1,-3.602445602E1,3.708704376E1
1.537104215E1,6.112194061E1,-4.699488449E1,2.248025894E1
1.538770809E1,5.259762573E1,-5.318029785E1,6.470338821E0
1.540437402E1,3.454061890E1,-5.797364426E1,1.307560444E0
1.542103996E1,1.106493473E1,-5.571462250E1,-2.902718306E0
1.543770590E1,-8.781015396E0,-5.169723511E1,-1.707891107E0
1.545437184E1,-2.034595108E1,-5.212614441E1,-6.872028708E-1
1.547103777E1,-3.203425980E1,-5.534804916E1,-3.004616499E-1
1.548770371E1,-4.360146332E1,-5.757564545E1,1.618899822E0
1.550436965E1,-4.100305939E1,-6.107223129E1,7.267689109E-1
1.552103559E1,-2.385180664E1,-6.393260193E1,-2.975648403E0
1.553770152E1,-7.800586224E0,-6.402047729E1,-5.952652931E0
1.555436746E1,2.710076332E0,-6.460712433E1,-2.419354200E0
1.557103340E1,1.884500694E1,-6.470198059E1,3.053373337E0
1.558769934E1,3.351123047E1,-6.054531479E1,6.782305717E0
1.560436527E1,4.377994537E1,-5.594188690E1,1.223626423E1
1.562103121E1,4.786315918E1,-4.940423203E1,2.197476768E1
1.563769715E1,5.234729767E1,-4.240714264E1,2.320377159E1
1.565436309E1,6.460214233E1,-3.275473785E1,2.603656387E1
1.567102902E1,6.923363495E1,-1.985819244E1,3.457478333E1
1.568769496E1,5.856847000E1,-4.365750313E0,4.635543823E1
1.570436090E1,3.706639862E1,6.699623585E0,4.426623535E1
1.572102684E1,1.432773781E1,1.511030293E1,3.178213120E1
1.573769277E1,-1.472300529E0,2.644207764E1,3.219191742E1
1.575435871E1,-2.551260471E0,3.661137390E1,4.482126999E1
1.577102465E1,9.390531540E0,4.242477036E1,5.355312729E1
1.578769059E1,2.457587814E1,4.331109619E1,4.798891068E1
1.580435652E1,2.305106354E1,3.844682693E1,2.744346619E1
1.582102246E1,1.429215431E1,2.977176666E1,1.649816513E1
1.583768840E1,1.379561520E1,1.910785294E1,2.216526985E1
1.585435434E1,1.898307228E1,8.488691330E0,3.310711670E1
1.587102027E1,3.014466858E1,-2.056287766E0,4.137330246E1
1.588768621E1,4.081826782E1,-1.246794891E1,3.679408264E1
1.590435215E1,4.837829971E1,-2.103004074E1,2.801217079E1
1.592101809E1,5.769998932E1,-2.893198776E1,2.373761749E1
1.593768402E1,5.618100739E1,-3.970746231E1,2.706285477E1
1.595434996E1,4.492038345E1,-5.110372162E1,2.454955292E1
1.597101590E1,3.023059082E1,-5.833655930E1,1.551197243E1
1.598768184E1,1.250293350E1,-6.028959274E1,3.286505699E0
1.600434777E1,-6.822361469E0,-5.872507477E1,-3.973153114E0
1.602101371E1,-2.322929955E1,-5.980452347E1,-7.561901569E0
1.603767965E1,-3.447158432E1,-6.384391785E1,-1.731804085E1
1.605434559E1,-3.994924164E1,-6.629574585E1,-2.182987976E1
1.607101152E1,-4.038621902E1,-6.886880493E1,-2.232551765E1
1.608767746E1,-3.811710739E1,-7.182941437E1,-2.309549904E1
1.610434340E1,-1.402513885E1,-7.946588135E1,-1.394953442E1
1.612100934E1,1.151735973E1,-8.123268127E1,-3.113749266E0
1.613767527E1,2.828761101E1,-7.595182037E1,2.647752047E0
1.615434121E1,3.708639145E1,-6.935025787E1,8.417314529E0
1.617100715E1,4.903697968E1,-6.417903137E1,1.178094101E1
1.618767309E1,6.284031677E1,-5.595323944E1,1.258724213E1
1.620433902E1,7.002818298E1,-4.727182007E1,1.929664421E1
1.622100496E1,7.231629181E1,-2.947523880E1,4.270709229E1
1.623767090E1,7.287977600E1,-7.425035477E0,4.271514511E1
1.625433684E1,6.148810577E1,6.420257568E0,2.283984375E1
1.627100277E1,3.051040268E1,1.224096107E1,1.576323128E1
1.628766871E1,3.178533554E0,1.962644768E1,2.656085968E1
1.630433465E1,-3.467468023E0,3.034458542E1,3.625649261E1
1.632100059E1,6.566546440E0,3.980889130E1,3.827973938E1
1.633766652E1,2.005530930E1,4.323550797E1,3.957060623E1
1.635433246E1,1.903388405E1,4.111061096E1,3.344286728E1
1.637099840E1,1.104673195E1,3.390495300E1,2.664120483E1
1.638766434E1,1.316125298E1,2.229248810E1,3.359109116E1
1.640433027E1,1.663934517E1,1.018939781E1,4.164514160E1
1.642099621E1,2.836215973E1,-2.909048557E0,4.175021362E1
1.643766215E1,4.295631409E1,-1.796828270E1,3.389289474E1
1.645432809E1,4.946388245E1,-2.912005806E1,2.476516342E1
1.647099402E1,4.571066666E1,-4.252917862E1,1.490113354E1
1.648765996E1,3.821918488E1,-5.013124084E1,5.942111015E0
1.650432590E1,2.632754135E1,-5.053850174E1,1.988674164E0
1.652099184E1,1.588163853E1,-5.128518295E1,5.852627754E-1
1.653765777E1,1.660603523E0,-4.863584518E1,-1.730333567E0
1.655432371E1,-1.610579300E1,-4.288433456E1,-4.438358784E0
1.657098965E1,-2.864189529E1,-4.077148438E1,-1.226169777E1
1.658765559E1,-3.209260941E1,-3.923504257E1,-2.542796898E1
1.660432152E1,-2.987572098E1,-3.815064240E1,-2.515124893E1
1.662098746E1,-3.137689590E1,-3.665564346E1,-2.141861343E1
1.663765340E1,-3.205185699E1,-3.544464111E1,-2.182230377E1
1.665431934E1,-2.126238632E1,-3.528369904E1,-1.979866791E1
1.667098527E1,-4.107968330E0,-3.373236847E1,-1.284125614E1
1.668765121E1,7.651880264E0,-2.982557678E1,-6.345966339E0
1.670431715E1,1.227687073E1,-2.579254341E1,2.923339605E-1
1.672098309E1,1.528159046E1,-2.061548424E1,5.376484394E0
1.673764902E1,2.640830803E1,-1.789476776E1,4.928521633E0
1.675431496E1,2.842636108E1,-1.630837440E1,-5.120581985E-1
1.677098090E1,3.684281158E1,-1.580735302E1,9.466516495E0
1.678764684E1,4.452738953E1,-1.077867031E1,3.174971199E1
1.680431277E1,4.077237320E1,1.029188871E0,3.711928558E1
1.682097871E1,2.443990707E1,8.284223557E0,2.483423615E1
1.683764465E1,5.585984230E0,1.393848991E1,1.289021683E1
1.685431059E1,-4.563609600E0,1.927803802E1,7.214512825E0
1.687097652E1,-6.167671204E0,2.299530602E1,4.337104797E0
1.688764246E1,-6.802526474E0,2.332169724E1,1.130585313E0
1.690430840E1,-6.130444527E0,2.081376648E1,2.073402405E-1
1.692097434E1,-3.552487850E0,1.808034897E1,3.441764355E0
1.693764027E1,-1.396265030E-1,1.543175220E1,8.916178703E0
1.695430621E1,5.618064880E0,1.248472023E1,1.340383816E1
1.697097215E1,5.976825714E0,8.773981094E0,1.439947605E1
1.698763809E1,2.558342934E0,5.586799622E0,1.266945267E1
1.700430402E1,1.538954735E0,2.764567852E0,1.195551109E1
1.702096996E1,1.994383812E0,-1.202102900E0,1.285440540E1
1.703763590E1,4.867467880E0,-9.156058311E0,1.195578861E1
1.705430184E1,4.912106514E0,-1.291067410E1,1.197592831E1
1.707096777E1,1.609118652E1,-1.526703644E1,1.617700386E1
1.708763371E1,2.224895668E1,-1.989061928E1,2.253797722E1
1.710429965E1,1.278275490E1,-2.060589981E1,2.070192719E1
1.712096559E1,1.953193665E0,-2.045312881E1,9.184719086E0
1.713763152E1,2.995147705E-1,-2.148355293E1,-3.573199987E0
1.715429746E1,-2.532080650E0,-2.385896111E1,-2.017826843E1
1.717096340E1,-1.565851212E1,-2.330249023E1,-3.177028465E1
1.718762934E1,-2.211286926E1,-2.186179352E1,-2.864869308E1
1.720429527E1,-2.014332008E1,-1.860835648E1,-2.143836594E1
1.722096121E1,-1.676931000E1,-1.413225746E1,-1.808950043E1
1.723762715E1,-1.417539024E1,-1.051735687E1,-1.426924801E1
1.725429309E1,-2.088539600E0,-5.775714397E0,3.091181278E0
1.727095902E1,1.056128407E1,-7.402095795E-1,2.902633095E1
1.728762496E1,2.011839676E1,3.900275469E0,3.667105484E1
1.730429090E1,2.253989983E1,5.471499443E0,2.417329216E1
1.732095684E1,1.555154896E1,6.018301964E0,7.853946686E0
1.733762277E1,1.096200562E1,4.248459339E0,-1.635755897E-1
1.735428871E1,4.145177841E0,9.079170227E-1,-9.880003333E-1
1.737095465E1,-3.343459129E0,-1.852784634E0,1.577729285E-1
1.738762059E1,-6.185809135E0,-4.388405323E0,2.577792406E0
1.740428652E1,-8.506660461E0,-5.515783310E0,4.026203156E0
1.742095246E1,-9.782974243E0,-5.729001999E0,3.412851334E0
1.743761840E1,-1.193175030E1,-5.038884163E0,3.722632647E0
1.745428434E1,-8.848611832E0,-3.591208458E0,7.238015652E0
1.747095027E1,-1.585368633E0,-4.148134232E0,1.125924301E1
1.748761621E1,9.750425339E0,-5.834081650E0,1.153886795E1
1.750428215E1,1.814275742E1,-4.231941223E0,1.147518444E1
1.752094809E1,1.953585052E1,-4.440938950E0,9.661717415E0
1.753761402E1,1.381417274E1,-5.544543266E0,2.378246784E0
1.755427996E1,7.609956741E0,-6.579857826E0,-5.292474270E0
1.757094590E1,1.014829636E0,-6.301759243E0,-1.106889057E1
1.758761184E1,-4.409786701E0,-5.984267235E0,-1.385023403E1
1.760427777E1,-9.764005661E0,-5.756456375E0,-1.134354591E1
1.762094371E1,-1.083358479E1,-5.898918152E0,-9.288057685E-1
1.763760965E1,-1.147299576E1,-5.498757839E0,1.258585072E1
1.765427559E1,-1.275522804E1,-5.123993874E0,2.012358093E1
1.767094152E1,-7.698577881E0,-4.427707195E0,1.882856560E1
1.768760746E1,1.451053619E-1,-2.305354595E0,1.216732025E1
1.770427340E1,4.315592766E0,4.169838428E-1,6.881158352E0
1.772093934E1,4.752944946E0,1.773435473E0,6.426460266E0
1.773760527E1,3.433167458E0,1.886587620E0,7.943995476E0
1.775427121E1,2.178503990E0,1.695715427E0,7.123079300E0
1.777093715E1,6.828613281E-1,1.732501626E0,3.656985760E0
1.778760309E1,-1.262744904E0,2.153148413E0,1.316323161E0
1.780426902E1,-3.337449551E0,2.766327620E0,1.545357347E0
1.782093496E1,-5.678950310E0,3.470150232E0,4.475045204E0
1.783760090E1,-5.609280586E0,4.661942482E0,6.721903801E0
1.785426684E1,-4.315032005E0,6.750286102E0,1.259439850E1
1.787093277E1,-5.461168289E-1,9.333550453E0,2.239584351E1
1.788759871E1,9.330115318E0,9.256040573E0,3.050723648E1
1.790426465E1,2.440321350E1,7.377992630E0,3.318229294E1
1.792093059E1,3.348154831E1,4.570974350E0,3.283731842E1
1.793759652E1,3.306617355E1,-1.454348803E0,2.599439430E1
1.795426246E1,2.434964752E1,-7.295815468E0,1.592682076E1
1.797092840E1,7.520624161E0,-1.208429623E1,8.325764656E0
1.798759434E1,-6.111315727E0,-1.705053711E1,3.319556236E0
1.800426027E1,-1.479020119E1,-2.285769653E1,-4.056313038E0
1.802092621E1,-2.145155716E1,-2.760446358E1,-1.050008106E1
1.803759215E1,-2.543999100E1,-3.047673416E1,-7.606884956E0
1.805425809E1,-2.519959259E1,-3.094213295E1,-5.787544250E0
1.807092402E1,-2.140884590E1,-2.942741966E1,-1.188739491E1
1.808758996E1,-1.410999298E1,-2.700241470E1,-1.921678925E1
1.810425590E1,-8.904279709E0,-2.308966064E1,-1.846840477E1
1.812092184E1,1.511290550E0,-1.944413567E1,-1.169297504E1
1.813758777E1,1.651708221E1,-1.508907127E1,-5.140713692E0
1.815425371E1,3.219205093E1,-8.205307007E0,-2.174143791E-1
1.817091965E1,4.650870514E1,2.643980980E-1,1.467642784E0
1.818758559E1,4.938043976E1,9.620633125E0,8.309485912E-1
1.820425152E1,4.733346939E1,1.624737930E1,4.259030342E0
1.822091746E1,3.949359131E1,1.849714088E1,1.231640244E1
1.823758340E1,1.930119705E1,1.979461288E1,1.375366974E1
1.825424934E1,2.054815292E0,2.435660934E1,1.415692997E1
1.827091527E1,2.069046974E0,2.897381592E1,1.268693542E1
1.828758121E1,1.057619858E1,3.129574776E1,1.176102924E1
1.830424715E1,1.643260193E1,3.157621002E1,1.377290344E1
1.832091309E1,1.519841766E1,3.215855789E1,1.572329330E1
1.833757902E1,1.589614010E1,3.100434303E1,2.405678177E1
1.835424496E1,2.063926125E1,2.619861221E1,3.707366562E1
1.837091090E1,2.745876694E1,1.771609306E1,4.474795532E1
1.838757684E1,3.134934616E1,8.594718933E0,4.124058533E1
1.840424277E1,3.756037140E1,-1.202054024E0,4.055063248E1
1.842090871E1,5.002486420E1,-1.195723915E1,4.479110336E1
1.843757465E1,6.516050720E1,-2.304870033E1,3.912411118E1
1.845424059E1,6.788710022E1,-3.551492310E1,2.527815628E1
1.847090652E1,6.172456360E1,-4.591381836E1,1.680641174E1
1.848757246E1,4.114876938E1,-5.222452164E1,2.411214828E1
1.850423840E1,2.181590652E1,-5.793439484E1,3.180420303E1
1.852090434E1,6.263075829E0,-6.533562469E1,2.047296143E1
1.853757027E1,-1.419658375E1,-6.968730164E1,2.560923100E0
1.855423621E1,-3.414618301E1,-7.213432312E1,-2.733711720E0
1.857090215E1,-5.374471664E1,-7.299005890E1,-3.427002430E0
1.858756809E1,-5.828791809E1,-7.539015198E1,-1.740997553E0
1.860423402E1,-3.407610703E1,-7.873803711E1,-4.580024242E0
1.862089996E1,1.440491676E0,-7.827123260E1,-9.031468391E0
1.863756590E1,1.929130936E1,-7.208181763E1,-1.045855618E1
1.865423184E1,2.681167984E1,-6.868579102E1,-8.809442520E0
1.867089777E1,4.178271103E1,-6.875008392E1,-3.416435719E0
1.868756371E1,5.868893433E1,-6.359172058E1,8.374615669E0
1.870422965E1,6.882600403E1,-4.925256348E1,1.969311523E1
1.872089559E1,7.226910400E1,-3.251018143E1,1.927372742E1
1.873756152E1,7.237372589E1,-1.521571636E1,1.370447254E1
1.875422746E1,6.623399353E1,-1.739004135E0,2.127127075E1
1.877089340E1,4.667407227E1,1.035092258E1,4.050043488E1
1.878755934E1,1.955852890E1,2.479861832E1,4.898129654E1
1.880422527E1,1.153665733E1,4.385244751E1,3.097681046E1
1.882089121E1,2.120968056E1,5.596396637E1,2.122892380E1
1.883755715E1,3.058375931E1,5.514825058E1,4.781518555E1
1.885422309E1,2.200724220E1,4.700048828E1,7.074270630E1
1.887088902E1,2.387656403E1,3.288283539E1,6.849662018E1
1.888755496E1,3.031915665E1,1.896634102E1,4.603705597E1
1.890422090E1,3.336136246E1,6.510744095E0,3.463500595E1
1.892088684E1,3.564004517E1,-7.297030449E0,4.007025909E1
1.893755277E1,4.524850464E1,-2.076133347E1,4.396216202E1
1.895421871E1,6.051988983E1,-3.358885574E1,3.776809692E1
1.897088465E1,6.330691528E1,-4.399092865E1,3.575730896E1
1.898755059E1,6.321327591E1,-5.519628906E1,3.751464081E1
1.900421652E1,5.442601013E1,-6.524790955E1,2.540668678E1
1.902088246E1,3.836234283E1,-6.677483368E1,9.418045044E0
1.903754840E1,1.674880219E1,-6.418252563E1,4.137432575E-1
1.905421434E1,-5.227021217E0,-6.138874435E1,-2.700317144E0
1.907088027E1,-2.671078682E1,-6.290233612E1,-4.240903854E0
1.908754621E1,-4.294244385E1,-6.713482666E1,-4.402569294E0
1.910421215E1,-5.300011063E1,-7.227462006E1,-4.974935055E0
1.912087809E1,-5.047214890E1,-7.814398956E1,-1.295904040E0
1.913754402E1,-3.059897995E1,-8.142977142E1,-2.042807341E-1
1.915420996E1,-9.028382301E0,-8.280500031E1,-2.541466236E0
1.917087590E1,1.058904076E1,-8.076196289E1,7.080150247E-1
1.918754184E1,3.080273628E1,-7.836907959E1,5.809872150E0
1.920420777E1,4.753876495E1,-7.594013977E1,1.549896431E1
1.922087371E1,5.811342621E1,-7.371102142E1,2.326269531E1
1.923753965E1,6.447489166E1,-7.055769348E1,3.958125687E1
1.925420559E1,7.192352295E1,-5.280883408E1,5.647171402E1
1.927087152E1,7.287377930E1,-2.490750122E1,4.631645203E1
1.928753746E1,7.219686127E1,-1.478046417E0,2.656723976E1
1.930420340E1,5.287119293E1,1.098364258E1,3.077873230E1
1.932086934E1,2.577655602E1,2.051980972E1,3.559477234E1
1.933753527E1,1.197970009E1,3.382509232E1,2.804635811E1
1.935420121E1,9.565176010E0,4.671515274E1,2.133943558E1
1.937086715E1,1.687007141E1,5.078220367E1,2.628566933E1
1.938753309E1,1.692771912E1,4.862339020E1,4.509238434E1
1.940419902E1,1.091494751E1,4.110729599E1,5.582239914E1
1.942086496E1,6.341015816E0,2.959606934E1,4.783925629E1
1.943753090E1,7.757828236E0,1.841829872E1,3.733288193E1
1.945419684E1,1.454275990E1,8.500113487E0,3.686727524E1
1.947086277E1,2.555306435E1,-1.267636299E0,4.591032028E1
1.948752871E1,4.066900635E1,-1.412884617E1,5.100511551E1
1.950419465E1,5.089582062E1,-2.818871689E1,4.219517136E1
1.952086059E1,6.069089508E1,-3.714330673E1,2.669018364E1
1.953752652E1,6.289777374E1,-4.641758728E1,2.211876678E1
1.955419246E1,5.132888031E1,-5.396451187E1,2.280423164E1
1.957085840E1,3.217688751E1,-5.869477081E1,2.113813400E1
1.958752434E1,1.595338726E1,-6.030613327E1,1.518225384E1
1.960419027E1,2.758415699E0,-6.013605118E1,6.991403580E0
1.962085621E1,-1.353859520E1,-5.900141907E1,-4.285466194E0
1.963752215E1,-3.217001343E1,-5.946393204E1,-1.621333313E1
1.965418809E1,-5.160705948E1,-5.779034805E1,-1.677636528E1
1.967085402E1,-4.908222198E1,-6.228412247E1,-6.729979515E0
1.968751996E1,-3.640854263E1,-6.332342911E1,-2.153553486E0
1.970418590E1,-2.395368576E1,-6.227761841E1,-7.123461723E0
1.972085184E1,-1.195776653E1,-6.364844131E1,-7.295663357E0
1.973751777E1,5.177076340E0,-6.618267059E1,3.049168348E0
1.975418371E1,2.333122253E1,-6.390742493E1,1.421942234E1
1.977084965E1,4.154249573E1,-5.633595276E1,2.479388809E1
1.978751559E1,5.073963165E1,-4.344187164E1,1.906138802E1
1.980418152E1,6.719099426E1,-3.314542389E1,4.710127354E0
1.982084746E1,7.092588806E1,-2.075872231E1,4.838647366E0
1.983751340E1,6.770682526E1,-8.575784683E0,2.765744019E1
1.985417934E1,4.981217957E1,6.208291531E0,3.813625336E1
1.987084527E1,3.046937370E1,1.428990936E1,2.295563507E1
1.988751121E1,8.898478508E0,1.946087265E1,1.061916924E1
1.990417715E1,-2.401790142E0,2.185758591E1,1.272913837E1
1.992084309E1,-5.856166840E0,2.210729599E1,2.003128624E1
1.993750902E1,-7.729733467E0,2.217536354E1,2.277265930E1
1.995417496E1,-5.834716797E0,2.262738609E1,1.997224426E1
1.997084090E1,-5.004500389E0,2.111883163E1,1.490026474E1
1.998750684E1,-5.402447701E0,1.901005745E1,1.397937107E1
2.000417277E1,-1.160449028E0,1.761538315E1,1.551881409E1
2.002083871E1,1.206186199E1,1.600258446E1,1.598989487E1
2.003750465E1,2.565496635E1,1.197825146E1,1.539623833E1
2.005417059E1,3.039858246E1,5.595140934E0,1.336768627E1
2.007083652E1,2.384326744E1,-7.626308799E-1,9.782937050E0
2.008750246E1,1.847620392E1,-9.787564278E0,7.811207771E0
2.010416840E1,1.705986977E1,-2.014722633E1,5.391417027E0
2.012083434E1,8.908679962E0,-2.420034981E1,3.356423378E-1
2.013750027E1,4.129555702E0,-2.434082413E1,-1.668007016E0
2.015416621E1,2.621132851E0,-2.570948029E1,-2.785760760E-1
2.017083215E1,-2.349678040E0,-2.447780037E1,2.990094185E0
2.018749809E1,-7.305988789E0,-2.415696716E1,4.311347008E0
2.020416402E1,-1.125519562E1,-2.475311279E1,2.098679066E0
2.022082996E1,-1.191685009E1,-2.545233536E1,-2.332888126E0
2.023749590E1,-1.446275711E1,-2.503426361E1,-9.759971619E0
2.025416184E1,-2.255147552E1,-2.394753647E1,-1.741094780E1
2.027082777E1,-2.842591476E1,-2.385832214E1,-1.788863564E1
2.028749371E1,-2.152681732E1,-2.515605545E1,-9.805459976E0
2.030415965E1,-7.797269821E0,-2.427372551E1,-3.144326687E0
2.032082559E1,1.116764069E0,-2.033295822E1,1.014736295E0
2.033749152E1,3.693458557E0,-1.580281353E1,1.240972638E0
2.035415746E1,9.454943657E0,-1.070416641E1,-1.784340143E-1
2.037082340E1,2.030736160E1,-6.181046009E0,-2.930418253E-1
2.038748934E1,2.645133591E1,-5.345333576E0,2.874468565E0
2.040415527E1,2.149337196E1,-1.886061668E0,9.056833267E0
2.042082121E1,2.289300346E1,1.107711792E0,1.553593063E1
2.043748715E1,2.698098183E1,4.907035351E0,2.650926590E1
2.045415309E1,2.631059265E1,9.170287132E0,3.035446548E1
2.047081902E1,1.853138733E1,8.647732735E0,2.124528122E1
2.048748496E1,1.558792114E0,8.265260696E0,9.037144661E0
2.050415090E1,-1.052108383E1,9.151924133E0,-5.589990020E-1
2.052081684E1,-1.418614769E1,9.850292206E0,-5.026033878E0
2.053748277E1,-1.570223808E1,8.806618690E0,-6.767179966E0
2.055414871E1,-1.939850807E1,5.883688927E0,-6.282377720E0
2.057081465E1,-2.092320824E1,3.499679089E0,-1.124673367E0
2.058748059E1,-1.840253067E1,9.432444572E-1,5.133359909E0
2.060414652E1,-1.140656090E1,-8.454279900E-1,8.288385391E0
2.062081246E1,-2.727934837E0,-3.667702675E0,8.813016891E0
2.063747840E1,2.409176826E0,-1.880040646E0,9.732625961E0
2.065414434E1,2.083745575E1,-8.502817154E0,5.278769016E0
2.067081027E1,3.050380325E1,-8.581428528E0,1.561475754E0
2.068747621E1,3.322965622E1,-8.920760155E0,7.736446381E0
2.070414215E1,2.361454391E1,-1.184175110E1,8.813736916E0
2.072080809E1,4.422276497E0,-1.154871941E1,4.034759521E0
2.073747402E1,-1.778996944E0,-1.088668823E1,-5.057753086E0
2.075413996E1,2.374117374E0,-9.174619675E0,-9.272680283E0
2.077080590E1,5.212525845E0,-7.727802277E0,-1.169557571E1
2.078747184E1,3.680047989E0,-5.794729233E0,-1.413012314E1
2.080413777E1,3.156303883E0,-5.785293102E0,-1.364682388E1
2.082080371E1,3.344632626E0,-6.714767456E0,-7.586873055E0
2.083746965E1,1.264051914E0,-7.058284760E0,-4.600891113E0
2.085413559E1,-2.761669159E0,-7.588860512E0,-6.215669632E0
2.087080152E1,-1.165491581E0,-8.656990051E0,-1.728931427E0
2.088746746E1,1.311127424E0,-1.051590443E1,1.024308395E1
2.090413340E1,2.228379011E0,-9.147714615E0,2.104145432E1
2.092079934E1,3.340010405E0,-7.906400204E0,2.073139191E1
2.093746527E1,1.752243280E0,-5.818924427E0,1.066487503E1
2.095413121E1,-6.878829002E-2,-3.568667650E0,-6.254615784E-1
2.097079715E1,3.977212906E-1,-2.151508093E0,-9.243562698E0
2.098746309E1,-6.126642227E-3,-1.318340540E0,-1.125029182E1
2.100412902E1,-2.314041376E0,-1.715177059E0,-8.907524109E0
2.102079496E1,-4.377155304E0,-2.099585772E0,-5.318268776E0
2.103746090E1,-6.120851517E0,-2.867567539E0,-2.557561398E0
2.105412684E1,-6.478600502E0,-3.940584660E0,-6.417617798E-1
2.107079277E1,-6.028010368E0,-5.009109497E0,1.075683594E0
2.108745871E1,-7.825661659E0,-1.770004272E0,1.017739296E0
2.110412465E1,-8.193601608E0,-2.112457037E0,1.606492043E0
2.112079059E1,-5.540596962E0,-1.437873125E0,4.365626335E0
2.113745652E1,1.017767549E0,-4.057817936E0,7.193605423E0
2.115412246E1,3.907396078E0,-4.885630131E0,1.125349236E1
2.117078840E1,4.010921001E0,-5.540494442E0,1.576927280E1
2.118745434E1,3.572918415E0,-6.894970894E0,1.633356857E1
2.120412027E1,2.617219687E0,-6.379146099E0,1.064530945E1
2.122078621E1,1.732048988E0,-5.080982685E0,2.417613983E0
2.123745215E1,1.550016403E0,-4.192468166E0,-4.232608318E0
2.125411809E1,2.014008045E0,-3.765903473E0,-7.284401894E0
2.127078402E1,2.792330742E0,-3.822712421E0,-6.387390137E0
2.128744996E1,3.433265209E0,-4.018365860E0,-2.955939293E0
2.130411590E1,3.102331161E0,-4.119369507E0,-4.351062775E-1
2.132078184E1,2.388398170E0,-3.875022411E0,5.270509720E-1
2.133744777E1,1.717519164E0,-3.421368599E0,-2.366924286E-2
2.135411371E1,1.878469467E0,-3.799643040E0,-3.416852951E-1
2.137077965E1,2.232256889E0,-3.495090008E0,-2.671375275E-1
2.138744559E1,2.693010807E0,-2.785460711E0,6.783370972E-1
2.140411152E1,2.708082199E0,-2.495048761E0,3.718583107E0
2.142077746E1,3.474064827E0,-2.712642193E0,5.372943878E0
2.143744340E1,4.407818794E0,-2.831701756E0,4.099818230E0
2.145410934E1,4.084943295E0,-2.666400194E0,8.971605301E-1
2.147077527E1,2.409015417E0,-2.704418659E0,-8.017268181E-1
2.148744121E1,7.370300293E-1,-3.762718916E0,2.509394646E0
2.150410715E1,9.264644384E-1,-2.244080782E0,3.997548103E0
2.152077309E1,2.150359631E0,-2.738824844E0,3.460307121E0
2.153743902E1,2.584228992E0,-2.168854475E0,1.520810127E0
2.155410496E1,2.153958321E0,-2.063755751E0,-7.224674225E-1
2.157077090E1,1.377072573E0,-2.038075447E0,-2.350447178E0
2.158743684E1,8.507404327E-1,-2.508798122E0,-3.578535080E0
2.160410277E1,1.389410138E0,-2.057770491E0,-7.045412064E-1
2.162076871E1,1.045944333E0,-1.784390688E0,1.154006958E0
2.163743465E1,2.521275282E-1,-1.453435183E0,1.007598877E0
2.165410059E1,1.083526611E-1,-1.188949347E0,-1.486978531E-1
2.167076652E1,5.911244154E-1,-8.847284317E-1,-1.214769840E0
2.168743246E1,8.894504309E-1,-9.024343491E-1,-1.540789127E0
2.170409840E1,7.833666801E-1,-1.374879599E0,-3.088026047E-1
2.172076434E1,-4.401422739E-1,-6.550481319E-1,7.456760406E-1
2.173743027E1,-9.515851736E-1,-1.608725309E0,9.064226151E-1
2.175409621E1,-1.164319038E0,-1.527110577E0,-7.274532318E-2
2.177076215E1,-9.134892225E-1,-1.516037464E0,-6.274256706E-1
2.178742809E1,-8.402372599E-1,-1.368679285E0,-7.986660004E-1
2.180409402E1,-9.753865004E-1,-1.262940884E0,-8.437128067E-1
2.182075996E1,-1.142243743E0,-1.165295362E0,-5.028891563E-1
2.183742590E1,-1.143071771E0,-9.570128918E-1,-3.973155022E-1
2.185409184E1,-1.062086940E0,-5.628376007E-1,-9.540572166E-1
2.187075777E1,-9.548071623E-1,-5.088572502E-1,-1.020353794E0
2.188742371E1,-1.150677085E0,-3.347210884E-1,-3.246593475E-2
2.190408965E1,-1.008085370E0,-3.965716362E-1,5.664062500E-2
2.192075559E1,-4.389050007E-1,-3.470120430E-1,-3.470134735E-2
2.193742152E1,-2.466194630E-1,-2.450547218E-1,1.898641586E-1
2.195408746E1,-5.627359152E-1,-2.011761665E-1,4.171085358E-1
2.197075340E1,-6.044484377E-1,-1.095848083E-1,6.142988205E-1
2.198741934E1,-4.302531481E-1,5.928373337E-2,5.388574600E-1
2.200408527E1,-1.953396797E-1,1.932773590E-1,5.119447708E-1
2.202075121E1,-1.051008701E-1,3.675689697E-1,2.590017319E-1
2.203741715E1,-3.054242134E-1,3.561854362E-1,1.808395386E-1
2.205408309E1,-3.161725998E-1,3.996963501E-1,1.925039291E-1
2.207074902E1,-3.321466446E-1,3.835573196E-1,4.342498779E-1
2.208741496E1,-4.904699326E-2,4.574084282E-1,3.738031387E-1
2.210408090E1,1.794836521E-1,4.650254250E-1,1.519889832E-1
2.212074684E1,-1.695499420E-1,3.167905807E-1,-1.825256348E-1
2.213741277E1,-4.274505377E-1,2.923884392E-1,-2.316217422E-1
2.215407871E1,-6.033779383E-1,2.705163956E-1,-1.364573479E0
2.217074465E1,2.931547165E-1,-8.859968185E-2,-4.176573753E-1
2.218741059E1,8.279728889E-1,1.032705307E-1,2.142428398E0
2.220407652E1,6.859922409E-2,2.723345757E-1,1.822239876E0
2.222074246E1,-1.835842133E-1,3.283095360E-1,9.815788269E-2
2.223740840E1,-5.623897314E-1,3.517227173E-1,-1.646320820E0
