"Time (s)","Acceleration x (m/s^2)","Acceleration y (m/s^2)","Acceleration z (m/s^2)"
7.858343000E-3,-4.587339878E0,6.639783859E0,5.532804012E0
2.452428100E-2,-4.119244099E0,6.492924213E0,6.870990276E0
4.119021800E-2,-3.774378538E0,6.256632805E0,7.445865631E0
5.785615600E-2,-3.889533281E0,6.408876419E0,6.679265499E0
7.452209300E-2,-4.035196304E0,6.671189308E0,5.596513271E0
9.118803100E-2,-4.035196304E0,6.812664986E0,4.935794830E0
1.078539680E-1,-3.888037682E0,6.713063717E0,4.777868748E0
1.245199060E-1,-3.800101519E0,6.641279221E0,5.240880013E0
1.411858430E-1,-3.647558928E0,6.597909451E0,6.018846035E0
1.578517810E-1,-3.775275946E0,6.749255180E0,6.187839508E0
1.745177180E-1,-4.073182583E0,6.992425919E0,5.851049423E0
1.911836560E-1,-4.166801453E0,7.077969551E0,5.718247890E0
2.078495930E-1,-4.140779495E0,6.981658459E0,5.922235966E0
2.245155310E-1,-4.067798615E0,6.791429043E0,6.025426388E0
2.411814680E-1,-4.103092670E0,6.780362129E0,6.067300797E0
2.578474060E-1,-4.090829372E0,6.876374245E0,5.812465191E0
2.745133430E-1,-4.154538155E0,7.007979393E0,5.375475883E0
2.911792810E-1,-4.208675861E0,7.156334400E0,5.341079235E0
3.078452180E-1,-4.405186653E0,7.451848030E0,5.287240505E0
3.245111560E-1,-4.792823792E0,8.225327492E0,5.071587563E0
3.411770930E-1,-4.662415028E0,8.786145210E0,4.970490932E0
3.578430310E-1,-3.323630571E0,8.051250458E0,3.737289906E0
3.745089680E-1,-2.232204437E0,7.250551701E0,3.097508907E0
3.911749060E-1,-2.102393866E0,6.907480717E0,3.830310822E0
4.078408430E-1,-2.611466885E0,6.784848690E0,6.361319065E0
4.245067810E-1,-2.604288340E0,6.324230194E0,7.706085205E0
4.411727180E-1,-2.338984251E0,5.944369793E0,8.923434258E0
4.578386560E-1,-2.752942562E0,6.340082645E0,9.140283585E0
4.745045930E-1,-1.453938842E0,5.168796062E0,9.577571869E0
4.911705310E-1,-2.927319288E0,6.256034851E0,9.128319740E0
5.078364680E-1,-1.863709688E0,5.668895721E0,8.959027290E0
5.245024060E-1,-1.187737346E0,6.083452702E0,9.968798637E0
5.411683430E-1,-2.116750717E0,7.268497944E0,8.051250458E0
5.578342810E-1,-1.167697430E0,5.487041473E0,7.094120979E0
5.745002180E-1,1.420738459E0,3.425026417E0,7.244270325E0
5.911661560E-1,2.182553291E0,3.633501291E0,5.998507500E0
6.078320930E-1,2.178365946E0,3.333501101E0,6.009274960E0
6.244980310E-1,2.849552631E0,2.681157827E0,8.428119659E0
6.411639680E-1,1.495215058E0,3.431307554E0,8.916554451E0
6.578299060E-1,1.350748420E0,3.444767237E0,8.647361755E0
6.744958430E-1,9.580263495E-1,2.918047190E0,8.356036186E0
6.911617810E-1,1.010967612E0,2.873480797E0,9.780961990E0
7.078277180E-1,7.142575383E-1,3.125624657E0,1.005643559E1
7.244936560E-1,1.125523925E0,3.372085333E0,1.051047325E1
7.411595930E-1,1.045364380E0,4.055834293E0,9.907182693E0
7.578255310E-1,5.928218365E-1,4.590032101E0,8.906385422E0
7.744914680E-1,3.101696372E-1,5.134399414E0,9.099306107E0
7.911574060E-1,1.253240824E0,4.531706810E0,9.215357780E0
8.078233430E-1,1.288534999E0,4.350151539E0,8.316853523E0
8.244892810E-1,6.957131624E-1,4.756931305E0,8.631808281E0
8.411552180E-1,9.248259664E-1,5.377569675E0,9.138788223E0
8.578211560E-1,1.002592683E0,6.188736439E0,9.431609154E0
8.744870930E-1,1.257727385E0,5.901299000E0,1.029182911E1
8.911530310E-1,1.390828192E-1,4.800002098E0,1.096929741E1
9.078189680E-1,-2.931207791E-2,4.168296814E0,1.116760254E1
9.244849060E-1,-2.156531364E-1,4.118346691E0,1.138504982E1
9.411508430E-1,-1.304088354E0,4.157230377E0,1.071775150E1
9.578167810E-1,-2.315055847E0,4.823631287E0,9.525228500E0
9.744827180E-1,-2.292922258E0,4.972285271E0,9.630213737E0
9.911486560E-1,-1.813759565E0,5.090431213E0,1.014317513E1
1.007814593E0,-1.648953915E0,4.675276279E0,1.012403297E1
1.024480531E0,-1.870589137E0,4.101896286E0,1.003101158E1
1.041146468E0,-2.265404940E0,3.751048565E0,1.028853893E1
1.057812406E0,-2.727817774E0,3.436392307E0,1.042792130E1
1.074478343E0,-2.650051117E0,3.117249727E0,9.690333366E0
1.091144281E0,-2.222334146E0,3.093919754E0,8.504390717E0
1.107810218E0,-2.031207323E0,3.130410194E0,7.673183918E0
1.124476156E0,-1.922034740E0,3.111566782E0,7.648956776E0
1.141142093E0,-1.878963947E0,3.037090063E0,7.724928856E0
1.157808031E0,-1.649552107E0,2.953939438E0,7.677670479E0
1.174473968E0,-1.644766450E0,3.080160856E0,7.707581043E0
1.191139906E0,-2.015055656E0,3.417548895E0,7.994420528E0
1.207805843E0,-2.105384827E0,3.656532049E0,8.848059654E0
1.224471781E0,-1.783849239E0,3.762713671E0,1.001186943E1
1.241137718E0,-1.737787485E0,3.786941051E0,1.015543842E1
1.257803656E0,-1.862513304E0,4.065405846E0,9.619147301E0
1.274469593E0,-1.700698733E0,4.621438026E0,8.816354752E0
1.291135531E0,-1.268794179E0,4.234996796E0,8.411070824E0
1.307801468E0,-9.867402315E-1,4.172484398E0,8.644371033E0
1.324467406E0,-1.095314622E0,3.997808456E0,8.886942863E0
1.341133343E0,-1.197009563E0,3.680161238E0,8.910871506E0
1.357799281E0,-1.287338614E0,3.820739508E0,8.566903114E0
1.374465218E0,-1.231107235E0,4.028615952E0,8.415556908E0
1.391131156E0,-1.017547846E0,4.123132706E0,8.524131775E0
1.407797093E0,-1.174277663E0,4.113860130E0,8.849854469E0
1.424463031E0,-1.223031521E0,3.905086517E0,8.855537415E0
1.441128968E0,-1.072881818E0,3.780659676E0,8.952746391E0
1.457794906E0,-1.057328463E0,4.095614910E0,9.251549721E0
1.474460843E0,-9.756734371E-1,4.295116425E0,9.403194427E0
1.491126781E0,-7.719843984E-1,4.296313286E0,9.241379738E0
1.507792718E0,-5.644070506E-1,4.356731892E0,8.782556534E0
1.524458656E0,-6.846463680E-1,4.408177376E0,8.468797684E0
1.541124593E0,-1.101595759E0,4.595116615E0,8.384151459E0
1.557790531E0,-1.189531922E0,4.703989983E0,8.709276199E0
1.574456468E0,-9.427721500E-1,4.683053017E0,9.334700584E0
1.591122406E0,-9.975079298E-1,4.673481941E0,9.411869049E0
1.607788343E0,-1.034596682E0,4.717749119E0,8.891429901E0
1.624454281E0,-8.135597110E-1,4.864309311E0,8.459824562E0
1.641120218E0,-8.925228715E-1,4.886143684E0,8.067102432E0
1.657786156E0,-1.010967612E0,4.730909348E0,8.220541954E0
1.674452093E0,-9.430712461E-1,4.628017902E0,8.634799957E0
1.691118031E0,-1.210469127E0,4.663910389E0,8.792725563E0
1.707783968E0,-9.625129104E-1,4.921138763E0,8.823832512E0
1.724449906E0,-6.005984545E-1,4.924727917E0,8.643174171E0
1.741115843E0,-6.424728632E-1,4.905884743E0,8.502297401E0
1.757781781E0,-5.844469070E-1,5.000102043E0,8.532505989E0
1.774447718E0,-3.930211067E-1,5.210670471E0,8.291130066E0
1.791113656E0,-7.148557901E-1,5.337789059E0,8.125726700E0
1.807779593E0,-1.044167995E0,5.329414368E0,8.156534195E0
1.824445531E0,-1.040279627E0,5.239982605E0,8.293522835E0
1.841111468E0,-5.599204898E-1,5.087141037E0,8.446065903E0
1.857777406E0,-4.863412082E-1,4.947759151E0,8.347361565E0
1.874443343E0,-8.679963946E-1,4.962714195E0,7.893921852E0
1.891109281E0,-8.171489239E-1,5.093721390E0,7.515556812E0
1.907775218E0,-6.993024349E-1,5.126323223E0,7.683054447E0
1.924441156E0,-9.675976634E-1,5.002793789E0,8.298009872E0
1.941107093E0,-1.365703583E0,4.886143684E0,8.938688278E0
1.957773031E0,-1.177567840E0,4.966602325E0,9.446864128E0
1.974438968E0,-8.126623631E-1,5.162514687E0,9.075976372E0
1.991104906E0,-4.528416991E-1,5.196911812E0,8.405088425E0
2.007770843E0,-4.178466499E-1,5.076971531E0,8.461020470E0
2.024436781E0,2.243271172E-1,5.204090118E0,8.044370651E0
2.041102718E0,5.374878049E-1,4.989932537E0,8.672785759E0
2.057768656E0,-2.249253243E-1,4.951946259E0,9.131608963E0
2.074434593E0,-3.290131316E-2,4.828716278E0,8.831609726E0
2.091100531E0,3.864408433E-1,4.846064091E0,8.617451668E0
2.107766468E0,5.665007830E-1,4.810471058E0,8.340781212E0
2.124432406E0,2.018944174E-1,4.601995945E0,7.611867905E0
2.141098343E0,-1.576271951E-1,4.522434711E0,8.009076118E0
2.157764281E0,-5.623133108E-2,4.603491783E0,8.439186096E0
2.174430218E0,-2.763710022E-1,4.704887390E0,8.891729355E0
2.191096156E0,-9.433703423E-1,4.846961498E0,8.617451668E0
2.207762093E0,-9.305089116E-1,4.943571568E0,8.381459236E0
2.224428031E0,-4.755735099E-1,5.080859661E0,8.390731812E0
2.241093968E0,-2.033899277E-1,5.331208706E0,8.406883240E0
2.257759906E0,7.776673418E-3,5.420341492E0,8.402995110E0
2.274425843E0,7.896314561E-2,5.581258774E0,8.599505424E0
2.291091781E0,-1.812563092E-1,5.720341682E0,9.030811310E0
2.307757718E0,-4.767699242E-1,5.819643974E0,9.493523598E0
2.324423656E0,-3.337987661E-1,5.903990746E0,9.617651939E0
2.341089593E0,-3.589234129E-2,5.928217888E0,9.396614075E0
2.357755531E0,-2.781656384E-2,5.878567219E0,8.939884186E0
2.374421468E0,-2.841476910E-2,5.781657696E0,8.459226608E0
2.391087406E0,1.286142133E-2,5.707180977E0,8.208278656E0
2.407753343E0,2.255235314E-1,5.721837044E0,8.111370087E0
2.424419281E0,2.596212626E-1,5.641378403E0,7.870292664E0
2.441085218E0,1.286142170E-1,5.590830326E0,7.656733513E0
2.457751156E0,1.088734269E-1,5.500202179E0,7.564908981E0
2.474417093E0,1.232303679E-1,5.446064472E0,7.598408222E0
2.491083031E0,1.172483116E-1,5.405685425E0,7.503293514E0
2.507748968E0,6.430710852E-2,5.394618511E0,7.330112934E0
2.524414906E0,4.636093974E-2,5.377869129E0,7.444968700E0
2.541080843E0,3.978067636E-2,5.434100151E0,7.721638680E0
2.557746781E0,1.725823283E-1,5.557330608E0,7.821239948E0
2.574412718E0,2.309073806E-1,5.686244011E0,7.844570160E0
2.591078656E0,1.752742529E-1,5.728716373E0,8.010572433E0
2.607744593E0,1.734796464E-1,5.727221012E0,8.336893082E0
2.624410531E0,3.215355575E-1,5.647958755E0,8.688339233E0
2.641076468E0,4.067798555E-1,5.674878120E0,8.823832512E0
2.657742406E0,4.833501875E-1,5.700301647E0,8.970093727E0
2.674408343E0,5.688936114E-1,5.741278648E0,9.110373497E0
2.691074281E0,6.110670567E-1,5.804688454E0,9.151051521E0
2.707740218E0,6.559324861E-1,5.813961029E0,8.981759071E0
2.724406156E0,6.735795736E-1,5.779862881E0,8.631210327E0
2.741072093E0,6.233302951E-1,5.711069584E0,8.331210136E0
2.757738031E0,6.592226624E-1,5.662614822E0,8.357531548E0
2.774403968E0,7.010970116E-1,5.597410202E0,8.315058708E0
2.791069906E0,5.919244885E-1,5.572285652E0,8.122137070E0
2.807735843E0,3.502494097E-1,5.634499073E0,7.912466049E0
2.824401781E0,1.369891018E-1,5.716752529E0,7.686344624E0
2.841067718E0,1.561316848E-1,5.901597977E0,7.585845947E0
2.857733656E0,2.473580390E-1,6.084349632E0,7.573582649E0
2.874399593E0,2.404786795E-1,6.189035892E0,7.520641804E0
2.891065531E0,7.657032460E-2,6.299703598E0,7.510771275E0
2.907731468E0,3.320041299E-2,6.454041004E0,7.538887024E0
2.924397406E0,1.618146300E-1,6.669992924E0,7.615158081E0
2.941063343E0,1.531406492E-1,6.843472958E0,7.569694519E0
2.957729281E0,-1.253240854E-1,6.915855408E0,7.428218842E0
2.974395218E0,-2.694916427E-1,6.948457718E0,7.348956585E0
2.991061156E0,-1.076770201E-1,6.958627224E0,7.323832035E0
3.007727093E0,1.369891018E-1,6.892525673E0,7.266105175E0
3.024393031E0,2.102692872E-1,6.852745056E0,7.230811119E0
3.041058968E0,2.727817893E-1,6.780362129E0,7.247261524E0
3.057724906E0,3.930211067E-1,6.710371971E0,7.319046497E0
3.074390843E0,4.501497746E-1,6.581758022E0,7.417151928E0
3.091056781E0,1.713859290E-1,6.531209469E0,7.558328629E0
3.107722718E0,-9.361918271E-2,6.465406895E0,7.474280834E0
3.124388656E0,-1.010967568E-1,6.507580280E0,7.063911438E0
3.141054593E0,-2.243271284E-2,6.617949009E0,6.604489803E0
3.157720531E0,-1.378864050E-1,6.703193665E0,6.238986015E0
3.174386468E0,-3.242274821E-1,6.753143787E0,6.186643124E0
3.191052406E0,-3.191427290E-1,6.812664986E0,6.440581322E0
3.207718343E0,-1.214357466E-1,6.804290295E0,6.602096558E0
3.224384281E0,-4.785645381E-2,6.909873486E0,6.702595234E0
3.241050218E0,3.170489892E-2,6.997510910E0,6.741777897E0
3.257716156E0,2.901297435E-2,7.069594383E0,6.716054916E0
3.274382093E0,-1.064806059E-1,7.037291527E0,6.813562393E0
3.291048031E0,-1.387837082E-1,6.968497753E0,7.076773167E0
3.307713968E0,3.170489892E-2,6.925426960E0,7.376473904E0
3.324379906E0,1.001994461E-1,6.954739094E0,7.397411346E0
3.341045843E0,-6.281159353E-3,6.958328247E0,7.148557663E0
3.357711781E0,-2.937189937E-1,7.153044224E0,6.970591545E0
3.374377718E0,-5.054838061E-1,7.444669247E0,6.906284332E0
3.391043656E0,-3.517449200E-1,7.584350586E0,7.061518669E0
3.407709593E0,-7.178468257E-2,7.541279793E0,7.356134892E0
3.424375531E0,8.943174779E-2,7.336992264E0,7.688138962E0
3.441041468E0,1.573280841E-1,7.068696976E0,7.776673794E0
3.457707406E0,2.048854381E-1,6.807879448E0,7.505985737E0
3.474373343E0,2.673979402E-1,6.680760860E0,7.171588421E0
3.491039281E0,3.385843933E-1,6.672685146E0,6.996613503E0
3.507705218E0,5.120640397E-1,6.600601196E0,7.015456676E0
3.524371156E0,6.777670383E-1,6.665506363E0,6.794120789E0
3.541037093E0,8.623134494E-1,6.982854843E0,6.183651924E0
3.557703031E0,1.016949654E0,7.223931789E0,5.670690536E0
3.574368968E0,9.762716293E-1,7.448856831E0,5.493023396E0
3.591034906E0,8.578268886E-1,7.485347271E0,5.660222054E0
3.607700843E0,9.490532875E-1,7.357032299E0,6.184549332E0
3.624366781E0,1.132702470E0,7.161119938E0,6.537490368E0
3.641032718E0,1.144367456E0,6.978667259E0,6.574878216E0
3.657698656E0,1.072881818E0,6.783353329E0,6.522834301E0
3.674364593E0,1.044167995E0,6.537789822E0,6.537191391E0
3.691030531E0,9.565308690E-1,6.315257072E0,6.717550278E0
3.707696468E0,7.815557122E-1,6.246164322E0,7.133303165E0
3.724362406E0,7.483552694E-1,6.132505417E0,7.388139248E0
3.741028343E0,7.319046259E-1,6.127719879E0,7.359126091E0
3.757694281E0,8.033902049E-1,6.203691959E0,7.163213730E0
3.774360218E0,9.693922997E-1,6.243771553E0,7.095616341E0
3.791026156E0,1.118943691E0,6.219244957E0,7.232007504E0
3.807692093E0,1.223330617E0,6.138786316E0,7.282256603E0
3.824358031E0,1.209272742E0,6.196812630E0,7.077969551E0
3.841023968E0,1.240678549E0,6.272186279E0,6.962216377E0
3.857689906E0,1.322034478E0,6.299404621E0,6.987640381E0
3.874355843E0,1.267896891E0,6.306882381E0,7.248457909E0
3.891021781E0,1.094716311E0,6.246762753E0,7.532605648E0
3.907687718E0,9.867402315E-1,6.210870266E0,7.692625523E0
3.924353656E0,8.434699774E-1,6.230610847E0,7.653144360E0
3.941019593E0,7.504490018E-1,6.316154480E0,7.584948540E0
3.957685531E0,9.188438654E-1,6.333502293E0,7.800302505E0
3.974351468E0,1.057328463E0,6.378367901E0,8.087141991E0
3.991017406E0,1.100997567E0,6.336194515E0,8.184948921E0
4.007683343E0,1.079162955E0,6.270989895E0,8.281558990E0
4.024349281E0,1.027119160E0,6.202794552E0,8.365607262E0
4.041015218E0,1.034895778E0,6.121438503E0,8.414958954E0
4.057681156E0,1.112064362E0,6.075376511E0,8.343473434E0
4.074347093E0,1.105783105E0,6.070590973E0,8.099405289E0
4.091013031E0,1.046560764E0,6.066104412E0,7.973483086E0
4.107678968E0,9.433703423E-1,6.088238239E0,7.886145115E0
4.124344906E0,9.499505758E-1,6.102295876E0,7.859225750E0
4.141010843E0,1.249651670E0,6.168397903E0,7.974380493E0
4.157676781E0,1.523928881E0,6.249155521E0,7.945367813E0
4.174342718E0,1.598405480E0,6.256034851E0,7.809874058E0
4.191008656E0,1.631605983E0,6.231807709E0,7.832007408E0
4.207674593E0,1.504786372E0,6.270989895E0,8.032705307E0
4.224340531E0,1.398604870E0,6.292525291E0,8.264510155E0
4.241006468E0,1.403988719E0,6.291328907E0,8.345566750E0
4.257672406E0,1.450349569E0,6.327520370E0,8.208278656E0
4.274338343E0,1.495215058E0,6.307480335E0,8.000402451E0
4.291004281E0,1.596910000E0,6.375077724E0,7.872087479E0
4.307670218E0,1.603191137E0,6.448058605E0,7.766204834E0
4.324336156E0,1.457229018E0,6.495615959E0,7.611269951E0
4.341002093E0,1.437488198E0,6.518647194E0,7.537391186E0
4.357668031E0,1.514656782E0,6.522535324E0,7.556832790E0
4.374333968E0,1.572981834E0,6.522535324E0,7.529315472E0
4.390999906E0,1.543968797E0,6.534798622E0,7.404888630E0
4.407665843E0,1.518245935E0,6.510870457E0,7.242475986E0
4.424331781E0,1.513460279E0,6.461219311E0,7.128817081E0
4.440997718E0,1.532004714E0,6.411867142E0,7.089035988E0
4.457663656E0,1.588834286E0,6.401997089E0,7.074679375E0
4.474329593E0,1.485942841E0,6.454938412E0,6.906284332E0
4.490995531E0,1.307079315E0,6.480062962E0,6.692425728E0
4.507661468E0,1.188634634E0,6.516852379E0,6.396613121E0
4.524327406E0,1.115653515E0,6.542575359E0,6.236593246E0
4.540993343E0,1.048654556E0,6.607480526E0,6.174977779E0
4.557659281E0,9.661021233E-1,6.659225464E0,6.162415504E0
4.574325218E0,1.011266708E0,6.692724705E0,6.322136402E0
4.590991156E0,1.133599758E0,6.763911247E0,6.362814426E0
4.607657093E0,1.228116274E0,6.836892605E0,6.351448536E0
4.624323031E0,1.261316657E0,6.857530594E0,6.280561447E0
4.640988968E0,1.080359459E0,6.893423080E0,6.069394588E0
4.657654906E0,1.142871857E0,6.869793892E0,5.744868279E0
4.674320843E0,1.361217022E0,6.846762657E0,5.598606586E0
4.690986781E0,1.380957723E0,6.792026997E0,5.549553871E0
4.707652718E0,1.271785259E0,6.649953365E0,5.406582832E0
4.724318656E0,1.328913927E0,6.437889099E0,5.148756027E0
4.740984593E0,1.378564954E0,6.352644920E0,5.047659397E0
4.757650531E0,1.714756489E0,6.263512135E0,5.022833824E0
4.774316468E0,2.100599289E0,6.119643688E0,4.962115765E0
4.790982406E0,2.150848389E0,5.961418629E0,4.992325306E0
4.807648343E0,1.990230203E0,5.849255085E0,5.009374142E0
4.824314281E0,2.097009897E0,5.845067501E0,4.884947300E0
4.840980218E0,2.362314224E0,5.815157413E0,4.659124851E0
4.857646156E0,2.452942371E0,5.579164982E0,4.414159775E0
4.874312093E0,2.328515530E0,5.155934811E0,3.871886253E0
4.890978031E0,2.287239313E0,4.934598446E0,3.284747362E0
4.907643968E0,2.316252232E0,4.657330036E0,2.709572554E0
4.924309906E0,2.049452543E0,4.261318207E0,2.257628202E0
4.940975843E0,1.542174220E0,3.678964853E0,1.884646893E0
4.957641781E0,1.108175993E0,3.192922831E0,1.478465319E0
4.974307718E0,3.107678294E-1,2.861217737E0,1.462911963E0
4.990973656E0,-8.730811477E-1,3.713959932E0,2.024028778E0
5.007639593E0,-2.292922258E0,6.037988663E0,1.929512382E0
5.024305531E0,-3.730111361E0,9.542876244E0,2.466402054E0
5.040971468E0,-4.596014023E0,1.661576080E1,9.111868858E0
5.057637406E0,-1.734497309E0,2.635305214E1,1.966989899E1
5.074303343E0,3.603590965E0,3.511287689E1,2.720998192E1
5.090969281E0,8.136793137E0,4.163660812E1,4.128516388E1
5.107635218E0,1.308395386E1,4.042135620E1,5.521288681E1
5.124301156E0,1.401386452E1,3.374657440E1,5.256792068E1
5.140967093E0,1.088883877E1,2.551945305E1,3.575894165E1
5.157633031E0,7.213762283E0,1.747358704E1,2.121985054E1
5.174298968E0,1.373480201E0,1.103839016E1,1.407189083E1
5.190964906E0,-1.918744683E0,5.462215900E0,1.024158001E1
5.207630843E0,1.403091431E0,-7.193422914E-1,1.187498093E1
5.224296781E0,5.469394207E0,-7.222734928E0,1.111286640E1
5.240962718E0,3.379263878E0,-1.035523891E1,6.294020653E0
5.257628656E0,5.637490273E0,-1.372552967E1,5.408377171E0
5.274294593E0,1.562244034E1,-2.436551476E1,1.481755447E1
5.290960531E0,2.781805801E1,-3.254298782E1,2.521317291E1
5.307626468E0,3.785535049E1,-3.566621780E1,1.742812347E1
5.324292406E0,3.629074478E1,-3.193550873E1,-6.291328907E0
5.340958343E0,2.551227570E1,-2.404368019E1,-2.176182556E1
5.357624281E0,1.849651909E1,-2.136312103E1,-2.166850471E1
5.374290218E0,1.649671745E1,-2.062134552E1,-5.028516769E0
5.390956156E0,2.322742844E1,-1.410568905E1,1.643061638E1
5.407622093E0,3.054019356E1,-4.415655136E0,1.931217194E1
5.424288031E0,2.758326340E1,4.112065792E0,9.267401695E0
5.440953968E0,2.642304230E1,9.245866776E0,2.225773621E1
5.457619906E0,3.940500259E1,1.519711590E1,4.860480881E1
5.474285843E0,4.494558334E1,2.264776802E1,5.815546036E1
5.490951781E0,2.696531677E1,2.787817764E1,4.808436966E1
5.507617718E0,3.101696253E0,2.739961433E1,2.510519600E1
5.524283656E0,-2.135205460E1,3.640649796E1,1.490937901E1
5.540949593E0,-3.044358253E1,4.594877625E1,1.278485107E1
5.557615531E0,-2.202712822E1,4.936124039E1,1.163779163E1
5.574281468E0,-1.628704643E1,4.364389038E1,1.038275623E1
5.590947406E0,-2.023281097E1,3.940739441E1,1.182293701E1
5.607613343E0,-1.216211891E1,3.904518127E1,2.630370140E1
5.624279281E0,8.598907471E0,3.744588089E1,4.728905487E1
5.640945218E0,2.383819580E1,3.595395660E1,6.267280960E1
5.657611156E0,3.781228256E1,3.152454185E1,7.166712952E1
5.674277093E0,5.312963486E1,2.616731071E1,6.966344452E1
5.690943031E0,6.241528320E1,2.333480644E1,5.040151978E1
5.707608968E0,5.798018646E1,1.768804359E1,2.429193497E1
5.724274906E0,4.500719833E1,6.335895061E0,1.303849030E1
5.740940843E0,2.848266602E1,-3.422932863E0,7.819744587E0
5.757606781E0,2.505434799E1,-1.262124252E1,7.521239758E0
5.774272718E0,3.453471375E1,-2.691267395E1,6.850651264E0
5.790938656E0,3.905924225E1,-3.538266754E1,-1.305284739E0
5.807604593E0,3.727299881E1,-3.736781311E1,-4.730011940E0
5.824270531E0,3.487329483E1,-3.797529221E1,-3.709473372E0
5.840936468E0,2.749263573E1,-3.120450020E1,-5.179862976E0
5.857602406E0,2.571506691E1,-2.526850700E1,-7.352844715E0
5.874268343E0,2.293191528E1,-1.934537315E1,-7.037590504E0
5.890934281E0,2.607787895E1,-1.306182098E1,8.312067389E-1
5.907600218E0,4.044049835E1,-8.210671425E0,1.329811192E1
5.924266156E0,4.852823639E1,9.643075466E-1,2.583111954E1
5.940932093E0,5.190451050E1,1.443410397E1,3.640320587E1
5.957598031E0,6.036941910E1,2.724437904E1,4.784987259E1
5.974263968E0,5.052803802E1,3.358027649E1,5.024807739E1
5.990929906E0,2.345295143E1,3.163012505E1,3.752364731E1
6.007595843E0,6.403492451E0,2.541955376E1,1.855783463E1
6.024261781E0,-5.785545826E0,2.667578506E1,3.680759430E0
6.040927718E0,-1.522732544E1,3.607359695E1,3.178864956E0
6.057593656E0,-1.111466122E1,4.609114838E1,1.582493210E1
6.074259593E0,-6.275177479E0,5.438616562E1,1.968006897E1
6.090925531E0,-1.666810417E1,5.086841965E1,5.801099300E0
6.107591468E0,-1.063759232E1,4.700670242E1,1.173260784E1
6.124257406E0,1.237777233E1,4.326642227E1,3.296352386E1
6.140923343E0,2.537588501E1,4.202394867E1,4.340221405E1
6.157589281E0,3.730619812E1,3.980191422E1,4.222195435E1
6.174255218E0,4.735126877E1,3.886602020E1,3.746771240E1
6.190921156E0,5.495177078E1,3.636761475E1,3.386262894E1
6.207587093E0,5.451507950E1,2.649841690E1,3.295425415E1
6.224253031E0,4.476163483E1,1.321705532E1,3.392842865E1
6.240918968E0,3.381716537E1,1.382752419E0,3.288545990E1
6.257584906E0,3.517180252E1,-1.395075417E1,3.217598724E1
6.274250843E0,4.343092728E1,-3.418535995E1,2.931476974E1
6.290916781E0,4.524229431E1,-4.736682129E1,8.933603287E0
6.307582718E0,3.648097229E1,-4.768087769E1,-9.961021423E0
6.324248656E0,3.118625641E1,-4.366811752E1,-1.239841080E1
6.340914593E0,2.540011215E1,-3.843770599E1,-9.393623352E0
6.357580531E0,1.747598076E1,-3.132503891E1,-7.424928665E0
6.374246468E0,1.955384827E1,-2.831845856E1,-7.418049335E0
6.390912406E0,3.091855812E1,-2.693450928E1,-5.689234734E0
6.407578343E0,4.675306320E1,-2.075325012E1,2.870190859E0
6.424244281E0,6.449793243E1,-9.283852577E0,2.158894348E1
6.440910218E0,7.680152893E1,9.526425362E0,4.382544327E1
6.457576156E0,7.188607788E1,2.869592476E1,5.883053589E1
6.474242093E0,5.837619781E1,3.741537094E1,5.957679749E1
6.490908031E0,3.057668495E1,3.455475235E1,4.224767685E1
6.507573968E0,-1.004536819E1,3.665295792E1,1.883001900E1
6.524239906E0,-2.242673111E1,4.355505371E1,8.758329391E0
6.540905843E0,-1.726331902E1,5.431169128E1,1.380389500E1
6.557571781E0,-1.508764362E1,6.366703033E1,2.057947159E1
6.574237718E0,-1.415773296E1,6.008796310E1,1.582553101E1
6.590903656E0,1.951645970E0,5.196702194E1,1.244536972E1
6.607569593E0,1.571665764E1,4.291467667E1,1.876511383E1
6.624235531E0,1.883390617E1,3.652254868E1,3.009482956E1
6.640901468E0,3.176322556E1,3.161995506E1,4.190879440E1
6.657567406E0,4.781188583E1,2.946162796E1,4.182923126E1
6.674233343E0,5.034319305E1,3.262404251E1,3.227917862E1
6.690899281E0,5.325136948E1,3.028027344E1,2.703740120E1
6.707565218E0,4.966094208E1,2.106611061E1,2.604737091E1
6.724231156E0,4.860331345E1,4.777868748E0,2.939014244E1
6.740897093E0,4.438566208E1,-1.377697563E1,3.676990891E1
6.757563031E0,4.228267288E1,-2.935724258E1,2.762603378E1
6.774228968E0,4.374229431E1,-3.969752502E1,-4.836492836E-1
6.790894906E0,3.773002625E1,-3.979922104E1,-2.123689842E1
6.807560843E0,2.936621475E1,-4.050659943E1,-2.179592323E1
6.824226781E0,1.885155487E1,-3.960121536E1,-9.868598938E0
6.840892718E0,8.795417786E0,-3.222294617E1,-3.810869217E0
6.857558656E0,1.105902767E1,-2.784856796E1,-7.884948730E0
6.874224593E0,1.971356773E1,-2.398894501E1,-1.220608711E1
6.890890531E0,3.272962570E1,-1.956581116E1,-8.077870369E0
6.907556468E0,4.862604523E1,-8.604888916E0,7.556533813E0
6.924222406E0,6.394100571E1,1.077936649E1,3.027040291E1
6.940888343E0,7.110391998E1,3.329014587E1,4.543671036E1
6.957554281E0,6.705496979E1,4.461118698E1,5.160391235E1
6.974220218E0,3.575714493E1,4.180470657E1,3.921895981E1
6.990886156E0,-1.202094269E1,4.097649002E1,1.258834076E1
7.007552093E0,-2.851766014E1,4.686761856E1,1.281356573E0
7.024218031E0,-2.133111572E1,5.225386429E1,7.075875759E0
7.040883968E0,-1.775384712E1,5.976493454E1,2.122523499E1
7.057549906E0,-2.303749847E1,5.350291443E1,2.251526451E1
7.074215843E0,-1.562842178E1,4.280909348E1,3.008226776E1
7.090881781E0,2.651546478E0,3.467349625E1,4.029154587E1
7.107547718E0,1.774457359E1,3.044507980E1,3.777309799E1
7.124213656E0,3.412972641E1,2.850090981E1,3.444737244E1
7.140879593E0,4.361726761E1,3.215385437E1,2.972842789E1
7.157545531E0,4.522195435E1,3.408994675E1,2.428804779E1
7.174211468E0,4.194438553E1,2.963989449E1,2.166222382E1
7.190877406E0,4.157828522E1,2.097219276E1,1.792313957E1
7.207543343E0,4.445685196E1,6.201299191E0,1.510379601E1
7.224209281E0,4.582674026E1,-1.515942860E1,1.701267052E1
7.240875218E0,4.520669937E1,-3.589862061E1,2.007966995E1
7.257541156E0,3.665295792E1,-4.479842377E1,5.126024246E0
7.274207093E0,3.048755074E1,-4.562753677E1,-1.594427490E1
7.290873031E0,2.662972260E1,-4.404947281E1,-2.298156548E1
7.307538968E0,1.427408409E1,-3.697209930E1,-1.460907936E1
7.324204906E0,8.389236450E0,-3.060300446E1,-7.835597038E0
7.340870843E0,2.148964119E1,-2.718754959E1,-5.106582642E0
7.357536781E0,4.067618942E1,-1.849352837E1,-4.118346691E0
7.374202718E0,5.974967957E1,-6.200401783E-1,4.706981182E0
7.390868656E0,7.791299438E1,1.998246193E1,3.918546295E1
7.407534593E0,7.234490204E1,4.074678040E1,6.342176437E1
7.424200531E0,5.356662369E1,4.788127899E1,6.554838562E1
7.440866468E0,2.099462509E1,4.250011826E1,3.649234009E1
7.457532406E0,-1.572832203E1,4.120859146E1,3.678665638E0
7.474198343E0,-2.282603264E1,4.266253281E1,1.282852054E0
7.490864281E0,-2.779861641E1,4.707908630E1,1.011147022E1
7.507530218E0,-3.284956741E1,5.486712265E1,1.464646721E1
7.524196156E0,-2.896422005E1,5.290411377E1,8.305188179E0
7.540862093E0,-9.003892899E0,4.570799637E1,1.179093266E1
7.557528031E0,7.018447876E0,3.625425339E1,2.279163551E1
7.574193968E0,1.123430252E1,3.077080154E1,3.264139175E1
7.590859906E0,2.239921188E1,2.446332169E1,3.856901169E1
7.607525843E0,3.184368324E1,2.672423935E1,4.027060699E1
7.624191781E0,4.002564240E1,3.077110100E1,3.481167984E1
7.640857718E0,4.504638290E1,3.034099197E1,2.801965332E1
7.657523656E0,4.619523621E1,2.209412766E1,1.944976044E1
7.674189593E0,4.006781387E1,1.014526844E1,1.452742481E1
7.690855531E0,3.845056534E1,-5.650650501E0,2.022593117E1
7.707521468E0,4.517110825E1,-2.842912674E1,2.710619354E1
7.724187406E0,4.093581009E1,-4.292364883E1,1.418644714E1
7.740853343E0,3.230071259E1,-4.538436890E1,-1.047517967E1
7.757519281E0,2.531187630E1,-4.491208649E1,-2.668356133E1
7.774185218E0,9.928419113E0,-4.177419662E1,-2.623191643E1
7.790851156E0,1.967199326E0,-3.840241241E1,-1.592094421E1
7.807517093E0,1.680658722E1,-3.786133194E1,-5.003093243E0
7.824183031E0,3.721796417E1,-3.200490189E1,1.310070455E-1
7.840848968E0,6.204170227E1,-1.566521168E1,9.660423279E0
7.857514906E0,7.833383179E1,5.120042324E0,3.470460129E1
7.874180843E0,7.834938812E1,2.803251457E1,6.210062790E1
7.890846781E0,6.114379883E1,4.044857407E1,7.730941010E1
7.907512718E0,1.835773468E1,4.118915176E1,5.876593018E1
7.924178656E0,-1.550698662E1,4.022962952E1,2.401915359E1
7.940844593E0,-2.421327209E1,4.275944138E1,1.080030441E1
7.957510531E0,-2.711127853E1,4.534159470E1,1.146371460E1
7.974176468E0,-3.038077164E1,5.190899658E1,1.695703697E1
7.990842406E0,-2.839173889E1,4.976024246E1,1.463928890E1
8.007508343E0,-1.216062355E1,4.309204483E1,1.979253197E1
8.024174281E0,1.283749342E0,3.640500259E1,2.739303398E1
8.040840218E0,6.957729816E0,3.278166962E1,3.371846008E1
8.057506156E0,2.028425598E1,3.139652443E1,3.847927856E1
8.074172093E0,3.704149246E1,3.522593689E1,3.826153183E1
8.090838031E0,4.677280426E1,3.733192062E1,3.020998383E1
8.107503968E0,4.870500946E1,3.333411407E1,2.491795731E1
8.124169906E0,4.760789871E1,2.225384903E1,1.983679962E1
8.140835843E0,4.220011902E1,9.269196510E0,1.591466331E1
8.157501781E0,3.834408569E1,-4.375276089E0,1.686072540E1
8.174167718E0,4.389962006E1,-2.469692039E1,1.992413712E1
8.190833656E0,4.036691666E1,-4.046741486E1,1.478644753E1
8.207499593E0,2.926661301E1,-4.433092880E1,-1.013061285E0
8.224165531E0,2.532144737E1,-4.480620193E1,-1.257787228E1
8.240831468E0,1.767548180E1,-4.193960190E1,-1.569990730E1
8.257497406E0,6.421139717E0,-3.527977753E1,-1.360738373E1
8.274163343E0,8.395217896E0,-3.272992706E1,-1.701625824E1
8.290829281E0,2.756920433E1,-3.074777031E1,-1.435484219E1
8.307495218E0,5.787699509E1,-1.734078598E1,5.037788868E0
8.324161156E0,7.766832733E1,6.657730103E0,3.211736298E1
8.340827093E0,7.760641479E1,3.251427078E1,5.259753036E1
8.357493031E0,5.697011566E1,4.592036057E1,5.759404373E1
8.374158968E0,2.101735687E1,4.465635300E1,4.073720551E1
8.390824906E0,-6.982555389E0,3.962305069E1,1.873968887E1
8.407490843E0,-1.398933887E1,4.078386688E1,1.397288799E1
8.424156781E0,-2.022952080E1,4.323531342E1,1.317488194E1
8.440822718E0,-2.707299423E1,4.976173782E1,1.474217987E1
8.457488656E0,-2.882932472E1,4.787858582E1,1.126989555E1
8.474154593E0,-1.908874321E1,4.358107758E1,1.253898907E1
8.490820531E0,-1.381855011E-1,3.834587860E1,1.986282158E1
8.507486468E0,1.382752419E1,3.286661530E1,2.118455696E1
8.524152406E0,1.902772522E1,2.681995201E1,2.142533302E1
8.540818343E0,2.183929253E1,2.775046158E1,2.717797852E1
8.557484281E0,2.991297531E1,2.848206711E1,3.206741333E1
8.574150218E0,3.251845932E1,2.477588463E1,3.286631775E1
8.590816156E0,3.458077240E1,1.971117592E1,2.697428894E1
8.607482093E0,4.138027954E1,1.169551849E1,1.819681740E1
8.624148031E0,4.558775711E1,-2.054238319E0,1.528086472E1
8.640813968E0,4.483820724E1,-2.324058914E1,1.243071365E1
8.657479906E0,3.192982483E1,-3.766781235E1,4.632504463E0
8.674145843E0,1.975484467E1,-4.093910217E1,-5.858228207E0
8.690811781E0,1.851267052E1,-4.151636887E1,-1.021316528E1
8.707477718E0,1.514716530E1,-3.843351746E1,-9.919745445E0
8.724143656E0,5.906383514E0,-3.104149055E1,-8.801100731E0
8.740809593E0,7.167999268E0,-2.728505707E1,-1.090798092E1
8.757475531E0,2.174776649E1,-2.309911346E1,-8.162516594E0
8.774141468E0,4.556891632E1,-8.942576408E0,7.924131393E0
8.790807406E0,7.249534607E1,1.395972729E1,3.168515968E1
8.807473343E0,7.261947632E1,3.900001907E1,5.168497086E1
8.824139281E0,4.462973022E1,5.000550842E1,5.382744217E1
8.840805218E0,1.241904831E1,4.475056839E1,3.209014511E1
8.857471156E0,-1.506640816E1,3.881846237E1,6.970890522E0
8.874137093E0,-2.691925430E1,4.278845596E1,4.142574072E-1
8.890803031E0,-2.551377106E1,4.502066040E1,1.819741607E0
8.907468968E0,-2.562174606E1,4.937709045E1,3.088835001E0
8.924134906E0,-2.203879356E1,4.504159546E1,-3.015853882E0
8.940800843E0,-9.466903687E0,3.913222122E1,6.249454498E0
8.957466781E0,2.176272154E0,3.253550720E1,2.187129593E1
8.974132718E0,9.076275826E0,2.809413147E1,3.503391266E1
8.990798656E0,1.713590050E1,3.200131226E1,3.938556290E1
9.007464593E0,2.789253616E1,3.422962570E1,3.490530014E1
9.024130531E0,2.845335388E1,3.138037300E1,3.005684280E1
9.040796468E0,3.218825150E1,2.580928421E1,2.661716080E1
9.057462406E0,4.195545197E1,1.502961826E1,2.315354919E1
9.074128343E0,4.622664261E1,-4.091726780E0,2.265793610E1
9.090794281E0,4.446103668E1,-2.625793839E1,2.251825523E1
9.107460218E0,3.412733459E1,-3.839941788E1,9.279664993E0
9.124126156E0,2.233490562E1,-3.990330887E1,-1.156481075E1
9.140792093E0,2.182194519E1,-3.987070465E1,-2.053550339E1
9.157458031E0,1.352064419E1,-3.550021744E1,-2.222005081E1
9.174123968E0,6.054738522E0,-2.934677315E1,-2.055733681E1
9.190789906E0,1.481366634E1,-2.485066032E1,-1.481456280E1
9.207455843E0,3.023540688E1,-1.595414543E1,-5.015356064E0
9.224121781E0,4.597659302E1,9.056833982E-1,9.041878700E0
9.240787718E0,5.414000702E1,2.091895294E1,2.625285339E1
9.257453656E0,4.646143723E1,3.963591003E1,3.830998611E1
9.274119593E0,3.028116989E1,4.091248322E1,4.825605392E1
9.290785531E0,-4.917250574E-1,4.346771622E1,3.700679779E1
9.307451468E0,-2.061925125E1,4.635914230E1,2.133949089E1
9.324117406E0,-3.047229767E1,4.759025192E1,1.368365574E1
9.340783343E0,-3.508954620E1,4.650719833E1,1.025474072E1
9.357449281E0,-2.850569534E1,3.802613831E1,1.188395405E1
9.374115218E0,-1.428544998E1,2.837857819E1,8.645566940E0
9.390781156E0,4.452145576E0,2.163949203E1,8.539385796E0
9.407447093E0,1.591615868E1,2.408585358E1,1.488724518E1
9.424113031E0,2.249073792E1,3.555435181E1,2.025614166E1
9.440778968E0,3.828336716E1,3.135943604E1,1.695045662E1
9.457444906E0,4.499673080E1,2.198286247E1,1.506760406E1
9.474110843E0,4.825336075E1,1.267597795E0,2.032194328E1
9.490776781E0,3.737708664E1,-1.839572144E1,1.219771290E1
9.507442718E0,2.512732887E1,-3.309243774E1,-1.078564763E0
9.524108656E0,1.305404377E1,-3.449373627E1,-5.897111416E0
9.540774593E0,3.902394533E0,-3.341277695E1,-6.469295025E0
9.557440531E0,-7.093223572E0,-2.538336182E1,-7.716553688E0
9.574106468E0,-9.447462082E0,-1.871755600E1,-1.128634644E1
9.590772406E0,-6.619743824E0,-1.441884995E1,-4.077369690E0
9.607438343E0,-6.481558323E0,-1.201735306E1,8.215158463E0
9.624104281E0,-1.075573826E1,-6.493821621E0,1.923291016E1
9.640770218E0,-4.146163464E0,-5.814558864E-1,2.702573586E1
9.657436156E0,1.493719578E0,1.380778313E1,3.713122177E1
9.674102093E0,-1.742872238E0,2.590260506E1,4.031397629E1
9.690768031E0,-1.125404263E1,3.330569839E1,3.509493256E1
9.707433968E0,-8.822037697E0,3.542514038E1,3.984917068E1
9.724099906E0,1.081496048E1,3.449134064E1,5.235914612E1
9.740765843E0,3.257020569E1,2.999283600E1,5.015834808E1
9.757431781E0,4.032683945E1,1.973899269E1,3.095714378E1
9.774097718E0,4.523960114E1,1.505683613E1,1.040369415E1
9.790763656E0,5.823771286E1,4.913960457E0,9.292527199E0
9.807429593E0,4.115355682E1,-2.823530674E0,3.912265003E-1
9.824095531E0,2.483271408E1,-8.395517349E0,-6.768996239E0
9.840761468E0,1.936212349E1,-1.392054462E1,-6.707380772E0
9.857427406E0,1.218844032E1,-1.544507217E1,-4.170989037E0
9.874093343E0,9.305089116E-1,-1.494048595E1,-4.560420990E0
9.890759281E0,-8.290831566E0,-1.304387474E1,-5.757131100E0
9.907425218E0,-9.954142570E0,-1.147448158E1,-4.477868557E0
9.924091156E0,-8.771489143E0,-9.945169449E0,-7.785646915E-1
9.940757093E0,-7.383054256E0,-7.631309509E0,3.235694408E0
9.957423031E0,-4.134797573E0,-4.226023674E0,5.987739563E0
9.974088968E0,-1.559522152E0,1.026221752E0,7.305287361E0
9.990754906E0,2.405385017E0,6.264409542E0,8.190931320E0
1.000742084E1,7.019345284E0,1.154178047E1,7.459923744E0
1.002408678E1,9.864111900E0,1.494945812E1,1.322632670E0
1.004075272E1,1.213460159E1,1.502543068E1,-3.037389278E0
1.005741866E1,1.287039471E1,1.754507256E1,1.814955950E0
1.007408459E1,1.766292000E1,2.258375931E1,1.746341705E1
1.009075053E1,4.672943497E1,1.327208996E1,3.426581955E1
1.010741647E1,6.574519348E1,6.703492641E0,3.539912033E1
1.012408241E1,5.991478348E1,3.662813187E0,1.754866219E1
1.014074834E1,3.954498291E1,-9.511470199E-1,7.747062206E0
1.015741428E1,2.058904266E1,-3.763012648E0,6.892226696E0
1.017408022E1,9.716654778E0,-5.744868279E0,5.109573841E0
1.019074616E1,1.704886079E0,-7.006484032E0,2.787638307E-1
1.020741209E1,-3.358027458E0,-7.116852760E0,-2.487040043E0
1.022407803E1,-5.593522072E0,-7.505985737E0,-3.889533281E0
1.024074397E1,-8.735896111E0,-6.616154671E0,-5.034199715E0
1.025740991E1,-1.333131218E1,-4.056731701E0,-5.696114540E0
1.027407584E1,-1.892453575E1,-1.351944804E0,-6.483652115E0
1.029074178E1,-2.117588234E1,2.554338276E-1,-6.068796635E0
1.030740772E1,-1.873909187E1,2.853441000E0,-3.597010612E0
1.032407366E1,-1.244417286E1,7.938787460E0,6.182455420E-1
1.034073959E1,-2.321037948E-1,1.721755600E1,5.396712303E0
1.035740553E1,1.284826088E1,2.605484772E1,1.220758247E1
1.037407147E1,2.279402924E1,3.247568893E1,2.397488594E1
1.039073741E1,3.823281860E1,3.392394257E1,3.200789261E1
1.040740334E1,4.826801682E1,3.333022308E1,2.942304420E1
1.042406928E1,4.850371170E1,2.698625374E1,1.808914185E1
1.044073522E1,4.374917221E1,1.887518311E1,8.980263710E0
1.045740116E1,3.935774612E1,1.281565857E1,8.717651367E0
1.047406709E1,4.216632080E1,9.240483284E0,1.377189064E1
1.049073303E1,4.477150726E1,7.252047062E0,1.478375530E1
1.050739897E1,4.368935394E1,4.155435562E0,9.581160545E0
1.052406491E1,3.752244949E1,-8.132606149E-1,2.628515720E0
1.054073084E1,2.750459862E1,-5.455336571E0,1.064806104E0
1.055739678E1,1.960858345E1,-9.506983757E0,3.312862873E0
1.057406272E1,1.620359612E1,-1.322722435E1,6.655336857E0
1.059072866E1,1.785883141E1,-1.975125504E1,7.494021416E0
1.060739459E1,2.110768700E1,-2.715764046E1,3.125026464E0
1.062406053E1,2.248266220E1,-3.027429199E1,-5.084149837E0
1.064072647E1,1.639532089E1,-3.149223709E1,-1.717807388E1
1.065739241E1,3.640081406E0,-2.746152878E1,-2.326062965E1
1.067405834E1,2.323430777E0,-2.807558632E1,-2.257658005E1
1.069072428E1,1.571486282E1,-3.115365410E1,-1.379581928E1
1.070739022E1,3.218585587E1,-2.969373322E1,-2.607877493E0
1.072405616E1,4.195844269E1,-2.284487534E1,2.300698996E0
1.074072209E1,5.470441055E1,-1.309173107E1,1.236550903E1
1.075738803E1,7.227461243E1,1.441675574E-1,3.399004745E1
1.077405397E1,6.862615204E1,1.750977898E1,5.020710373E1
1.079071991E1,4.193272018E1,2.694976234E1,5.278596497E1
1.080738584E1,2.121895218E1,2.792364120E1,4.674708176E1
1.082405178E1,1.188425255E1,2.607040024E1,3.439473343E1
1.084071772E1,4.900201797E0,2.328605270E1,1.866491318E1
1.085738366E1,-7.423433304E0,2.376910400E1,6.250949860E0
1.087404959E1,-1.587189198E1,3.129692459E1,-3.361915946E-1
1.089071553E1,-1.528325748E1,3.639273834E1,7.417750359E-1
1.090738147E1,-1.614646721E1,4.051347733E1,-8.922237158E-1
1.092404741E1,-1.704616928E1,3.898715591E1,-3.067897797E0
1.094071334E1,-1.333579922E1,3.568685532E1,-1.194317579E0
1.095737928E1,-3.482454300E0,3.358535767E1,9.509376526E0
1.097404522E1,8.709276199E0,3.432294846E1,2.587538528E1
1.099071116E1,2.484258461E1,3.694548035E1,4.268915176E1
1.100737709E1,4.196592331E1,3.806233215E1,4.950450897E1
1.102404303E1,5.851408386E1,3.854657745E1,4.607798767E1
1.104070897E1,7.567780304E1,3.420659637E1,4.054578018E1
1.105737491E1,7.714250946E1,2.337578392E1,3.153201866E1
1.107404084E1,6.375556183E1,1.545793343E1,2.047089767E1
1.109070678E1,5.726443481E1,7.140182972E0,9.612865448E0
1.110737272E1,4.825366211E1,-4.512863636E0,1.609831238E1
1.112403866E1,4.521627045E1,-2.153450584E1,2.760061073E1
1.114070459E1,4.463212585E1,-4.156213379E1,2.161945152E1
1.115737053E1,4.228596115E1,-5.191856766E1,-1.102493048E0
1.117403647E1,3.179463005E1,-5.042155838E1,-1.992144585E1
1.119070241E1,1.427229023E1,-4.649045181E1,-1.773620033E1
1.120736834E1,1.330409408E0,-4.400071716E1,-6.442375660E0
1.122403428E1,6.197111607E0,-4.681288147E1,-6.298507214E0
1.124070022E1,2.274318123E1,-4.815017319E1,-1.222194004E1
1.125736616E1,4.878636169E1,-4.313511658E1,-1.029870892E1
1.127403209E1,6.984140778E1,-2.185005951E1,1.116191959E1
1.129069803E1,7.837870026E1,2.601895571E0,4.051527405E1
1.130736397E1,7.839425659E1,2.957439041E1,5.596483231E1
1.132402991E1,6.852416229E1,4.658975220E1,5.327679443E1
1.134069584E1,4.410510635E1,4.292304993E1,3.085933685E1
1.135736178E1,9.121140480E0,3.823640823E1,5.166104317E0
1.137402772E1,-2.132423782E1,4.008456421E1,-2.007578135E0
1.139069366E1,-2.377598381E1,4.405665207E1,6.035895348E0
1.140735959E1,-9.375677109E0,4.509782791E1,4.441078663E0
1.142402553E1,-8.298309326E0,4.299663162E1,-1.927717686E0
1.144069147E1,-1.528176212E1,3.882773590E1,-3.470490217E0
1.145735741E1,-2.931207716E-1,4.040041733E1,8.497212410E0
1.147402334E1,2.397428894E1,4.165395737E1,2.304587364E1
1.149068928E1,3.411836243E1,4.239274216E1,2.758296394E1
1.150735522E1,4.240141678E1,4.561168671E1,2.552483749E1
1.152402116E1,6.148656845E1,4.172933197E1,2.465085793E1
1.154068709E1,6.638467407E1,3.177758217E1,2.603540611E1
1.155735303E1,6.038616943E1,1.943929100E1,2.635155678E1
1.157401897E1,5.167719269E1,6.460321903E0,2.380619240E1
1.159068491E1,4.055295944E1,2.412862539E0,2.059951019E1
1.160735084E1,4.403631210E1,-2.399702072E0,1.937588120E1
1.162401678E1,5.010540771E1,-1.509422398E1,1.890240097E1
1.164068272E1,4.874777985E1,-3.268206787E1,1.016500950E1
1.165734866E1,3.556422424E1,-4.141736603E1,-1.871187329E0
1.167401459E1,2.207019997E1,-4.556801605E1,-7.712067604E0
1.169068053E1,1.012851906E1,-4.882764053E1,-8.933303833E0
1.170734647E1,-6.131607890E-1,-5.179713440E1,-1.013599682E1
1.172401241E1,-3.967898130E0,-5.443133163E1,-1.444636726E1
1.174067834E1,2.924747086E1,-6.193252945E1,-1.585364628E1
1.175734428E1,7.352964783E1,-5.543930817E1,-6.629015923E0
1.177401022E1,7.839724731E1,-2.658096886E1,1.030498981E1
1.179067616E1,7.839843750E1,-6.011966988E-2,3.768426514E1
1.180734209E1,7.839843750E1,2.388186455E1,6.874310303E1
1.182400803E1,7.169793701E1,4.262155533E1,7.788159180E1
1.184067397E1,3.761636734E1,3.955066681E1,5.292444992E1
1.185733991E1,-7.758727670E-1,3.594348526E1,1.411376572E1
1.187400584E1,-2.232862473E1,3.786821365E1,-4.365705013E0
1.189067178E1,-1.667677689E1,4.304359055E1,5.068895817E0
1.190733772E1,-5.711667538E0,5.550929642E1,1.577707577E1
1.192400366E1,-4.940580368E0,6.505037689E1,7.286444187E0
1.194066959E1,5.660222054E0,6.660391998E1,-5.321039200E0
1.195733553E1,3.564677811E1,5.537709427E1,1.491895008E1
1.197400147E1,4.951886749E1,3.795854187E1,3.537578964E1
1.199066741E1,5.937221146E1,2.018435669E1,3.996282959E1
1.200733334E1,5.904020691E1,9.707083702E0,3.002394295E1
1.202399928E1,5.021667480E1,6.536593437E0,1.195214939E1
1.204066522E1,4.039742661E1,4.579563618E0,7.856832981E0
1.205733116E1,3.145903778E1,-1.065105200E0,1.150229836E1
1.207399709E1,2.596900558E1,-7.453343391E0,1.939831352E1
1.209066303E1,2.642154694E1,-1.796620941E1,2.876561737E1
1.210732897E1,2.822424126E1,-2.895793915E1,2.606651306E1
1.212399491E1,2.673710060E1,-3.360659409E1,1.002502918E1
1.214066084E1,2.539113808E1,-3.493820190E1,-5.203492165E0
1.215732678E1,1.975843430E1,-3.619952011E1,-1.137547874E1
1.217399272E1,1.138116169E1,-3.986711884E1,-9.234500885E0
1.219065866E1,6.845267296E0,-4.398426819E1,-8.860024452E0
1.220732459E1,2.091715813E1,-4.800151825E1,-8.241778374E0
1.222399053E1,5.034050369E1,-4.773591614E1,-7.733901978E0
1.224065647E1,6.442136383E1,-3.589114380E1,3.260220766E0
1.225732241E1,7.341987610E1,-1.745354652E1,2.644398117E1
1.227398834E1,7.838587952E1,5.353641510E0,3.865844345E1
1.229065428E1,7.839843750E1,2.980649376E1,3.596083450E1
1.230732022E1,7.516603851E1,4.561946106E1,4.207030869E1
1.232398616E1,5.774509048E1,4.521537399E1,4.059812546E1
1.234065209E1,1.776760483E1,3.885914230E1,2.586521721E1
1.235731803E1,-2.065693855E1,3.727987671E1,9.984052658E0
1.237398397E1,-2.980858803E1,3.922165298E1,5.610570908E0
1.239064991E1,-2.216950226E1,4.433122635E1,4.635196686E0
1.240731584E1,-1.790160370E1,4.872953415E1,4.101597309E0
1.242398178E1,-1.618714523E1,5.043830872E1,-3.506083488E0
1.244064772E1,1.081047344E1,5.566931915E1,-3.084946632E0
1.245731366E1,4.194139481E1,5.294150162E1,1.219831085E1
1.247397959E1,4.284857559E1,4.508436966E1,2.771875572E1
1.249064553E1,4.123551178E1,3.818316650E1,2.756561661E1
1.250731147E1,6.032335663E1,2.988037300E1,2.354986191E1
1.252397741E1,7.104619598E1,2.413490677E1,1.839602089E1
1.254064334E1,6.707411194E1,1.726690674E1,1.059153080E1
1.255730928E1,5.144149780E1,8.126324654E0,3.177369356E0
1.257397522E1,4.212324905E1,2.563909531E0,2.505883455E0
1.259064116E1,4.708237457E1,-1.049940681E1,1.138116169E1
1.260730709E1,4.938905716E1,-3.566831207E1,1.759143448E1
1.262397303E1,3.747309875E1,-5.343651581E1,2.042722702E1
1.264063897E1,2.301865387E1,-5.798736572E1,1.223868942E1
1.265730491E1,7.051947594E0,-5.518746185E1,-9.502796173E0
1.267397084E1,-6.026024818E0,-5.132963562E1,-2.521227455E1
1.269063678E1,4.634598255E0,-5.475885010E1,-2.245484543E1
1.270730272E1,4.293441772E1,-5.949095535E1,-8.693124771E0
1.272396866E1,6.878378296E1,-4.159862518E1,1.227607727E1
1.274063459E1,7.761957550E1,-1.438953781E1,1.502453327E1
1.275730053E1,7.839843750E1,5.120341301E0,2.784378242E1
1.277396647E1,7.839843750E1,2.239412880E1,5.869863129E1
1.279063241E1,7.839365387E1,3.573142242E1,6.836145020E1
1.280729834E1,6.440670776E1,4.279862213E1,4.307020950E1
1.282396428E1,2.956870842E1,4.563561249E1,1.503978729E1
1.284063022E1,2.220539474E1,3.965924072E1,8.061120033E0
1.285729616E1,1.048056316E1,3.923032761E1,1.443918896E1
1.287396209E1,-5.662614822E0,4.467728806E1,1.898286057E1
1.289062803E1,-1.076800060E1,4.812115860E1,1.433121300E1
1.290729397E1,-1.085204887E1,5.043023300E1,5.132006168E0
1.292395991E1,-9.452547073E0,4.222464752E1,-7.336992621E-1
1.294062584E1,-4.220041752E0,2.822334290E1,7.011269569E0
1.295729178E1,7.550850868E0,1.172064304E1,2.480220413E1
1.297395772E1,1.813998795E1,3.640081584E-1,3.677558899E1
1.299062366E1,1.730160332E1,4.943272591E0,2.751895523E1
1.300728959E1,2.506720924E1,1.853330803E1,1.369502163E1
1.302395553E1,2.610120773E1,1.895175362E1,1.290867996E1
1.304062147E1,2.988755035E1,9.997511864E0,2.105175400E1
1.305728741E1,4.033969879E1,-1.165603733E1,3.646123505E1
1.307395334E1,3.937000656E1,-3.008914566E1,2.401735878E1
1.309061928E1,4.177928162E1,-3.868984985E1,2.108973980E0
1.310728522E1,3.858785248E1,-4.136592102E1,-2.027887344E1
1.312395116E1,2.417229462E1,-3.743720627E1,-2.238276291E1
1.314061709E1,1.237268734E1,-2.907608604E1,-1.330558968E1
1.315728303E1,8.456833839E0,-1.826920128E1,-1.466052532E1
1.317394897E1,1.179960632E1,-9.110971451E0,-3.007149887E1
1.319061491E1,1.390588856E1,1.797907114E0,-3.685066605E1
1.320728084E1,2.235943222E1,6.144170284E0,-1.867598057E0
1.322394678E1,1.904896164E1,2.291366959E1,3.170699310E1
1.324061272E1,6.051747799E0,4.165724945E1,4.006901169E1
1.325727866E1,-9.949655533E0,4.438327026E1,2.534896469E1
1.327394459E1,-2.516531563E1,4.529254532E1,6.143871307E0
1.329061053E1,-2.484437752E1,4.197818375E1,-1.733899117E0
1.330727647E1,-1.176191998E1,3.768935013E1,1.252164078E1
1.332394241E1,4.254139423E0,3.538595963E1,2.976491928E1
1.334060834E1,1.951466560E1,3.588127136E1,3.394517899E1
1.335727428E1,3.050759125E1,3.492863083E1,1.792074585E1
1.337394022E1,3.322254944E1,2.013111687E1,3.089732230E-1
1.339060616E1,3.513201904E1,3.311068296E0,4.313362122E0
1.340727209E1,4.094687653E1,-1.785793495E1,1.004895782E1
1.342393803E1,3.172254753E1,-2.775883675E1,-2.216650963E0
1.344060397E1,1.974258232E1,-2.644398117E1,-1.741645813E1
1.345726991E1,1.229402351E1,-2.041077805E1,-2.299831581E1
1.347393584E1,8.536993027E0,-1.530897999E1,-1.647607994E1
1.349060178E1,4.810770035E0,-9.913763046E0,-3.926921129E0
1.350726772E1,4.542175770E0,-5.583352566E0,3.303889751E0
1.352393366E1,8.505886078E0,-2.783750057E0,2.697907388E-1
1.354059959E1,4.739284515E0,1.033998489E0,-5.114359379E0
1.355726553E1,-1.036810017E1,7.516155243E0,-5.067399979E0
1.357393147E1,-2.609672165E1,1.623081589E1,6.189933300E0
1.359059741E1,-2.462393951E1,1.924726677E1,2.350798607E1
1.360726334E1,8.613264084E0,2.082353973E1,3.215774155E1
1.362392928E1,2.458415985E1,3.052314568E1,2.373410797E1
1.364059522E1,2.322204399E1,2.981098175E1,1.434317684E1
1.365726116E1,2.967159843E1,2.026840401E1,1.322931862E1
1.367392709E1,3.743361664E1,9.784850121E0,-3.570390463E0
1.369059303E1,3.563630676E1,-4.665106773E0,-1.753580093E1
1.370725897E1,3.560400391E1,-1.015125084E1,-2.025464630E1
1.372392491E1,2.128864479E1,-1.488784313E1,-1.983320999E1
1.374059084E1,5.910571098E0,-1.416102314E1,-1.525843143E1
1.375725678E1,1.717149377E0,-1.312343597E1,-4.998606682E0
1.377392272E1,2.897409201E0,-1.015753174E1,3.299403429E0
1.379058866E1,7.332505703E0,-6.105586052E0,4.621138573E0
1.380725459E1,1.169880867E1,-1.960918188E0,3.083451033E0
1.382392053E1,1.025922680E1,1.298106313E0,-6.400800347E-1
1.384058647E1,2.143071890E0,5.077868938E0,-2.761616468E0
1.385725241E1,-3.381357431E0,9.377172470E0,4.998905659E0
1.387391834E1,2.380260229E0,1.332652664E1,1.645334816E1
1.389058428E1,1.053051376E1,1.706232071E1,1.730578995E1
1.390725022E1,8.414061546E0,1.751396561E1,3.163909674E0
1.392391616E1,-3.735794425E-1,1.768894196E1,-1.227757263E1
1.394058209E1,-3.253042459E0,1.649432564E1,-1.502782345E1
1.395724803E1,4.299602985E0,1.426780319E1,-6.842874527E0
1.397391397E1,1.285992622E1,1.437877083E1,3.531208038E0
1.399057991E1,1.685743523E1,1.422084427E1,1.162074280E1
1.400724584E1,1.690618896E1,1.337258816E1,1.360708523E1
1.402391178E1,2.069073677E1,1.222852039E1,1.250877953E1
1.404057772E1,2.808874702E1,1.064865875E1,1.407159138E1
1.405724366E1,3.627728653E1,9.600004196E0,1.396481228E1
1.407390959E1,3.902634048E1,8.340781212E0,1.200867939E1
1.409057553E1,3.755056763E1,6.057729721E0,1.385713482E1
1.410724147E1,3.436571884E1,7.692924738E-1,1.889372826E1
1.412390741E1,2.792782974E1,-3.896711588E0,2.209681892E1
1.414057334E1,2.059861374E1,-6.291627884E0,1.926581192E1
1.415723928E1,1.892573166E1,-6.719943523E0,1.509960842E1
1.417390522E1,1.981645966E1,-6.503093719E0,1.470748425E1
1.419057116E1,1.872054672E1,-5.668596745E0,1.711765480E1
1.420723709E1,1.764557076E1,-5.324030399E0,2.107388878E1
1.422390303E1,1.567478275E1,-3.635295868E0,2.141935158E1
1.424056897E1,1.767428589E1,-8.614161611E-1,1.857308960E1
1.425723491E1,2.220539474E1,1.782951951E0,1.896311951E1
1.427390084E1,2.406970215E1,4.109673023E0,2.112443733E1
1.429056678E1,2.381396866E1,5.219643593E0,2.074756622E1
1.430723272E1,2.337159538E1,6.853642464E0,1.810738564E1
1.432389866E1,2.403171539E1,8.903991699E0,1.329990673E1
1.434056459E1,2.425095749E1,8.207381248E0,8.527122498E0
1.435723053E1,2.073111534E1,6.448058605E0,6.339484692E0
1.437389647E1,1.762792397E1,5.079364300E0,6.192924023E0
1.439056241E1,1.648176193E1,4.340879440E0,6.221338749E0
1.440722834E1,1.583899021E1,2.206780672E0,4.087539196E0
1.442389428E1,1.462253952E1,-5.641079545E-1,7.082754970E-1
1.444056022E1,1.345932865E1,-4.200001717E0,-2.151745796E0
1.445722616E1,1.286650658E1,-7.504789352E0,-4.147958279E0
1.447389209E1,1.153878880E1,-9.670293808E0,-6.211767673E0
1.449055803E1,9.384650230E0,-1.100309563E1,-8.950652122E0
1.450722397E1,7.593622684E0,-1.242323589E1,-1.039561844E1
1.452388991E1,6.761518478E0,-1.353739452E1,-1.035793114E1
1.454055584E1,8.508877754E0,-1.466232014E1,-1.078833961E1
1.455722178E1,9.569196701E0,-1.556560993E1,-1.334895897E1
1.457388772E1,9.404391289E0,-1.657448387E1,-1.474427414E1
1.459055366E1,1.017158985E1,-1.813400650E1,-1.349432373E1
1.460721959E1,1.615304756E1,-2.029771614E1,-1.188634682E1
1.462388553E1,2.336142731E1,-2.196790695E1,-8.992527008E0
1.464055147E1,2.767149925E1,-2.477438927E1,-5.493023396E0
1.465721741E1,3.574547958E1,-2.882065201E1,1.198205948E0
1.467388334E1,5.036203766E1,-2.990310478E1,1.473679638E1
1.469054928E1,6.441538239E1,-2.318495560E1,3.666851044E1
1.470721522E1,7.675666809E1,-6.743871689E0,5.753422546E1
1.472388116E1,7.743383789E1,1.102672482E1,6.040860367E1
1.474054709E1,6.013253021E1,2.445075989E1,5.733711624E1
1.475721303E1,3.676900864E1,2.770828819E1,5.554549026E1
1.477387897E1,2.088365936E1,2.625285339E1,4.396033859E1
1.479054491E1,9.005088806E0,2.447049904E1,2.631686211E1
1.480721084E1,-4.677968502E0,2.747977257E1,1.042223835E1
1.482387678E1,-1.390917873E1,3.385365295E1,3.235096216E0
1.484054272E1,-1.945634079E1,3.827319717E1,1.038185954E0
1.485720866E1,-1.533230972E1,4.092713928E1,-2.912962437E0
1.487387459E1,-1.174905872E1,3.662783432E1,-7.203592777E0
1.489054053E1,-1.593619919E1,3.410938644E1,-1.622632861E0
1.490720647E1,-7.145566463E0,3.790261078E1,1.822642899E1
1.492387241E1,2.736222649E1,4.162584305E1,3.503062439E1
1.494053834E1,4.834129715E1,4.235176468E1,4.801736832E1
1.495720428E1,5.300431061E1,4.344857407E1,5.823711395E1
1.497387022E1,7.236194611E1,4.127648926E1,6.420541382E1
1.499053616E1,7.839485168E1,2.604796791E1,5.759165192E1
1.500720209E1,7.839843750E1,8.283951759E0,3.388715363E1
1.502386803E1,7.839843750E1,-1.136291623E0,1.665404510E1
1.504053397E1,7.806195068E1,-1.164168072E1,1.514477253E1
1.505719991E1,7.189804077E1,-2.875903702E1,2.800290489E1
1.507386584E1,5.835735321E1,-4.715924454E1,2.596272469E1
1.509053178E1,3.810330963E1,-5.429314423E1,5.114957333E0
1.510719772E1,2.511506653E1,-4.896881485E1,-1.124237823E1
1.512386366E1,2.151386833E1,-4.613481522E1,-1.373839092E1
1.514052959E1,1.294546986E1,-4.645037079E1,-5.312664509E0
1.515719553E1,2.070090771E0,-4.644020081E1,-9.990034252E-2
1.517386147E1,-4.879264355E0,-4.834787750E1,-6.594020844E0
1.519052741E1,9.002995491E0,-5.586851883E1,-1.787976837E1
1.520719334E1,4.922514725E1,-6.282026672E1,-2.028365898E1
1.522385928E1,7.626015472E1,-5.005844879E1,-6.517450809E0
1.524052522E1,7.839813995E1,-1.878216171E1,2.780220604E1
1.525719116E1,7.839843750E1,1.362832165E1,4.168177414E1
1.527385709E1,7.839843750E1,4.167579269E1,4.633820724E1
1.529052303E1,6.977739716E1,4.866492844E1,3.645196152E1
1.530718897E1,2.544228554E1,4.494827652E1,1.093669510E1
1.532385491E1,-1.367707539E1,4.482714081E1,4.510470629E-1
1.534052084E1,-2.753899574E1,4.690231323E1,-3.164508045E-1
1.535718678E1,-1.947787476E1,4.845854568E1,-5.077868938E0
1.537385272E1,-1.277827072E1,5.153930664E1,6.571289301E-1
1.539051866E1,-7.494918823E0,5.268875885E1,1.180618668E1
1.540718459E1,1.684337807E1,5.351847076E1,2.445075989E1
1.542385053E1,3.801148224E1,4.818935394E1,3.281995392E1
1.544051647E1,4.318087769E1,4.274747849E1,3.587319565E1
1.545718241E1,5.396114349E1,3.856003952E1,3.198097229E1
1.547384834E1,6.731518555E1,3.571706390E1,2.304497528E1
1.549051428E1,7.782924652E1,2.884308434E1,1.769103432E1
1.550718022E1,7.828687286E1,2.204567337E1,1.312433338E1
1.552384616E1,7.738358307E1,1.413440323E1,3.139383316E0
1.554051209E1,6.844459534E1,2.228017092E0,-1.878365755E0
1.555717803E1,5.437509918E1,-7.200601578E0,4.279862404E0
1.557384397E1,4.819115067E1,-1.823121452E1,1.263410378E1
1.559050991E1,4.528715897E1,-3.420958710E1,1.170329571E1
1.560717584E1,3.501237869E1,-4.303102875E1,2.709273338E0
1.562384178E1,2.011017799E1,-4.406113815E1,-8.450851440E0
1.564050772E1,6.504888535E0,-4.135934067E1,-9.877870560E0
1.565717366E1,3.076272726E0,-3.897010803E1,-5.036293507E0
1.567383959E1,3.872185230E0,-3.959672928E1,-6.550950050E0
1.569050553E1,6.775875568E0,-4.220310974E1,-1.136172009E1
1.570717147E1,3.029612541E1,-4.878157806E1,-1.440598869E1
1.572383741E1,6.490441895E1,-4.657898331E1,-1.167787170E1
1.574050334E1,7.832186890E1,-2.713969421E1,1.569811249E1
1.575716928E1,7.839843750E1,2.810669184E0,5.369374466E1
1.577383522E1,7.839843750E1,3.460260773E1,6.648397827E1
1.579050116E1,7.177062225E1,4.795156860E1,5.685047531E1
1.580716709E1,3.697209930E1,4.080929184E1,3.794209290E1
1.582383303E1,1.333998680E0,3.365893936E1,2.464278221E1
1.584049897E1,-1.623260880E1,3.356053543E1,1.682393646E1
1.585716491E1,-2.740559578E1,3.818765640E1,1.458066463E1
1.587383084E1,-2.859692192E1,4.495724869E1,1.099860954E1
1.589049678E1,-2.035604095E1,4.559643173E1,3.073879719E0
1.590716272E1,-1.504576969E1,4.543850708E1,1.975574136E0
1.592382866E1,4.686941206E-1,4.825485611E1,1.385145187E1
1.594049459E1,2.723480797E1,4.916353226E1,2.906621552E1
1.595716053E1,3.903022766E1,4.315365982E1,3.740550232E1
1.597382647E1,3.594528198E1,3.561746597E1,3.862464523E1
1.599049241E1,4.577619171E1,3.025664330E1,3.561925888E1
1.600715834E1,6.007689667E1,2.539412880E1,3.227528763E1
1.602382428E1,6.017919159E1,1.921406746E1,2.569113922E1
1.604049022E1,5.071019363E1,9.270991325E0,1.528654766E1
1.605715616E1,3.742105484E1,1.301695466E0,4.247858524E0
1.607382209E1,3.245923615E1,-6.850052834E0,2.893221617E0
1.609048803E1,3.663471222E1,-2.381008148E1,5.223830700E0
1.610715397E1,3.149373436E1,-3.899104309E1,3.956831455E0
1.612381991E1,1.863619995E1,-4.292215347E1,3.248555899E0
1.614048584E1,1.262662601E1,-4.085326004E1,1.527219057E0
1.615715178E1,1.631785393E1,-4.190430832E1,-4.398606300E0
1.617381772E1,1.359422398E1,-4.082903290E1,-9.332606316E0
1.619048366E1,1.373659706E1,-4.066033936E1,-1.065254688E1
1.620714959E1,3.364547729E1,-4.160759735E1,-7.190731049E0
1.622381553E1,6.065745544E1,-3.035175896E1,4.642374992E0
1.624048147E1,7.741529083E1,-5.745466232E0,1.613540077E1
1.625714741E1,7.839843750E1,2.000818443E1,2.650798798E1
1.627381334E1,7.839843750E1,3.937898254E1,4.920062256E1
1.629047928E1,6.610411835E1,4.414309311E1,5.437839127E1
1.630714522E1,3.103162003E1,3.785624695E1,3.388386536E1
1.632381116E1,-8.108677864E0,3.611786270E1,9.386744499E0
1.634047709E1,-1.946321869E1,3.874428558E1,-9.616156220E-1
1.635714303E1,-2.317388916E1,4.199972153E1,7.564609528E0
1.637380897E1,-2.591097832E1,5.092046356E1,1.707398605E1
1.639047491E1,-2.481626320E1,5.463651657E1,1.677338791E1
1.640714084E1,-1.455823231E1,5.568636703E1,9.851848602E0
1.642380678E1,1.568465328E1,5.369703293E1,1.234935760E1
1.644047272E1,3.563331604E1,4.408566284E1,1.496979713E1
1.645713866E1,2.929682350E1,3.308256912E1,2.234238243E1
1.647380459E1,2.671077919E1,2.506840706E1,2.869323349E1
1.649047053E1,3.847000885E1,1.826381683E1,3.231148148E1
1.650713647E1,4.352604294E1,1.838226128E1,3.358954620E1
1.652380241E1,4.451936340E1,1.705484390E1,2.709153748E1
1.654046834E1,5.265675354E1,1.126840019E1,1.811306953E1
1.655713428E1,6.146772385E1,-3.918845177E0,1.753071594E1
1.657380022E1,6.107530212E1,-3.033291626E1,2.032852364E1
1.659046616E1,4.103840256E1,-4.664389038E1,9.812067986E0
1.660713209E1,2.366262245E1,-4.894847870E1,-1.301306725E1
1.662379803E1,2.017777634E1,-4.974110031E1,-2.990609550E1
1.664046397E1,1.058794117E1,-4.812385178E1,-2.706431961E1
1.665712991E1,-1.421635747E0,-3.941427612E1,-1.458545017E1
1.667379584E1,6.083153248E0,-3.233391190E1,-1.378535080E1
1.669046178E1,2.566302299E1,-2.577548599E1,-2.286970139E1
1.670712772E1,5.310750198E1,-6.990033150E0,-9.197710991E0
1.672379366E1,7.815467072E1,1.727857208E1,3.498276901E1
1.674045959E1,7.822167206E1,4.477479553E1,7.237540436E1
1.675712553E1,4.748018265E1,5.292594528E1,6.748178864E1
1.677379147E1,-1.174128151E1,5.226313400E1,3.307479095E1
1.679045741E1,-3.069393158E1,5.248147964E1,1.570768452E1
1.680712334E1,-3.003470993E1,4.787170792E1,1.788066673E1
1.682378928E1,-3.574757385E1,4.398217392E1,2.149353027E1
1.684045522E1,-3.495315552E1,3.110161018E1,1.775205231E1
1.685712116E1,-2.370898438E1,1.994088745E1,9.861719131E0
1.687378709E1,-3.021536827E0,1.584347725E1,1.317518044E1
1.689045303E1,1.837807465E1,2.248086739E1,2.700838661E1
1.690711897E1,4.543671036E1,2.576980209E1,3.728077316E1
1.692378491E1,5.984180069E1,1.010189915E1,2.728296471E1
1.694045084E1,6.319235229E1,-8.984151840E0,1.760818291E1
1.695711678E1,4.327359772E1,-2.721925545E1,1.131027412E1
1.697378272E1,1.976950073E1,-3.089193916E1,4.897809029E0
1.699044866E1,8.941679001E0,-3.003201866E1,-3.423830032E0
1.700711459E1,9.317052960E-1,-2.606980324E1,-1.162433243E1
1.702378053E1,-5.117350101E0,-2.130539322E1,-1.808495331E1
1.704044647E1,-7.949255943E0,-1.591944885E1,-2.086511421E1
1.705711241E1,-6.400202274E0,-8.634799957E0,-2.014846420E1
1.707377834E1,2.803789854E0,3.355335474E0,-8.231010437E0
1.709044428E1,1.886680794E1,1.935434532E1,1.551835251E1
1.710711022E1,2.713221550E1,3.256093216E1,3.861118317E1
1.712377616E1,8.101200104E0,3.717997742E1,4.290061951E1
1.714044209E1,-1.228056431E1,3.105106163E1,2.779383087E1
1.715710803E1,-2.029801559E1,1.948954010E1,7.973782539E0
1.717377397E1,-2.159342957E1,1.114546871E1,-1.647458434E0
1.719043991E1,-1.840140343E1,5.379364491E0,-2.225923300E0
1.720710584E1,-1.089392376E1,6.352943897E0,4.341477394E0
1.722377178E1,4.686343193E0,1.725135422E1,2.400031090E1
1.724043772E1,4.192314911E1,2.905096054E1,3.054916763E1
1.725710366E1,6.133971024E1,3.028924561E1,1.915334892E1
1.727376959E1,5.821528244E1,1.831376648E1,9.765707016E0
1.729043553E1,3.895485306E1,-5.683851242E0,7.720741272E0
1.730710147E1,1.115892887E1,-1.636870193E1,9.528220177E0
1.732376741E1,1.649851203E0,-2.291935349E1,3.361616611E0
1.734043334E1,-3.580559969E0,-2.531815720E1,-5.082953453E0
1.735709928E1,-1.055503941E1,-2.292324066E1,-8.915956497E0
1.737376522E1,-1.205474091E1,-2.036890221E1,-8.062616348E0
1.739043116E1,-7.981558800E0,-1.815942955E1,-5.228915691E0
1.740709709E1,-2.306082726E0,-1.387567902E1,-3.694518089E0
1.742376303E1,4.109972000E0,-7.482057095E0,-8.859127045E0
1.744042897E1,1.220728397E1,2.472383976E0,-1.470598888E1
1.745709491E1,2.398655128E1,9.732208252E0,-1.105364418E1
1.747376084E1,2.518386078E1,1.206700420E1,-1.858924150E0
1.749042678E1,1.321825123E1,1.085204887E1,5.007579803E0
1.750709272E1,1.874477386E0,9.287142754E0,9.226125717E0
1.752375866E1,-2.826222658E0,7.435995579E0,1.069202900E1
1.754042459E1,-3.551547050E0,5.026124001E0,9.528220177E0
1.755709053E1,-2.597109795E0,2.157428741E0,5.736493111E0
1.757375647E1,2.869293451E0,9.173483849E-1,-1.791625917E-1
1.759042241E1,9.388538361E0,6.799803734E0,-5.664409637E0
1.760708834E1,1.553899002E1,1.573520184E1,-4.435395718E0
1.762375428E1,2.568485641E1,2.058365822E1,9.189635277E0
1.764042022E1,3.124936676E1,2.546651268E1,2.568814659E1
1.765708616E1,3.728316879E1,2.866063118E1,3.230639648E1
1.767375209E1,4.618087769E1,2.840071106E1,3.529742432E1
1.769041803E1,4.917131042E1,2.525534630E1,3.526931000E1
1.770708397E1,4.365854645E1,2.177887344E1,2.865584564E1
1.772374991E1,3.884209061E1,1.628824234E1,2.329233360E1
1.774041584E1,3.577987671E1,9.885049820E0,2.432154655E1
1.775708178E1,3.375136185E1,2.832803011E0,2.864627457E1
1.777374772E1,3.209164047E1,-3.509373426E0,3.163491058E1
1.779041366E1,3.037808037E1,-9.199805260E0,3.001556778E1
1.780707959E1,2.785185814E1,-1.427737427E1,2.283679962E1
1.782374553E1,2.433231354E1,-1.738804436E1,1.370728493E1
1.784041147E1,2.098146629E1,-1.798834419E1,6.934699059E0
1.785707741E1,1.857159424E1,-1.855035782E1,5.361119270E0
1.787374334E1,1.832184219E1,-2.188774681E1,5.003990173E0
1.789040928E1,1.832752609E1,-2.567887497E1,4.586442947E0
1.790707522E1,1.734347725E1,-2.757907486E1,3.013461113E0
1.792374116E1,1.505384541E1,-2.759133911E1,-7.609176040E-1
1.794040709E1,1.119482040E1,-2.693181801E1,-4.389334202E0
1.795707303E1,7.479066372E0,-2.801128006E1,-5.379364491E0
1.797373897E1,4.702195644E0,-2.832593536E1,-3.136990547E0
1.799040491E1,6.840182781E0,-2.879851723E1,-2.354836702E0
1.800707084E1,1.532124329E1,-2.964497948E1,-4.539483547E0
1.802373678E1,2.488625336E1,-2.865255547E1,-1.103450203E1
1.804040272E1,3.086890793E1,-2.725574493E1,-1.525693607E1
1.805706866E1,4.158127594E1,-2.629383087E1,-5.402993679E0
1.807373459E1,5.713222885E1,-1.739821434E1,1.816690826E1
1.809040053E1,7.593712616E1,-3.336791277E0,3.736960983E1
1.810706647E1,7.839813995E1,1.522672653E1,2.937877655E1
1.812373241E1,7.416733551E1,3.160799026E1,1.126361465E1
1.814039834E1,6.352944183E1,3.666731644E1,7.544569969E0
1.815706428E1,4.581118774E1,3.399842072E1,1.003669453E1
1.817373022E1,2.497418976E1,3.009273529E1,1.202752304E1
1.819039616E1,9.731908798E0,2.936202812E1,1.189681530E1
1.820706209E1,-6.643074155E-1,3.143032455E1,8.094619751E0
1.822372803E1,-7.071090221E0,3.400918961E1,4.645066738E0
1.824039397E1,-8.638090134E0,3.555734634E1,3.851248026E0
1.825705991E1,-6.399304867E0,3.570629883E1,4.905585289E0
1.827372584E1,-2.590230405E-1,3.311337662E1,6.604190350E0
1.829039178E1,5.294120312E0,3.299313736E1,1.080658531E1
1.830705772E1,1.256082344E1,3.486911011E1,1.870439529E1
1.832372366E1,2.785305405E1,3.407140350E1,3.068465996E1
1.834038959E1,4.208197403E1,3.069662476E1,4.092713928E1
1.835705553E1,5.256104279E1,2.773042107E1,4.243850327E1
1.837372147E1,6.934968567E1,2.392463684E1,3.854179382E1
1.839038741E1,7.832605743E1,1.836311913E1,3.678635788E1
1.840705334E1,7.839843750E1,1.010608673E1,3.298326492E1
1.842371928E1,7.839843750E1,3.404388428E0,2.567648315E1
1.844038522E1,7.839843750E1,-8.763413429E0,1.486271858E1
1.845705116E1,7.837810516E1,-2.585833740E1,1.724387550E1
1.847371709E1,7.073751831E1,-5.148068237E1,2.366740799E1
1.849038303E1,4.869424057E1,-6.911189270E1,1.682573128E1
1.850704897E1,2.536571503E1,-6.814669037E1,6.378068924E0
1.852371491E1,1.356042480E1,-6.537550354E1,-8.503493667E-1
1.854038084E1,1.721635938E0,-6.434060669E1,-4.734498501E0
1.855704678E1,-1.169252777E1,-6.213920975E1,-8.734400749E0
1.857371272E1,-1.487199116E1,-6.380730820E1,-1.687269020E1
1.859037866E1,1.527577972E1,-7.390561676E1,-2.121057892E1
1.860704459E1,6.812036896E1,-7.704888916E1,-2.109033966E1
1.862371053E1,7.839186096E1,-5.947390747E1,-1.454237938E0
1.864037647E1,7.839843750E1,-3.272095108E1,3.032483864E1
1.865704241E1,7.839843750E1,-1.750977898E1,3.769054413E1
1.867370834E1,7.796623993E1,-8.942875862E0,4.865685272E1
1.869037428E1,5.835645676E1,-7.179963589E0,6.689614105E1
1.870704022E1,3.616123199E1,-5.901299119E-1,7.326583862E1
1.872370616E1,1.602293777E1,1.018355370E1,6.955187988E1
1.874037209E1,-1.771286964E0,1.857249069E1,6.173601913E1
1.875703803E1,-1.425404453E1,2.252334023E1,4.653083038E1
1.877370397E1,-2.459373093E1,2.023849487E1,3.655156326E1
1.879036991E1,-2.407538414E1,1.504188156E1,4.090979004E1
1.880703584E1,-1.721187210E1,8.950054169E0,5.203372192E1
1.882370178E1,-7.992027760E0,5.058426857E0,5.990521240E1
1.884036772E1,6.416054726E0,1.741376638E0,6.337390900E1
1.885703366E1,2.387588310E1,-1.226022482E0,6.204648972E1
1.887369959E1,4.248336792E1,-3.747160196E0,6.196004868E1
1.889036553E1,5.735087585E1,-6.953243732E0,6.317560196E1
1.890703147E1,6.901498413E1,-1.025414276E1,6.599404907E1
1.892369741E1,7.728757477E1,-1.306720448E1,6.192894363E1
1.894036334E1,7.762525940E1,-1.511934853E1,4.765456009E1
1.895702928E1,6.614987946E1,-1.436291790E1,3.072623634E1
1.897369522E1,5.470172119E1,-1.602234077E1,1.499970818E1
1.899036116E1,4.772933578E1,-2.301626205E1,1.290359497E1
1.900702709E1,4.418017960E1,-3.699602890E1,1.031964588E1
1.902369303E1,3.939004898E1,-4.732554626E1,3.142673492E0
1.904035897E1,3.612803268E1,-5.156203842E1,-1.577887058E1
1.905702491E1,2.631626320E1,-4.614379120E1,-2.998236656E1
1.907369084E1,1.774936104E1,-3.954498291E1,-2.647329330E1
1.909035678E1,1.602742577E1,-3.856003952E1,-2.298694992E1
1.910702272E1,1.737996864E1,-3.988087463E1,-2.040838432E1
1.912368866E1,3.189363480E1,-4.342883301E1,-1.309980679E1
1.914035459E1,5.514439392E1,-4.358735657E1,-3.610171080E0
1.915702053E1,6.824689484E1,-3.161068344E1,1.768983841E1
1.917368647E1,7.827401733E1,-1.224138165E1,4.809753036E1
1.919035241E1,7.839843750E1,1.630947876E1,6.246912003E1
1.920701834E1,7.609504700E1,3.954019928E1,6.155566025E1
1.922368428E1,5.862535095E1,4.333730698E1,4.977011108E1
1.924035022E1,2.325733948E1,4.159712982E1,3.163461113E1
1.925701616E1,-1.471256924E1,4.575345993E1,1.798864174E1
1.927368209E1,-1.643599892E1,5.260231781E1,1.339143181E1
1.929034803E1,-7.122236729E0,5.491647720E1,4.118646085E-1
1.930701397E1,-7.141678333E0,5.399763107E1,-1.067049313E1
1.932367991E1,-4.511966228E0,5.028666306E1,-1.146700478E1
1.934034584E1,1.694776535E1,4.783581543E1,9.283852577E0
1.935701178E1,3.439024353E1,4.289912415E1,2.664736938E1
1.937367772E1,3.724069595E1,3.845475388E1,3.149582672E1
1.939034366E1,4.488336945E1,3.323511124E1,3.082045364E1
1.940700959E1,5.717290878E1,2.557209587E1,3.074926567E1
1.942367553E1,6.296503448E1,1.831825447E1,2.798077011E1
1.944034147E1,5.728267670E1,1.454656696E1,1.773709679E1
1.945700741E1,4.662743759E1,6.952346325E0,9.065208435E0
1.947367334E1,3.181018448E1,3.527020693E0,3.072085142E0
1.949033928E1,3.053630447E1,-5.255835056E0,6.645765781E0
1.950700522E1,3.068436050E1,-1.989452553E1,1.542921925E1
1.952367116E1,2.929831886E1,-3.631616974E1,1.627448463E1
1.954033709E1,2.322024918E1,-4.394358826E1,7.935796261E0
1.955700303E1,2.057917213E1,-4.609892654E1,-2.389233351E0
1.957366897E1,1.441705513E1,-4.529164505E1,-8.736793518E0
1.959033491E1,6.805785656E0,-4.526861572E1,-7.022934437E0
1.960700084E1,8.045567513E0,-4.642674255E1,-5.801099300E0
1.962366678E1,3.023092079E1,-5.034439087E1,-7.632206917E0
1.964033272E1,6.048367691E1,-4.612374878E1,9.939187169E-1
1.965699866E1,7.568079376E1,-2.496252441E1,2.615803719E1
1.967366459E1,7.839754486E1,8.703892678E-2,4.460430908E1
1.969033053E1,7.839843750E1,2.497389030E1,4.679463959E1
1.970699647E1,7.530541992E1,4.115714645E1,4.619015121E1
1.972366241E1,6.160052872E1,4.037170410E1,4.176671982E1
1.974032834E1,3.064817047E1,3.391138077E1,2.947658348E1
1.975699428E1,5.324030295E-2,3.042683411E1,1.759891129E1
1.977366022E1,-8.898010254E0,3.066581726E1,1.216331577E1
1.979032616E1,-1.833709717E1,3.403192139E1,1.349222946E1
1.980699209E1,-2.603779793E1,3.990001678E1,1.520698643E1
1.982365803E1,-2.507139778E1,4.533531570E1,2.258615112E1
1.984032397E1,-2.227029991E1,4.340969086E1,2.522124863E1
1.985698991E1,-9.558130264E0,4.265983963E1,2.645026207E1
1.987365584E1,1.720858192E1,3.996851349E1,2.949183846E1
1.989032178E1,3.198844910E1,3.127508926E1,3.071427155E1
1.990698772E1,3.340171051E1,2.579492760E1,3.362753296E1
1.992365366E1,4.741796875E1,2.532832718E1,3.585764313E1
1.994031959E1,6.166004944E1,1.895414543E1,3.142673492E1
1.995698553E1,5.852485275E1,1.173440266E1,2.196222305E1
1.997365147E1,6.117311096E1,4.001996040E0,1.053709316E1
1.999031741E1,6.529295349E1,-1.446551037E1,8.745168686E0
2.000698334E1,4.914020157E1,-3.407648468E1,5.695217133E0
2.002364928E1,2.705145836E1,-4.455017090E1,-3.062214851E0
2.004031522E1,1.174367428E1,-4.720231628E1,-1.538914013E1
2.005698116E1,3.229114056E0,-4.846273422E1,-2.142922211E1
2.007364709E1,-5.980860233E0,-4.937619400E1,-1.861107635E1
2.009031303E1,-1.094447136E1,-4.679613495E1,-1.390828133E1
2.010697897E1,5.379065514E0,-4.578486633E1,-1.012881851E1
2.012364491E1,3.211825943E1,-4.107997894E1,-7.253243446E0
2.014031084E1,4.943122864E1,-1.783460426E1,-2.793321371E0
2.015697678E1,7.472904968E1,1.395015621E1,2.790150833E1
2.017364272E1,7.839784241E1,4.387090683E1,5.638327789E1
2.019030866E1,6.183113480E1,5.625436401E1,6.653811646E1
2.020697459E1,2.278415871E1,4.503112793E1,4.581597519E1
2.022364053E1,-8.886644363E0,3.633501053E1,1.562483311E1
2.024030647E1,-3.066790962E1,3.494358444E1,-1.323829174E0
2.025697241E1,-3.518974686E1,2.928784943E1,-5.750251770E0
2.027363834E1,-3.117548752E1,2.121596146E1,-6.976872444E0
2.029030428E1,-2.884697342E1,1.250010586E1,-4.891228676E0
2.030697022E1,-2.671197701E1,3.843770504E0,-3.689732552E0
2.032363616E1,-2.081725883E1,2.875574589E0,-2.485843658E0
2.034030209E1,-1.137936687E1,1.459741497E1,2.612065077E0
2.035696803E1,9.010472298E0,4.143441772E1,2.748844719E1
2.037363397E1,5.225685501E1,5.256672287E1,5.530052567E1
2.039029991E1,7.143921661E1,4.123940277E1,4.464707947E1
2.040696584E1,7.658467865E1,2.463081932E1,2.570190620E1
2.042363178E1,6.639215088E1,-9.635896683E0,1.068963623E1
2.044029772E1,3.332753372E1,-2.724796867E1,6.228517532E0
2.045696366E1,2.351008034E1,-3.949682617E1,1.563111424E0
2.047362959E1,1.403151226E1,-4.533710861E1,-8.228617668E0
2.049029553E1,-3.478565931E0,-4.484807587E1,-1.851835442E1
2.050696147E1,-1.835952950E1,-4.062444687E1,-2.493650246E1
2.052362741E1,-1.587129307E1,-3.692962646E1,-2.686451912E1
2.054029334E1,2.333002090E0,-3.250589752E1,-2.448156738E1
2.055695928E1,1.334178066E1,-2.053998947E1,-2.020888329E1
2.057362522E1,2.676820755E1,-5.261218548E-1,3.657429457E0
2.059029116E1,6.964131165E1,2.682444000E1,4.918207550E1
2.060695709E1,7.373991394E1,5.544828033E1,5.899504089E1
2.062362303E1,4.470989227E1,5.765476227E1,4.206013870E1
2.064028897E1,1.698186302E1,3.854568100E1,1.407009602E1
2.065695491E1,-7.979465485E0,2.524427795E1,1.078564763E0
2.067362084E1,-1.974946022E1,1.554916000E1,-4.914259434E0
2.069028678E1,-2.632463837E1,9.435198784E0,-1.160877895E1
2.070695272E1,-2.873660278E1,5.729613781E0,-1.413081455E1
2.072361866E1,-2.611915398E1,3.497110367E0,-9.415757179E0
2.074028459E1,-2.164906311E1,1.952543259E0,-4.538586140E0
2.075695053E1,-1.480798340E1,3.984946966E0,-1.698904037E-1
2.077361647E1,-8.995517731E0,1.653829193E1,4.735096931E0
2.079028241E1,1.033220863E1,3.809881973E1,2.619153786E1
2.080694834E1,4.548725891E1,4.710002136E1,4.159084702E1
2.082361428E1,5.021517944E1,4.171976089E1,2.966023254E1
2.084028022E1,3.924288940E1,3.106452179E1,6.408277988E0
2.085694616E1,3.637868118E1,1.397827148E1,-4.291228294E0
2.087361209E1,2.762693214E1,-2.560918331E0,-4.510470629E-1
2.089027803E1,1.854287910E1,-1.406291771E1,7.322934628E0
2.090694397E1,1.516899967E1,-2.217877388E1,9.205786705E0
2.092360991E1,1.324756336E1,-2.811925507E1,4.472185612E0
2.094027584E1,8.866903305E0,-3.201925659E1,-4.010370731E0
2.095694178E1,-8.042874932E-1,-3.060150909E1,-9.745966911E0
2.097360772E1,-1.038574791E1,-2.592653275E1,-1.094148064E1
2.099027366E1,-1.307169056E1,-2.132603264E1,-1.041924667E1
2.100693959E1,-9.911669731E0,-1.662652779E1,-9.843474388E0
2.102360553E1,-2.484348059E0,-9.093623161E0,-1.281685543E1
2.104027147E1,1.404706573E1,1.288534999E0,-9.845867157E0
2.105693741E1,3.918306732E1,1.593918991E1,4.345963955E0
2.107360334E1,4.528446579E1,3.042055321E1,1.922004890E1
2.109026928E1,3.243291473E1,3.418595886E1,3.142673492E1
2.110693522E1,1.585514164E1,3.037060165E1,3.530101395E1
2.112360116E1,3.948157310E0,2.303600311E1,2.710679245E1
2.114026709E1,-3.742972851E0,1.857488441E1,1.577079487E1
2.115693303E1,-9.376275063E0,1.706920052E1,3.535096407E0
2.117359897E1,-1.181336498E1,1.659422493E1,-4.843072891E0
2.119026491E1,-1.281536007E1,1.491476250E1,-7.237690449E0
2.120693084E1,-1.224407387E1,1.181276703E1,-4.534996986E0
2.122359678E1,-9.968798637E0,9.186345100E0,8.273184299E-1
2.124026272E1,-6.673582554E0,6.807281494E0,5.940182209E0
2.125692866E1,-5.747859001E0,5.206781864E0,1.013539886E1
2.127359459E1,-4.008276939E0,4.191029072E0,1.144786167E1
2.129026053E1,-9.780662656E-1,3.589533091E0,1.012104130E1
2.130692647E1,-1.476072431E0,6.316752911E0,1.387807178E1
2.132359241E1,-8.356932998E-1,-1.552343667E-1,1.987657928E1
2.134025834E1,4.030709743E0,1.931007862E0,2.388904381E1
2.135692428E1,1.060917759E1,2.795415163E0,2.035693932E1
2.137359022E1,9.580562592E0,4.724927425E0,1.233709431E1
2.139025616E1,6.634399891E0,5.194818020E0,1.165334511E1
2.140692209E1,3.784847260E0,4.034897089E-1,3.048455954E0
2.142358803E1,1.156570816E1,7.383353233E0,4.622933388E0
2.144025397E1,8.675178528E0,9.491430283E0,5.453541756E0
2.145691991E1,2.975774050E0,5.708078384E0,5.862116337E0
2.147358584E1,1.458126307E0,3.988237143E0,6.292226315E0
2.149025178E1,3.409772366E-2,3.722035646E0,7.807780266E0
2.150691772E1,-9.912267923E-1,4.173980236E0,5.794219971E0
2.152358366E1,3.753441334E0,4.716253281E0,6.575476646E0
2.154024959E1,2.660220623E0,5.303092957E0,9.377771378E0
2.155691553E1,1.900798440E0,5.801398277E0,1.086610699E1
2.157358147E1,1.852941990E0,5.280062199E0,8.181359291E0
2.159024741E1,9.891330600E-1,3.760919094E0,5.828317642E0
2.160691334E1,1.007976532E-1,2.612065077E0,7.013662338E0
2.162357928E1,-1.704287887E0,5.138586521E0,7.354938507E0
2.164024522E1,-3.475574851E-1,6.341279030E0,7.621140003E0
2.165691116E1,2.569592476E0,5.132305622E0,8.567800522E0
2.167357709E1,1.098903775E0,6.044867992E0,9.629615784E0
2.169024303E1,-1.032503009E0,6.291927338E0,9.302098274E0
2.170690897E1,-1.580758452E0,6.048158169E0,8.927920341E0
2.172357491E1,-1.164407372E0,6.085845470E0,8.914759636E0
2.174024084E1,-1.142871857E0,6.442675114E0,9.324232101E0
2.175690678E1,-1.233201027E0,6.415755749E0,8.505587578E0
2.177357272E1,-2.086840391E0,6.114260197E0,7.961220264E0
2.179023866E1,-2.624328136E0,5.638387680E0,8.659625053E0
2.180690459E1,-1.917249203E0,5.656632900E0,8.703293800E0
2.182357053E1,-1.900499344E0,6.337091446E0,8.080861092E0
2.184023647E1,-3.073281527E0,6.469594002E0,8.498408318E0
2.185690241E1,-2.862414122E0,6.134000778E0,7.937890053E0
2.187356834E1,-1.945364833E0,5.192125797E0,7.036095142E0
2.189023428E1,-1.791027784E0,5.185545921E0,6.353243351E0
2.190690022E1,-2.746960402E0,5.801697731E0,5.205884933E0
2.192356616E1,-3.406183004E0,6.048158169E0,4.978566647E0
2.194023209E1,-3.151646614E0,5.811567783E0,6.090032578E0
2.195689803E1,-2.140978098E0,5.974279881E0,6.996613503E0
2.197356397E1,-1.865205288E0,6.422036648E0,6.689435005E0
2.199022991E1,-2.579462767E0,6.380461693E0,5.987739563E0
2.200689584E1,-2.993720293E0,6.592226505E0,6.347560406E0
2.202356178E1,-2.542074919E0,6.691229343E0,7.031608582E0
2.204022772E1,-2.370988131E0,7.098009109E0,6.498906136E0
2.205689366E1,-2.472683191E0,7.366005421E0,5.704489231E0
2.207355959E1,-3.208775282E0,7.432106972E0,5.205585480E0
2.209022553E1,-2.852842808E0,7.462316513E0,5.473880768E0
2.210689147E1,-2.212164640E0,7.946264744E0,6.133103371E0
2.212355741E1,-2.579462767E0,8.386544228E0,6.281159401E0
2.214022334E1,-3.212663412E0,8.261519432E0,5.894718647E0
2.215688928E1,-3.640679598E0,8.260921478E0,5.917151451E0
2.217355522E1,-3.482753277E0,8.082955360E0,6.062814236E0
2.219022116E1,-3.230011463E0,8.069195747E0,5.563910961E0
2.220688709E1,-3.329313517E0,8.260024071E0,5.089234829E0
2.222355303E1,-3.656532049E0,8.542975426E0,4.391128540E0
2.224021897E1,-3.286242723E0,8.136195183E0,4.267001152E0
2.225688491E1,-3.015853882E0,8.063812256E0,4.456333160E0
2.227355084E1,-3.568296671E0,8.053643227E0,4.536193371E0
2.229021678E1,-3.944867134E0,7.960322857E0,4.803591251E0
2.230688272E1,-4.172185421E0,7.965108395E0,4.648057938E0
