"Time (s)","Gyroscope x (rad/s)","Gyroscope y (rad/s)","Gyroscope z (rad/s)"
2.452428100E-2,-5.778017044E-1,-5.900190473E-1,1.919642538E-1
4.119021800E-2,-2.082285285E-1,-2.644280791E-1,1.958585232E-1
5.785615600E-2,1.656207144E-1,6.574432552E-2,2.102901936E-1
7.452209300E-2,2.836703360E-1,1.744018942E-1,2.476293147E-1
9.118803100E-2,2.082285285E-1,7.261654735E-2,2.541197538E-1
1.078539680E-1,3.733910993E-2,-8.643736690E-2,2.172387838E-1
1.245199060E-1,-1.022434905E-1,-1.524871141E-1,1.455385387E-1
1.411858430E-1,-9.231694043E-2,-1.056796089E-1,3.520108387E-2
1.578517810E-1,1.038470119E-2,-3.283398226E-3,-2.909243479E-2
1.745177180E-1,2.680169232E-2,2.443459071E-2,-1.641699113E-2
1.911836560E-1,-3.794997558E-2,-6.047561392E-2,3.321577236E-2
2.078495930E-1,-7.009673119E-2,-1.343138963E-1,6.383536756E-2
2.245155310E-1,-6.139190868E-2,-1.304959953E-1,5.161807314E-2
2.411814680E-1,-3.733910993E-2,-7.017309219E-2,1.206457894E-2
2.578474060E-1,6.490438245E-3,-8.933897130E-3,2.290742937E-3
2.745133430E-1,-3.901898861E-2,-4.222602770E-2,9.773836471E-3
2.911792810E-1,-1.236237586E-1,-1.350774765E-1,3.268126398E-2
3.078452180E-1,-1.892917305E-1,-2.350302190E-1,4.787652567E-2
3.245111560E-1,-2.964221239E-1,-4.035525322E-1,1.056796089E-1
3.411770930E-1,-3.714057803E-1,-7.429642677E-1,1.767689884E-1
3.578430310E-1,-6.132318974E-1,-1.166599035E0,1.320231557E-1
3.745089680E-1,-1.177518249E0,-1.370933294E0,1.511890348E-2
3.911749060E-1,-1.657428861E0,-1.383379698E0,-1.560759544E-1
4.078408430E-1,-1.706603527E0,-1.192637086E0,-2.101374865E-1
4.245067810E-1,-1.560683131E0,-1.167744398E0,-2.411388755E-1
4.411727180E-1,-1.279685378E0,-1.215239167E0,-2.535852492E-1
4.578386560E-1,-1.034346819E0,-1.335274100E0,-1.984546930E-1
4.745045930E-1,-8.449023366E-1,-1.544266105E0,-1.080467105E-1
4.911705310E-1,-9.340122342E-1,-2.052123785E0,-1.661552191E-1
5.078364680E-1,-7.693078518E-1,-2.179107428E0,-1.237001177E-2
5.245024060E-1,-5.760455132E-1,-2.018984556E0,1.598175019E-1
5.411683430E-1,-6.428588033E-1,-2.080452681E0,6.518690586E-1
5.578342810E-1,-5.346593857E-1,-1.612606645E0,1.200043917E0
5.745002180E-1,-5.097666383E-1,-1.179961681E0,1.123609424E0
5.911661560E-1,-6.256018877E-1,-7.693078518E-1,7.928261161E-1
6.078320930E-1,-6.614138484E-1,-3.917170316E-2,5.937605500E-1
6.244980310E-1,-6.302597523E-1,3.030653000E-1,2.729038298E-1
6.411639680E-1,-6.131555438E-1,5.383246019E-2,-6.238456443E-2
6.578299060E-1,-6.204859018E-1,-3.198640645E-1,-2.044106275E-1
6.744958430E-1,-6.305651665E-1,-4.187478125E-1,-2.467893660E-1
6.911617810E-1,-5.207622051E-1,-5.878809690E-1,-3.191768527E-1
7.078277180E-1,-3.003927469E-1,-7.915280461E-1,-3.736201823E-1
7.244936560E-1,3.245219216E-2,-8.588758707E-1,-4.338667095E-1
7.411595930E-1,2.654971182E-1,-9.411135316E-1,-5.134318471E-1
7.578255310E-1,1.751654744E-1,-1.081077933E0,-5.281689763E-1
7.744914680E-1,-1.528689116E-1,-1.409646869E0,-4.378373325E-1
7.911574060E-1,-2.874118686E-1,-1.469282508E0,-5.234347582E-1
8.078233430E-1,-3.656789362E-1,-1.089477301E0,-8.087849617E-1
8.244892810E-1,-4.122573733E-1,-5.607738495E-1,-9.524145722E-1
8.411552180E-1,-4.215730429E-1,-2.187659442E-1,-1.029994369E0
8.578211560E-1,-4.864010811E-1,-4.375318810E-2,-1.132237911E0
8.744870930E-1,-6.272817850E-1,-3.283398226E-2,-1.270140648E0
8.911530310E-1,-5.445095897E-1,-1.196531355E-1,-1.137659311E0
9.078189680E-1,-2.158643454E-1,5.505418777E-2,-8.347467184E-1
9.244849060E-1,2.048687786E-1,5.525271893E-1,-4.691441655E-1
9.411508430E-1,6.243801713E-1,8.375719786E-1,-2.510654330E-1
9.578167810E-1,7.398335934E-1,8.895718455E-1,-5.696314201E-2
9.744827180E-1,5.751292109E-1,5.749764442E-1,1.085812151E-1
9.911486560E-1,3.917170465E-1,1.881463528E-1,1.730274558E-1
1.007814593E0,2.234237939E-1,2.052505612E-1,1.218675226E-1
1.024480531E0,-5.650499370E-3,4.378373325E-1,2.985601686E-2
1.041146468E0,-1.643226296E-1,4.914407134E-1,2.076940238E-2
1.057812406E0,-1.183550507E-1,2.824485898E-1,9.399681538E-2
1.074478343E0,9.957095981E-2,1.115591824E-1,2.031125426E-1
1.091144281E0,2.765690386E-1,2.271653414E-1,2.812268734E-1
1.107810218E0,2.621373534E-1,3.706422150E-1,2.984837890E-1
1.124476156E0,1.922696829E-1,3.417788446E-1,2.541197538E-1
1.141142093E0,2.215912044E-1,1.789833754E-1,2.330449075E-1
1.157808031E0,2.648862302E-1,2.418260872E-1,2.614501119E-1
1.174473968E0,2.714530230E-1,4.747946560E-1,2.538143098E-1
1.191139906E0,2.154825479E-1,5.057960153E-1,2.582430840E-1
1.207805843E0,1.435532272E-1,2.424369603E-1,2.665661275E-1
1.224471781E0,1.993709952E-1,-2.924515121E-2,2.369391769E-1
1.241137718E0,3.911825418E-1,3.161225095E-2,2.692386508E-1
1.257803656E0,4.980075061E-1,2.541961074E-1,3.215439618E-1
1.274469593E0,3.744601011E-1,2.597702444E-1,4.312705398E-1
1.291135531E0,1.087339297E-1,1.500436664E-1,4.274526238E-1
1.307801468E0,-1.309541315E-1,3.161225095E-2,2.599229515E-1
1.324467406E0,-2.441168427E-1,5.658135191E-2,2.102138400E-1
1.341133343E0,-2.276234925E-1,2.067777216E-1,1.933387071E-1
1.357799281E0,-1.756999791E-1,2.872591615E-1,1.288924664E-1
1.374465218E0,-1.674533039E-1,9.422589093E-2,1.120173261E-1
1.391131156E0,-1.457676142E-1,-2.453385741E-1,8.025235683E-2
1.407797093E0,-1.030070707E-1,-3.106247485E-1,1.875354946E-1
1.424463031E0,-6.253728271E-2,-1.685223281E-1,3.547597229E-1
1.441128968E0,-1.664606482E-2,-1.342375278E-1,3.316995800E-1
1.457794906E0,1.162933856E-1,-3.471239209E-1,1.885281354E-1
1.474460843E0,2.803105712E-1,-5.824595690E-1,1.486692131E-1
1.491126781E0,4.030180275E-1,-6.464476585E-1,1.244636998E-1
1.507792718E0,4.172970057E-1,-5.555051565E-1,1.710421406E-2
1.524458656E0,3.404807448E-1,-3.434587121E-1,-1.163697392E-1
1.541124593E0,2.266308367E-1,-2.073885947E-1,-2.616028488E-1
1.557790531E0,1.069776937E-1,-3.414734006E-1,-3.189477623E-1
1.574456468E0,1.101083755E-1,-4.692968726E-1,-3.559814394E-1
1.591122406E0,2.082285285E-1,-5.506945848E-1,-3.867537677E-1
1.607788343E0,2.828303874E-1,-6.272817850E-1,-3.800342381E-1
1.624454281E0,2.861901522E-1,-6.911935210E-1,-4.132500291E-1
1.641120218E0,2.493091822E-1,-7.122683525E-1,-4.534907341E-1
1.657786156E0,1.829539984E-1,-6.138427258E-1,-4.486801922E-1
1.674452093E0,1.873064190E-1,-3.523162603E-1,-4.146244824E-1
1.691118031E0,2.431241870E-1,-2.193004489E-1,-3.135263622E-1
1.707783968E0,2.793942690E-1,-3.917934000E-1,-2.297615111E-1
1.724449906E0,3.130682111E-1,-4.644863009E-1,-2.372446060E-1
1.741115843E0,2.782489061E-1,-2.966512144E-1,-2.406807244E-1
1.757781781E0,1.997527778E-1,-1.178205460E-1,-2.217439115E-1
1.774447718E0,1.216384470E-1,-3.787361458E-2,-2.733619809E-1
1.791113656E0,2.283107117E-2,-1.175914705E-2,-3.480401933E-1
1.807779593E0,-7.276926935E-2,8.857538924E-3,-3.497200906E-1
1.824445531E0,-1.632536054E-1,-4.069886729E-2,-3.076467812E-1
1.841111468E0,-2.144898921E-1,-1.819613427E-1,-3.140608668E-1
1.857777406E0,-2.145662606E-1,-2.379318327E-1,-3.851502538E-1
1.874443343E0,-2.322813272E-1,-1.059850380E-1,-3.743073940E-1
1.891109281E0,-3.439932168E-1,1.230892539E-1,-3.164279461E-1
1.907775218E0,-4.646390080E-1,2.748891413E-1,-3.016144931E-1
1.924441156E0,-4.732674956E-1,2.867246568E-1,-2.833648920E-1
1.941107093E0,-3.465894163E-1,2.002109289E-1,-1.404989064E-1
1.957773031E0,-1.050687432E-1,7.994692773E-2,3.611737862E-2
1.974438968E0,1.585194170E-1,-1.582139730E-1,1.038470119E-1
1.991104906E0,2.636645138E-1,-2.395353466E-1,1.125518382E-1
2.007770843E0,2.390008420E-1,-1.162933856E-1,1.676823795E-1
2.024436781E0,2.152534723E-1,-1.195004210E-1,2.574795187E-1
2.041102718E0,4.161516204E-2,1.586721241E-1,-3.787361458E-2
2.057768656E0,1.614210159E-1,1.207985133E-1,-7.887791097E-2
2.074434593E0,2.259436101E-1,-5.910116807E-2,-9.010255337E-2
2.091100531E0,2.375500351E-1,-1.882990748E-1,-1.476002038E-1
2.107766468E0,2.233474404E-1,-2.054032832E-1,-2.920697331E-1
2.124432406E0,4.085158184E-2,1.927278340E-1,-3.478111327E-1
2.141098343E0,-1.167515293E-1,6.889027357E-1,-2.683987021E-1
2.157764281E0,-1.893680841E-1,8.323796391E-1,-2.364810258E-1
2.174430218E0,-8.834631741E-2,7.179188132E-1,-2.748127878E-1
2.191096156E0,9.140064567E-2,4.053087831E-1,-2.222020626E-1
2.207762093E0,1.749363989E-1,4.482220486E-2,-9.117157012E-2
2.224428031E0,2.283107042E-1,-1.535561383E-1,-2.069304511E-2
2.241093968E0,2.585485280E-1,-2.231183648E-1,-1.550069358E-2
2.257759906E0,2.141844630E-1,-1.903607398E-1,-4.757109284E-2
2.274425843E0,1.259908676E-1,-8.399390499E-4,-9.117157012E-2
2.291091781E0,4.390590638E-2,2.514472008E-1,-9.529490769E-2
2.307757718E0,5.665770918E-2,2.993237376E-1,-3.947713599E-2
2.324423656E0,1.382081509E-1,3.115410358E-2,-2.550360374E-2
2.341089593E0,2.365573794E-1,-2.330449075E-1,-6.559160352E-2
2.357755531E0,2.860374451E-1,-2.829830945E-1,-1.005636156E-1
2.374421468E0,2.312886715E-1,-2.237292230E-1,-8.972076327E-2
2.391087406E0,1.333975941E-1,-1.300378442E-1,-4.711294547E-2
2.407753343E0,6.666062027E-2,-1.313359290E-1,-3.817904741E-2
2.424419281E0,2.893971838E-2,-1.507308781E-1,-6.582067907E-2
2.441085218E0,-2.573267929E-2,-1.117118970E-1,-5.665770918E-2
2.457751156E0,-8.132137358E-2,-3.596466407E-2,-6.566796452E-3
2.474417093E0,-9.078978002E-2,1.015562657E-2,4.024071619E-2
2.491083031E0,-5.238165334E-2,-3.726275265E-2,6.490438432E-2
2.507748968E0,-3.894263133E-2,-1.075121984E-1,9.468404204E-2
2.524414906E0,-2.817613818E-2,-1.444695145E-1,1.395062506E-1
2.541080843E0,1.718057133E-2,-1.450803876E-1,2.028834671E-1
2.557746781E0,7.536543906E-2,-1.464548260E-1,2.269362658E-1
2.574412718E0,9.567669779E-2,-1.468366235E-1,2.033416182E-1
2.591078656E0,8.391755074E-2,-1.976147592E-1,1.711948514E-1
2.607744593E0,8.002328873E-2,-2.615264952E-1,1.582139730E-1
2.624410531E0,1.027780026E-1,-2.669478953E-1,1.461493969E-1
2.641076468E0,1.205694377E-1,-2.042579055E-1,1.085048541E-1
2.657742406E0,1.095738709E-1,-9.651663154E-2,7.353284955E-2
2.674408343E0,1.160643101E-1,2.939786762E-2,3.924806044E-2
2.691074281E0,1.449276656E-1,7.620538026E-2,-2.290742996E-4
2.707740218E0,1.837175786E-1,8.857538924E-3,-5.589412898E-2
2.724406156E0,2.007454336E-1,-6.765327603E-2,-1.132390574E-1
2.741072093E0,1.741728187E-1,-9.506583214E-2,-1.550832987E-1
2.757738031E0,1.581376195E-1,-1.417969912E-1,-1.857028902E-1
2.774403968E0,1.878409237E-1,-1.802814752E-1,-2.202167511E-1
2.791069906E0,2.298378795E-1,-1.514181048E-1,-2.521344423E-1
2.807735843E0,2.541197538E-1,-9.231694043E-2,-2.620609999E-1
2.824401781E0,2.712239623E-1,-5.650499091E-2,-2.407570779E-1
2.841067718E0,2.744309902E-1,-1.146898642E-1,-2.166279256E-1
2.857733656E0,2.900080681E-1,-2.687041461E-1,-2.379318327E-1
2.874399593E0,3.205513060E-1,-3.708712757E-1,-2.780198455E-1
2.891065531E0,3.401753306E-1,-3.782780170E-1,-2.761872411E-1
2.907731468E0,3.492619395E-1,-3.457494676E-1,-2.248746008E-1
2.924397406E0,3.657552898E-1,-3.401753306E-1,-1.901316643E-1
2.941063343E0,3.927097023E-1,-3.970620930E-1,-2.282343507E-1
2.957729281E0,3.988946974E-1,-4.902189970E-1,-2.770271897E-1
2.974395218E0,3.710239828E-1,-5.631409883E-1,-2.805396616E-1
2.991061156E0,3.223838806E-1,-5.845212340E-1,-2.767217457E-1
3.007727093E0,2.522107959E-1,-5.624537468E-1,-2.968802750E-1
3.024393031E0,1.619555205E-1,-5.220603347E-1,-3.381900191E-1
3.041058968E0,8.712458611E-2,-4.674642682E-1,-3.743073940E-1
3.057724906E0,3.306305781E-2,-4.557051361E-1,-4.107302129E-1
3.074390843E0,4.505127668E-3,-4.497492015E-1,-4.584540129E-1
3.091056781E0,1.763872057E-2,-4.414261580E-1,-4.712058306E-1
3.107722718E0,9.483675659E-2,-4.231002033E-1,-4.117228687E-1
3.124388656E0,1.755472720E-1,-4.191296101E-1,-3.321577311E-1
3.141054593E0,1.962403059E-1,-4.598284662E-1,-3.113119602E-1
3.157720531E0,1.507308781E-1,-5.064069033E-1,-3.216966689E-1
3.174386468E0,6.604975462E-2,-4.957931340E-1,-2.863428593E-1
3.191052406E0,7.864884101E-3,-4.302015305E-1,-2.130390853E-1
3.207718343E0,1.908952487E-3,-3.381136656E-1,-1.578321904E-1
3.224384281E0,1.359174121E-2,-2.837466896E-1,-1.455385387E-1
3.241050218E0,2.397644334E-2,-2.877173126E-1,-1.427896470E-1
3.257716156E0,2.298378758E-2,-3.039815724E-1,-1.515708268E-1
3.274382093E0,5.268708803E-3,-2.899316847E-1,-1.403461844E-1
3.291048031E0,1.107192412E-2,-2.348775119E-1,-9.689842910E-2
3.307713968E0,6.734783947E-2,-1.844811589E-1,-5.253437161E-2
3.324379906E0,1.606574357E-1,-1.727220118E-1,-4.673115537E-2
3.341045843E0,2.321286201E-1,-1.554650813E-1,-4.970912263E-2
3.357711781E0,2.636645138E-1,-7.192932814E-2,-3.283398226E-2
3.374377718E0,2.688568532E-1,-2.313650399E-2,8.628465235E-3
3.391043656E0,2.583194375E-1,-6.986765563E-2,1.870773360E-2
3.407709593E0,2.331212759E-1,-1.738673896E-1,1.527161949E-4
3.424375531E0,2.366337478E-1,-2.463312149E-1,-1.702785492E-2
3.441041468E0,3.035998046E-1,-2.504545450E-1,-3.970621154E-3
3.457707406E0,3.817904890E-1,-2.714530230E-1,3.726275265E-2
3.474373343E0,4.263836145E-1,-3.198640645E-1,7.651081681E-2
3.491039281E0,4.650208056E-1,-3.934732676E-1,9.880737960E-2
3.507705218E0,5.523744822E-1,-4.678460658E-1,1.014035568E-1
3.524371156E0,6.891318560E-1,-4.699840844E-1,9.392046183E-2
3.541037093E0,7.327322960E-1,-3.954585791E-1,7.024945319E-2
3.557703031E0,6.285035014E-1,-2.702313066E-1,1.130099874E-2
3.574368968E0,4.388299882E-1,-1.605047137E-1,-5.933023989E-2
3.591034906E0,2.220493406E-1,-1.032361463E-1,-9.056070447E-2
3.607700843E0,6.872228533E-2,-7.307469845E-2,-7.964149863E-2
3.624366781E0,3.359756200E-3,-2.863428742E-2,-7.750347257E-2
3.641032718E0,-4.894553870E-2,6.169734150E-2,-7.017309219E-2
3.657698656E0,-1.327103674E-1,1.907425225E-1,-5.291616172E-2
3.674364593E0,-2.432768941E-1,3.041343093E-1,-4.184423760E-2
3.691030531E0,-3.248273432E-1,3.843866587E-1,-3.924806044E-2
3.707696468E0,-3.484219909E-1,3.684278131E-1,-1.847865991E-2
3.724362406E0,-2.789361179E-1,2.638935745E-1,1.557705179E-2
3.741028343E0,-1.732565165E-1,1.363755614E-1,6.719512492E-2
3.757694281E0,-1.314886510E-1,1.061377581E-2,1.091157198E-1
3.774360218E0,-1.552360058E-1,-1.232419685E-1,1.217911690E-1
3.791026156E0,-1.639408320E-1,-2.256381810E-1,1.114064679E-1
3.807692093E0,-1.259144992E-1,-2.646571696E-1,8.773545176E-2
3.824358031E0,-1.077412739E-1,-2.294560820E-1,6.734783947E-2
3.841023968E0,-1.604283601E-1,-1.593593508E-1,5.429060757E-2
3.857689906E0,-2.567922771E-1,-7.406735420E-2,2.046396956E-2
3.874355843E0,-3.525453210E-1,-2.435823344E-2,-3.428478539E-2
3.891021781E0,-3.841575980E-1,-2.893971838E-2,-6.276635826E-2
3.907687718E0,-3.513999581E-1,-5.871937796E-2,-5.268708616E-2
3.924353656E0,-2.929096520E-1,-7.948877662E-2,-2.878700197E-2
3.941019593E0,-2.779434621E-1,-1.186604798E-1,1.183550525E-2
3.957685531E0,-2.904661894E-1,-1.605810821E-1,4.459312931E-2
3.974351468E0,-2.637408674E-1,-1.981492639E-1,5.009091273E-2
3.991017406E0,-2.315941155E-1,-2.173151523E-1,4.589121789E-2
4.007683343E0,-2.208276242E-1,-1.963930279E-1,4.298960790E-2
4.024349281E0,-2.128863782E-1,-1.474474818E-1,4.329504073E-2
4.041015218E0,-1.898262352E-1,-1.023198515E-1,4.894553870E-2
4.057681156E0,-1.436295807E-1,-1.142317131E-1,4.589121789E-2
4.074347093E0,-1.091157198E-1,-1.487455666E-1,3.061959706E-2
4.091013031E0,-9.613484144E-2,-1.288161129E-1,1.855501719E-2
4.107678968E0,-8.475748450E-2,-9.773836285E-2,2.336557768E-2
4.124344906E0,-7.887791097E-2,-8.842267841E-2,5.772672221E-2
4.141010843E0,-6.337722391E-2,-1.195767820E-1,7.735075057E-2
4.157676781E0,-4.749473557E-2,-1.788306683E-1,4.795288667E-2
4.174342718E0,-7.849612087E-2,-1.851683855E-1,1.351538301E-2
4.191008656E0,-1.334739476E-1,-1.100320220E-1,-1.443168055E-2
4.207674593E0,-1.753181964E-1,-1.779143699E-2,-3.810269013E-2
4.224340531E0,-1.605047137E-1,-1.527161920E-3,-3.489565104E-2
4.241006468E0,-1.040760875E-1,-4.589121789E-2,-2.519817278E-2
4.257672406E0,-4.329504073E-2,-1.046105921E-1,-3.016144782E-2
4.274338343E0,-1.313359290E-2,-1.154534444E-1,-3.917170316E-2
4.291004281E0,-1.091920771E-2,-8.200860023E-2,-5.337430909E-2
4.307670218E0,-1.817322709E-2,-4.337139800E-2,-7.544180006E-2
4.324336156E0,-2.840521187E-2,-1.511890348E-2,-8.422297984E-2
4.341002093E0,-4.764745384E-2,-5.696314201E-2,-7.880155742E-2
4.357668031E0,-6.039925665E-2,-1.152243689E-1,-7.903063297E-2
4.374333968E0,-5.054906011E-2,-1.359937787E-1,-8.055779338E-2
4.390999906E0,-3.741546720E-2,-1.499672979E-1,-8.223766834E-2
4.407665843E0,-4.184423760E-2,-2.031888962E-1,-9.017891437E-2
4.424331781E0,-6.414080411E-2,-2.437350452E-1,-9.529490769E-2
4.440997718E0,-7.933606207E-2,-2.158643454E-1,-8.246674389E-2
4.457663656E0,-6.200277433E-2,-1.825722158E-1,-6.757691503E-2
4.474329593E0,-3.985892609E-2,-1.724929363E-1,-6.498073786E-2
4.490995531E0,-3.733910993E-2,-1.812741160E-1,-5.352702737E-2
4.507661468E0,-5.230529606E-2,-2.163988501E-1,-3.550651670E-2
4.524327406E0,-9.697478265E-2,-2.643517256E-1,-1.886045001E-2
4.540993343E0,-1.391244531E-1,-2.749654949E-1,-2.061668551E-3
4.557659281E0,-1.967748106E-1,-2.435059696E-1,2.855792828E-2
4.574325218E0,-2.338848561E-1,-2.035706937E-1,5.345066637E-2
4.590991156E0,-2.424369603E-1,-2.258672565E-1,6.261363626E-2
4.607657093E0,-2.523635030E-1,-2.816086709E-1,5.711585656E-2
4.624323031E0,-2.562577724E-1,-2.771798968E-1,4.864010960E-2
4.640988968E0,-2.515235841E-1,-2.047160566E-1,5.955931544E-2
4.657654906E0,-2.672533393E-1,-1.876882017E-1,8.697187155E-2
4.674320843E0,-3.063486814E-1,-2.005163580E-1,9.094249457E-2
4.690986781E0,-3.200167716E-1,-2.432005405E-1,6.971494108E-2
4.707652718E0,-3.181841969E-1,-3.298669755E-1,6.467530876E-2
4.724318656E0,-3.304014802E-1,-4.501309991E-1,7.651081681E-2
4.740984593E0,-3.575085998E-1,-5.750528574E-1,1.111773923E-1
4.757650531E0,-3.741546869E-1,-7.077631950E-1,1.460730433E-1
4.774316468E0,-4.071413875E-1,-8.013018966E-1,1.353065521E-1
4.790982406E0,-4.586067200E-1,-8.321505189E-1,1.061377525E-1
4.807648343E0,-4.918988645E-1,-8.418480158E-1,1.481347084E-1
4.824314281E0,-5.170970559E-1,-9.141591191E-1,2.502254844E-1
4.840980218E0,-5.555815101E-1,-1.034575820E0,3.184132576E-1
4.857646156E0,-5.868883133E-1,-1.175380230E0,3.740019500E-1
4.874312093E0,-6.131555438E-1,-1.302134633E0,4.867065251E-1
4.890978031E0,-6.753873825E-1,-1.469893336E0,6.455313563E-1
4.907643968E0,-7.852666974E-1,-1.669875264E0,7.731257081E-1
4.924309906E0,-9.514982700E-1,-1.792506337E0,8.620828986E-1
4.940975843E0,-1.130023479E0,-1.904600024E0,9.663116932E-1
4.957641781E0,-1.334205031E0,-2.129169226E0,1.038546443E0
4.974307718E0,-1.539455652E0,-2.419406414E0,1.116584420E0
4.990973656E0,-1.624289393E0,-2.728274822E0,1.278234601E0
5.007639593E0,-1.616500974E0,-2.692386627E0,1.359937668E0
5.024305531E0,-1.743484497E0,-1.808999658E0,1.156596065E0
5.040971468E0,-1.790902853E0,-8.039743900E-1,8.999565244E-1
5.057637406E0,-9.643264413E-1,-1.129412651E0,5.199986696E-1
5.074303343E0,-1.510363221E-1,-1.274034858E0,-4.746419191E-1
5.090969281E0,3.530798554E-1,3.993528336E-2,-1.661704898E0
5.107635218E0,2.492099285E0,2.246760607E0,-2.486066818E0
5.124301156E0,6.347266674E0,2.945360899E0,-3.329823971E0
5.140967093E0,8.995136261E0,2.130696297E0,-3.968406677E0
5.157633031E0,9.189238548E0,2.182848930E0,-4.253298759E0
5.174298968E0,8.174515724E0,2.981707335E0,-3.877616882E0
5.190964906E0,6.821755886E0,3.572337151E0,-2.639241219E0
5.207630843E0,5.938674450E0,2.889161348E0,-1.414610147E0
5.224296781E0,5.614992619E0,1.476841927E0,-7.938187718E-1
5.240962718E0,4.737180233E0,1.733023405E0,1.517999023E-1
5.257628656E0,2.793026447E0,3.091739416E0,1.689270139E0
5.274294593E0,9.010255337E-1,2.782794476E0,2.920391798E0
5.290960531E0,1.659261465E0,1.226005554E0,3.810574532E0
5.307626468E0,4.238637924E0,9.689842910E-2,3.308061838E0
5.324292406E0,4.278878689E0,2.781725526E-1,1.725692987E0
5.340958343E0,7.620538026E-2,1.089477301E0,6.851612329E-1
5.357624281E0,-5.999989986E0,1.566639066E0,7.246383429E-1
5.374290218E0,-1.053970814E1,1.272889495E0,1.028696299E0
5.390956156E0,-1.068814850E1,-1.251585603E0,1.900629401E0
5.407622093E0,-8.133053780E0,-4.448470116E0,2.793102741E0
5.424288031E0,-8.074181557E0,-5.149284840E0,3.585241795E0
5.440953968E0,-1.094555187E1,-5.429976940E0,4.894172192E0
5.457619906E0,-1.140484524E1,-7.799597740E0,6.086198330E0
5.474285843E0,-8.526756287E0,-7.541278362E0,5.547644615E0
5.490951781E0,-5.178377151E0,-6.095972538E0,4.181369305E0
5.507617718E0,-3.921217442E0,-4.940674305E0,3.594022989E0
5.524283656E0,-3.752084255E0,-2.366871834E0,3.343415737E0
5.540949593E0,-1.634903193E0,-2.808832645E0,3.252855062E0
5.557615531E0,1.008843184E0,-4.337063789E0,1.776242018E0
5.574281468E0,2.528903723E0,-2.409556150E0,-1.852981925E0
5.590947406E0,2.105803728E0,9.230166674E-1,-3.959396362E0
5.607613343E0,1.090164542E0,2.084576130E0,-4.282925606E0
5.624279281E0,1.108261466E0,3.289277792E0,-4.930518627E0
5.640945218E0,2.421315193E0,5.652331829E0,-6.235784054E0
5.657611156E0,4.582402229E0,7.504703045E0,-7.300521374E0
5.674277093E0,7.650623322E0,8.013706207E0,-8.513851166E0
5.690943031E0,9.610659599E0,7.436896801E0,-9.723669052E0
5.707608968E0,8.510873795E0,7.257684231E0,-1.077847958E1
5.724274906E0,6.328330040E0,8.003015518E0,-1.077137852E1
5.740940843E0,5.169290543E0,7.556778908E0,-9.044464111E0
5.757606781E0,4.717861176E0,5.937452793E0,-5.784049511E0
5.774272718E0,4.683958530E0,3.624108076E0,-3.524078846E0
5.790938656E0,3.903044224E0,2.893208265E0,-1.862068534E0
5.807604593E0,1.451643825E0,3.044091940E0,3.651444316E-1
5.824270531E0,-6.746237874E-1,1.962861300E0,1.920635223E0
5.840936468E0,-2.072664261E0,-2.962694168E-1,3.338452339E0
5.857602406E0,-3.180085659E0,-2.368628263E0,4.665709019E0
5.874268343E0,-4.545291901E0,-3.710850716E0,5.808560371E0
5.890934281E0,-5.924395561E0,-5.116221428E0,7.552044868E0
5.907600218E0,-6.775253773E0,-6.930795193E0,8.940692902E0
5.924266156E0,-6.661174774E0,-7.658411503E0,9.371963501E0
5.940932093E0,-6.421792507E0,-7.371458054E0,9.980308533E0
5.957598031E0,-5.997012138E0,-6.063901901E0,9.632879257E0
5.974263968E0,-4.631195068E0,-3.628842115E0,7.314265728E0
5.990929906E0,-3.057301760E0,-2.408487082E0,5.938216686E0
6.007595843E0,-2.633743525E0,-2.425285816E0,6.011749268E0
6.024261781E0,-3.799578905E0,-1.965075612E0,5.435474873E0
6.040927718E0,-5.407985687E0,-1.448971272E0,4.107913017E0
6.057593656E0,-4.604546070E0,-1.459355950E0,2.496527910E0
6.074259593E0,-8.447496295E-1,-1.099251151E0,-9.315688014E-1
6.090925531E0,8.284853697E-1,-4.894554019E-1,-4.799564362E0
6.107591468E0,-1.265100956E0,1.503796339E0,-5.649506569E0
6.124257406E0,-1.434768677E0,3.337306976E0,-6.488147736E0
6.140923343E0,1.100625634E0,4.693197727E0,-8.084108353E0
6.157589281E0,3.651367903E0,5.782064438E0,-9.232610703E0
6.174255218E0,4.978318691E0,6.801291943E0,-1.046609879E1
6.190921156E0,4.634860039E0,7.372374535E0,-1.116584492E1
6.207587093E0,3.893117666E0,8.635490417E0,-1.177373123E1
6.224253031E0,4.064465046E0,9.481766701E0,-1.115660572E1
6.240918968E0,5.026119232E0,9.153044701E0,-9.083330154E0
6.257584906E0,5.521224976E0,8.467960358E0,-6.008542538E0
6.274250843E0,7.143071175E0,8.055932045E0,-3.529882193E0
6.290916781E0,7.960255146E0,6.043056011E0,-1.949727654E0
6.307582718E0,4.566748619E0,5.084914684E0,7.582359016E-2
6.324248656E0,-4.121810198E-1,3.870362997E0,2.018602610E0
6.340914593E0,-3.715432405E0,1.590768218E0,3.312108755E0
6.357580531E0,-5.160662174E0,-1.008385062E0,4.883253098E0
6.374246468E0,-5.946463108E0,-4.027507782E0,7.155288219E0
6.390912406E0,-6.949961185E0,-5.786874771E0,9.059582710E0
6.407578343E0,-8.464524269E0,-7.012956619E0,1.034682751E1
6.424244281E0,-9.748943329E0,-8.385416985E0,1.113446140E1
6.440910218E0,-1.011110973E1,-7.667803764E0,1.066829491E1
6.457576156E0,-9.074243546E0,-5.544743061E0,8.722996712E0
6.474242093E0,-6.630631924E0,-4.367301464E0,6.730813503E0
6.490908031E0,-3.416414022E0,-3.534463644E0,4.556822300E0
6.507573968E0,-2.065868378E0,-3.196960926E0,3.855396748E0
6.524239906E0,-2.653749228E0,-3.263621330E0,4.027737141E0
6.540905843E0,-2.200335026E0,-2.301509380E0,2.796539068E0
6.557571781E0,4.031707644E-1,-1.477529168E0,-1.008690447E-1
6.574237718E0,2.878471136E0,-1.762039423E0,-3.120755434E0
6.590903656E0,2.616562843E0,-6.478220820E-1,-5.111869335E0
6.607569593E0,1.342146277E0,1.920635223E0,-7.555328369E0
6.624235531E0,1.202869058E0,4.116541386E0,-9.020257950E0
6.640901468E0,2.981249094E0,4.537580013E0,-9.481002808E0
6.657567406E0,5.654240608E0,4.699000835E0,-1.051053905E1
6.674233343E0,6.572599411E0,4.827969551E0,-1.124182129E1
6.690899281E0,5.283216953E0,4.968926907E0,-1.080673218E1
6.707565218E0,3.798815250E0,6.059244156E0,-1.030429649E1
6.724231156E0,2.601138592E0,6.880628109E0,-9.447634697E0
6.740897093E0,3.732002020E0,7.698423386E0,-7.825788498E0
6.757563031E0,7.060680389E0,6.045423508E0,-5.101789951E0
6.774228968E0,7.791427612E0,3.466352224E0,-2.935510635E0
6.790894906E0,3.882580280E0,2.992932081E0,-1.692171812E0
6.807560843E0,-1.938503027E0,3.515145063E0,-4.783834815E-1
6.824226781E0,-4.986183643E0,3.093571901E0,8.231402636E-1
6.840892718E0,-4.716868877E0,7.956513762E-2,3.263392448E0
6.857558656E0,-3.720777273E0,-3.441001415E0,6.198750496E0
6.874224593E0,-4.112188816E0,-5.383245945E0,8.411378860E0
6.890890531E0,-6.025646687E0,-5.978457451E0,1.007491684E1
6.907556468E0,-7.877712250E0,-7.125737667E0,1.099747467E1
6.924222406E0,-8.411073685E0,-8.001336098E0,1.096227360E1
6.940888343E0,-7.320603371E0,-7.457360744E0,1.000871372E1
6.957554281E0,-5.346288681E0,-5.581777096E0,7.615651131E0
6.974220218E0,-2.596328020E0,-3.719631910E0,4.535289288E0
6.990886156E0,-1.644066215E0,-2.862894058E0,3.623955250E0
7.007552093E0,-2.599611521E0,-3.304167509E0,3.906862020E0
7.024218031E0,-3.335856199E0,-3.805611134E0,2.325485945E0
7.040883968E0,-2.575100422E0,-1.618180752E0,-1.468060732E0
7.057549906E0,-1.034728527E0,4.123337194E-2,-5.142794132E0
7.074215843E0,-7.927497625E-1,2.593884468E0,-6.338256359E0
7.090881781E0,1.200196624E0,4.433809280E0,-6.707066059E0
7.107547718E0,3.807138443E0,5.467392445E0,-7.203164577E0
7.124213656E0,5.474646568E0,6.209593296E0,-8.043027878E0
7.140879593E0,6.409651279E0,6.830307961E0,-9.162666321E0
7.157545531E0,6.102691650E0,6.801597595E0,-9.816444397E0
7.174211468E0,5.210676670E0,6.356430054E0,-9.430530548E0
7.190877406E0,4.234056473E0,6.038703918E0,-8.558979034E0
7.207543343E0,2.935128927E0,6.200354099E0,-8.100524902E0
7.224209281E0,1.863290310E0,7.081755161E0,-6.981726170E0
7.240875218E0,3.430311203E0,6.951946735E0,-5.061931133E0
7.257541156E0,5.891790867E0,3.650833368E0,-2.483928919E0
7.274207093E0,3.989939690E0,2.592357397E-1,1.130863428E-1
7.290873031E0,-9.661589861E-1,7.386118770E-1,1.891848207E0
7.307538968E0,-4.553920746E0,6.595812440E-1,3.662592411E0
7.324204906E0,-5.242976189E0,-3.066006660E0,6.791289330E0
7.340870843E0,-5.004509926E0,-6.789838314E0,1.009538078E1
7.357536781E0,-5.266799927E0,-7.645431042E0,1.184222507E1
7.374202718E0,-8.546914101E0,-7.149943352E0,1.283594894E1
7.390868656E0,-1.045166683E1,-6.312065601E0,1.120585632E1
7.407534593E0,-8.481628418E0,-5.317654133E0,8.094264030E0
7.424200531E0,-4.136165619E0,-5.212585449E0,6.131860733E0
7.440866468E0,-1.492800862E-1,-4.294150352E0,4.157469273E0
7.457532406E0,-9.532544613E-1,-3.287139654E0,4.146168232E0
7.474198343E0,-3.504454851E0,-2.236299515E0,3.228420258E0
7.490864281E0,-3.465435982E0,-1.864053845E0,1.033048749E0
7.507530218E0,-1.095280528E0,-1.730885386E0,-1.282816052E0
7.524196156E0,6.650790572E-1,-2.242866278E0,-3.397935390E0
7.540862093E0,-3.586539924E-1,-9.140064567E-2,-5.083387852E0
7.557528031E0,-9.767727852E-1,3.808436394E0,-7.015247345E0
7.574193968E0,8.720094711E-2,6.801215649E0,-7.844725609E0
7.590859906E0,2.433227062E0,7.494012833E0,-7.812960625E0
7.607525843E0,5.230834961E0,7.672614574E0,-7.944830894E0
7.624191781E0,7.046325207E0,6.989132881E0,-7.942234993E0
7.640857718E0,7.127493858E0,6.740740299E0,-8.026534081E0
7.657523656E0,5.935925961E0,6.783882618E0,-7.826170444E0
7.674189593E0,3.921140909E0,7.857324600E0,-7.734158993E0
7.690855531E0,2.233932495E0,8.185893059E0,-6.532206059E0
7.707521468E0,2.976744175E0,7.541202068E0,-4.871799469E0
7.724187406E0,5.488467216E0,5.517406940E0,-3.142212152E0
7.740853343E0,4.961672783E0,2.436663151E0,-8.291725516E-1
7.757519281E0,2.406043708E-1,1.332219720E0,5.330559015E-1
7.774185218E0,-5.181049824E0,2.218355417E0,1.837786674E0
7.790851156E0,-8.352659225E0,-3.862192631E-1,4.820868492E0
7.807517093E0,-9.044540405E0,-5.562458515E0,8.306844711E0
7.824183031E0,-8.633962631E0,-8.352506638E0,1.057139683E1
7.840848968E0,-1.056880093E1,-9.666477203E0,1.237528038E1
7.857514906E0,-1.242598248E1,-8.158099174E0,1.125709248E1
7.874180843E0,-1.217064095E1,-5.943714142E0,7.174835682E0
7.890846781E0,-8.635566711E0,-5.257255077E0,3.837528944E0
7.907512718E0,-3.016297579E0,-5.964865685E0,2.178267479E0
7.924178656E0,-7.887027860E-1,-6.829468250E0,3.245295525E0
7.940844593E0,-1.288848281E0,-5.715785503E0,3.214675903E0
7.957510531E0,-1.632154346E0,-4.721068382E0,1.632383466E0
7.974176468E0,-6.159807444E-1,-3.231398344E0,-7.964149714E-1
7.990842406E0,3.553705812E-1,-2.534096241E0,-3.185201645E0
8.007508343E0,-3.332267404E-1,-2.557996288E-2,-4.919752121E0
8.024174281E0,-4.318050444E-1,3.325165987E0,-6.534955025E0
8.040840218E0,7.124210596E-1,5.813982010E0,-7.151317596E0
8.057506156E0,2.868926525E0,6.350015640E0,-6.939882278E0
8.074172093E0,5.284438610E0,6.349175930E0,-7.205455303E0
8.090838031E0,6.289310932E0,6.431566238E0,-8.156342506E0
8.107503968E0,5.846586704E0,6.697674274E0,-8.843413353E0
8.124169906E0,4.964574337E0,6.674308777E0,-8.874185562E0
8.140835843E0,3.839285135E0,7.307546139E0,-8.677945137E0
8.157501781E0,2.775998592E0,7.404597282E0,-7.617102146E0
8.174167718E0,2.585866928E0,7.000205040E0,-5.996019363E0
8.190833656E0,4.189463139E0,6.597492218E0,-4.505967617E0
8.207499593E0,4.334619999E0,4.291783333E0,-1.777387381E0
8.224165531E0,1.450956583E0,1.928958297E0,6.621774435E-1
8.240831468E0,-2.084041595E0,1.702785611E0,2.349309683E0
8.257497406E0,-4.043542862E0,2.082285285E-1,4.871112347E0
8.274163343E0,-5.294441223E0,-4.053240299E0,8.503008842E0
8.290829281E0,-7.827850342E0,-6.174850464E0,1.145287514E1
8.307495218E0,-1.044494820E1,-6.610473156E0,1.285152626E1
8.324161156E0,-1.120509243E1,-6.260829449E0,1.173257446E1
8.340827093E0,-9.663422585E0,-4.782613277E0,8.107855797E0
8.357493031E0,-6.829544544E0,-4.194732189E0,5.234194756E0
8.374158968E0,-3.767050266E0,-4.384711266E0,3.819202900E0
8.390824906E0,-3.108385324E0,-5.086441994E0,4.274449825E0
8.407490843E0,-3.306763649E0,-4.424875259E0,3.991772175E0
8.424156781E0,-2.532034397E0,-3.593641043E0,1.991953731E0
8.440822718E0,-1.338557482E0,-1.920177102E0,-1.241582632E-1
8.457488656E0,4.631118476E-1,-1.315115571E0,-2.327013016E0
8.474154593E0,8.315396905E-1,-5.307651162E-1,-3.672900915E0
8.490820531E0,1.102000117E0,1.041906238E0,-4.886154652E0
8.507486468E0,1.662163019E0,3.729940414E0,-6.573287010E0
8.524152406E0,1.915977359E0,6.228301048E0,-7.900466919E0
8.540818343E0,2.626871347E0,7.266923904E0,-7.946434498E0
8.557484281E0,3.981616735E0,7.248826981E0,-7.439645767E0
8.574150218E0,5.610411167E0,7.100081444E0,-7.075417519E0
8.590816156E0,6.944081783E0,5.815967083E0,-5.928442478E0
8.607482093E0,6.717679977E0,4.815905094E0,-5.644925117E0
8.624148031E0,5.380268097E0,4.997637272E0,-6.188823700E0
8.640813968E0,4.314461708E0,5.527104378E0,-6.390943527E0
8.657479906E0,3.985739946E0,5.400350094E0,-5.576431751E0
8.674145843E0,2.411694050E0,2.757290840E0,-2.994688272E0
8.690811781E0,-7.964149714E-1,1.174387559E-1,-4.064541459E-1
8.707477718E0,-3.388543367E0,-2.047924101E-1,1.363526583E0
8.724143656E0,-4.591336250E0,-1.657886982E0,3.597840786E0
8.740809593E0,-5.129431725E0,-4.928686142E0,6.859400749E0
8.757475531E0,-6.489980221E0,-7.322283268E0,9.720996857E0
8.774141468E0,-8.271796227E0,-8.399237633E0,1.148479271E1
8.790807406E0,-8.875864983E0,-7.076410294E0,1.108307266E1
8.807473343E0,-7.511269569E0,-4.130133152E0,7.734998703E0
8.824139281E0,-4.707705975E0,-3.190775871E0,4.921279430E0
8.840805218E0,-1.799836755E0,-3.306916475E0,3.690845013E0
8.857471156E0,-1.310152292E0,-3.340132236E0,3.748648167E0
8.874137093E0,-1.495396972E0,-3.343186617E0,3.490252256E0
8.890803031E0,-6.660717130E-1,-4.148000717E0,2.122984171E0
8.907468968E0,8.084031940E-1,-3.018664598E0,-5.497782826E-1
8.924134906E0,8.704059720E-1,-1.897804141E0,-3.422751665E0
8.940800843E0,-9.212604165E-1,8.478039503E-1,-5.556884289E0
8.957466781E0,-1.273194909E0,3.752695084E0,-7.119628906E0
8.974132718E0,4.443277717E-1,6.052371979E0,-7.610687733E0
8.990798656E0,3.347538948E0,6.731958866E0,-6.885591507E0
9.007464593E0,5.244808674E0,6.671406746E0,-6.812440395E0
9.024130531E0,5.810851097E0,7.208968163E0,-6.842907429E0
9.040796468E0,5.785347462E0,6.236776829E0,-5.596895695E0
9.057462406E0,4.991986752E0,5.756178856E0,-5.166770458E0
9.074128343E0,3.979784012E0,6.867647171E0,-5.178147793E0
9.090794281E0,4.311712742E0,7.183158875E0,-4.375547886E0
9.107460218E0,5.984184265E0,4.868134022E0,-2.854418516E0
9.124126156E0,4.870424747E0,9.480621219E-1,-7.017309070E-1
9.140792093E0,1.099632978E0,-5.157989264E-1,9.666171670E-1
9.157458031E0,-2.147800446E0,-2.209039778E-1,1.824118614E0
9.174123968E0,-4.415559769E0,-2.205527306E0,4.049346447E0
9.190789906E0,-5.620108604E0,-5.173108578E0,6.586114883E0
9.207455843E0,-6.048401356E0,-6.888340473E0,8.090369225E0
9.224121781E0,-6.506167889E0,-7.287846088E0,8.633657455E0
9.240787718E0,-6.486391068E0,-6.512506008E0,7.533871651E0
9.257453656E0,-7.238213062E0,-5.154553413E0,6.192870617E0
9.274119593E0,-5.894081593E0,-3.856694698E0,4.368981361E0
9.290785531E0,-3.527286053E0,-3.897928238E0,3.734979868E0
9.307451468E0,-2.049833059E0,-4.030867577E0,3.367697477E0
9.324117406E0,-1.141858935E0,-2.099465847E0,1.293811560E0
9.340783343E0,-4.170679152E-1,-2.141844630E-1,-1.129565358E0
9.357449281E0,1.192255378E0,1.334357738E0,-3.346698999E0
9.374115218E0,2.710101604E0,2.903593063E0,-5.220221519E0
9.390781156E0,2.891222954E0,4.817050457E0,-6.563665867E0
9.407447093E0,3.406029224E0,6.059473038E0,-7.587245941E0
9.424113031E0,4.676093578E0,4.171901226E0,-6.513574600E0
9.440778968E0,5.588649273E0,2.744233608E0,-5.586663723E0
9.457444906E0,4.436252594E0,2.911992311E0,-5.094688416E0
9.474110843E0,4.993285179E0,3.904876709E0,-5.236180305E0
9.490776781E0,6.734249592E0,3.300120592E0,-4.720152378E0
9.507442718E0,7.112222195E0,1.270369649E0,-3.011257887E0
9.524108656E0,5.991514683E0,-6.784417033E-1,-2.745073736E-1
9.540774593E0,4.715188980E0,-2.639088631E0,2.228587389E0
9.557440531E0,3.292026758E0,-3.808894634E0,4.823922634E0
9.574106468E0,6.487383842E-1,-4.353175163E0,6.971417904E0
9.590772406E0,-2.790659428E0,-2.076634884E0,7.730340958E0
9.607438343E0,-5.541536331E0,-1.384372264E-1,7.862516880E0
9.624104281E0,-7.468814373E0,9.077450633E-1,8.080137253E0
9.640770218E0,-8.924200058E0,1.418046236E0,8.099914551E0
9.657436156E0,-8.875636101E0,3.952982426E0,5.853230000E0
9.674102093E0,-6.747841358E0,5.673254013E0,2.711628675E0
9.690768031E0,-5.187616348E0,7.456521034E0,8.994220495E-1
9.707433968E0,-4.146702766E0,9.097533226E0,1.097265840E0
9.724099906E0,-1.462028503E0,9.056528091E0,2.140546560E0
9.740765843E0,3.017213821E0,7.741107464E0,2.766072035E0
9.757431781E0,6.881620884E0,5.842387199E0,2.375500441E0
9.774097718E0,6.690420151E0,4.173581123E0,2.814941168E0
9.790763656E0,5.922639370E0,4.427776814E0,1.341535449E0
9.807429593E0,6.338790894E0,4.430067539E0,-1.030376196E0
9.824095531E0,5.566199780E0,2.087553978E0,-1.065729976E0
9.840761468E0,4.466261387E0,4.932733253E-2,-3.698786199E-1
9.857427406E0,4.121275425E0,-1.207374215E0,2.338848561E-1
9.874093343E0,3.910985470E0,-2.416581154E0,1.334968567E0
9.890759281E0,3.402822256E0,-3.323409796E0,3.169013739E0
9.907425218E0,2.288910389E0,-3.733147383E0,5.018865108E0
9.924091156E0,1.052978158E0,-2.851974964E0,6.301528454E0
9.940757093E0,9.101885557E-2,-1.100091100E0,7.366494656E0
9.957423031E0,-5.003746152E-1,6.229293346E-1,7.915662289E0
9.974088968E0,-4.458549321E-1,1.574809432E0,7.504168510E0
9.990754906E0,-7.307469845E-2,1.401323795E0,6.926595688E0
1.000742084E1,7.249437571E-1,1.406363487E0,6.166603565E0
1.002408678E1,1.034575820E0,1.644677043E0,4.842095852E0
1.004075272E1,1.623373181E-1,2.407876253E0,3.253771305E0
1.005741866E1,-8.230639100E-1,2.842964649E0,2.297920465E0
1.007408459E1,-9.581413865E-1,2.284099817E0,3.480401993E0
1.009075053E1,1.167438984E0,5.891027451E-1,4.432816505E0
1.010741647E1,4.422049999E0,-1.154839873E0,2.090608358E0
1.012408241E1,5.509313107E0,-7.701478004E-1,-7.803034186E-1
1.014074834E1,4.121199131E0,2.198426008E0,-2.683452606E0
1.015741428E1,3.499033451E0,3.708789110E0,-2.790964842E0
1.017408022E1,4.478937149E0,2.855411053E0,-2.163759470E0
1.019074616E1,5.778170109E0,1.076954603E0,-1.580307126E0
1.020741209E1,6.564123631E0,-1.861610413E-1,-8.443678617E-1
1.022407803E1,7.041132927E0,-7.594576478E-1,-1.285106838E-1
1.024074397E1,7.064956665E0,-5.858956575E-1,3.400225937E-1
1.025740991E1,6.895594120E0,-1.031597927E-1,6.521745324E-1
1.027407584E1,6.597187042E0,-4.352411628E-2,9.968549609E-1
1.029074178E1,5.977922916E0,-5.855902433E-1,1.910937786E0
1.030740772E1,5.248015881E0,-1.294422507E0,2.981020212E0
1.032407366E1,4.657233238E0,-1.638492107E0,3.752695084E0
1.034073959E1,4.440681458E0,-1.696295142E0,3.745822906E0
1.035740553E1,3.756971121E0,-1.693393469E0,2.607705355E0
1.037407147E1,3.780565739E0,-1.576336622E0,1.504101753E0
1.039073741E1,5.021919250E0,-1.476765633E0,1.802051067E-2
1.040740334E1,6.623759747E0,-1.891084671E0,-2.670089960E0
1.042406928E1,6.588253021E0,-1.840764642E0,-5.377595425E0
1.044073522E1,4.858589172E0,-9.195805788E-1,-7.345648766E0
1.045740116E1,2.725296974E0,2.611446939E-2,-7.976825237E0
1.047406709E1,1.768300772E0,8.513928205E-2,-7.691398621E0
1.049073303E1,1.861457705E0,-1.168278903E-1,-7.751721382E0
1.050739897E1,1.832212567E0,-6.032289565E-2,-7.960865974E0
1.052406491E1,7.336485982E-1,8.274927139E-1,-8.271948814E0
1.054073084E1,-8.230639100E-1,2.839070320E0,-8.073570251E0
1.055739678E1,-1.572213173E0,4.699687958E0,-7.123675823E0
1.057406272E1,-1.270216942E0,5.243815899E0,-5.670505047E0
1.059072866E1,-2.923751473E-1,4.287507057E0,-3.882274866E0
1.060739459E1,1.041906238E0,3.896095514E0,-2.082896233E0
1.062406053E1,2.206596375E0,3.881282091E0,-1.337946534E0
1.064072647E1,1.303279996E0,2.655123711E0,-1.206152558E0
1.065739241E1,-1.927507401E0,1.177823663E0,1.440113783E-1
1.067405834E1,-6.021294117E0,-1.847866029E-1,3.226358652E0
1.069072428E1,-9.182748795E0,-9.223294854E-1,5.880489826E0
1.070739022E1,-1.023122120E1,-2.556927204E0,6.937133312E0
1.072405616E1,-1.048366165E1,-4.437627316E0,7.629853725E0
1.074072209E1,-1.146814632E1,-5.474493980E0,8.809205055E0
1.075738803E1,-1.121616459E1,-5.803978920E0,8.519272804E0
1.077405397E1,-8.560276985E0,-5.340103626E0,5.959978580E0
1.079071991E1,-5.142946720E0,-4.763676167E0,4.200077057E0
1.080738584E1,-1.554956317E0,-5.048950195E0,4.458396435E0
1.082405178E1,1.679267287E0,-5.523897648E0,4.979998589E0
1.084071772E1,3.261636019E0,-5.134700298E0,4.994888783E0
1.085738366E1,2.827005863E0,-3.844248533E0,4.540252686E0
1.087404959E1,1.133306861E0,-2.010966778E0,3.896553755E0
1.089071553E1,2.322049737E-1,-5.352702737E-1,1.884670615E0
1.090738147E1,5.390118361E-1,-9.089667797E-1,-7.350230217E-1
1.092404741E1,4.099666178E-1,-1.673769474E0,-3.609676361E0
1.094071334E1,-1.233335972E0,-1.507996082E0,-5.228239059E0
1.095737928E1,-2.984227180E0,4.147008359E-1,-5.707920551E0
1.097404522E1,-3.140684843E0,3.081354618E0,-5.945928574E0
1.099071116E1,-1.245705962E0,4.754436970E0,-6.435918808E0
1.100737709E1,1.813733935E0,4.770013809E0,-7.738053322E0
1.102404303E1,3.986885309E0,5.594070435E0,-8.928552628E0
1.104070897E1,5.118588924E0,6.835577011E0,-1.034965324E1
1.105737491E1,5.584144115E0,6.996081829E0,-1.193118191E1
1.107404084E1,5.496484756E0,6.504946232E0,-1.181213951E1
1.109070678E1,3.677253246E0,6.178210258E0,-1.051115036E1
1.110737272E1,1.871766090E0,7.675897598E0,-9.180610657E0
1.112403866E1,3.195662737E0,7.113062382E0,-6.677897453E0
1.114070459E1,6.607189655E0,3.858756542E0,-4.039343357E0
1.115737053E1,7.501954079E0,1.117806196E0,-1.722867727E0
1.117403647E1,3.508807182E0,1.671402335E0,-3.300960660E-1
1.119070241E1,-2.024253130E0,4.472522736E0,1.597716808E0
1.120736834E1,-4.587288857E0,3.804924011E0,4.587059975E0
1.122403428E1,-4.452135086E0,-1.914297491E-1,8.276836395E0
1.124070022E1,-4.710912704E0,-3.080972910E0,1.147188759E1
1.125736616E1,-7.006084442E0,-3.629682064E0,1.314023590E1
1.127403209E1,-9.834082603E0,-4.438314438E0,1.410754013E1
1.129069803E1,-9.711681366E0,-5.593383312E0,1.395092964E1
1.130736397E1,-6.773421288E0,-3.855778456E0,9.893642426E0
1.132402991E1,-3.255603790E0,-2.507676363E0,6.533962250E0
1.134069584E1,-3.124573231E-1,-1.853363752E0,4.448622704E0
1.135736178E1,-2.745837271E-1,-1.289153814E0,2.610072374E0
1.137402772E1,-2.426278591E0,-7.575486898E-1,2.235001564E0
1.139069366E1,-2.069609880E0,-1.585957646E0,2.211406946E0
1.140735959E1,7.343358397E-1,-3.530263901E0,6.175079346E-1
1.142402553E1,2.040746450E0,-3.187339783E0,-3.186805248E0
1.144069147E1,3.030653000E-1,-1.831983447E0,-5.385765553E0
1.145735741E1,-1.563584805E0,5.727620721E-1,-5.430129528E0
1.147402334E1,-8.783472180E-1,1.694157124E0,-6.693932533E0
1.149068928E1,1.243262529E0,1.800676703E0,-9.024076462E0
1.150735522E1,2.508668900E0,2.077169418E0,-1.010148907E1
1.152402116E1,2.586096048E0,3.114112377E0,-1.134834003E1
1.154068709E1,2.605949163E0,4.560182095E0,-1.342680740E1
1.155735303E1,2.930165529E0,5.233889580E0,-1.390656567E1
1.157401897E1,3.632965565E0,5.570934296E0,-1.342192078E1
1.159068491E1,4.383412838E0,5.251222610E0,-1.179427147E1
1.160735084E1,4.377533436E0,4.265974045E0,-9.390289307E0
1.162401678E1,4.651048183E0,3.907472849E0,-7.765236855E0
1.164068272E1,4.761843681E0,3.875249863E0,-6.421104908E0
1.165734866E1,3.279580355E0,4.481456757E0,-4.054538727E0
1.167401459E1,3.975966275E-1,4.909978390E0,-1.130558014E0
1.169068053E1,-2.340986490E0,4.298579216E0,1.719431639E0
1.170734647E1,-3.664730549E0,2.543640852E0,5.094383240E0
1.172401241E1,-4.688539982E0,-1.098258495E0,1.033957386E1
1.174067834E1,-6.809691429E0,-4.804222584E0,1.596243095E1
1.175734428E1,-9.240322113E0,-5.513970852E0,1.721187782E1
1.177401022E1,-1.151816082E1,-4.917690754E0,1.611782074E1
1.179067616E1,-1.298538208E1,-5.578111649E0,1.458454895E1
1.180734209E1,-1.131436062E1,-3.225060701E0,1.006483746E1
1.182400803E1,-5.612167358E0,-2.925813198E0,5.799855709E0
1.184067397E1,2.227365673E-1,-3.698938847E0,3.741164923E0
1.185733991E1,1.628565550E0,-2.631070852E0,3.038059711E0
1.187400584E1,-1.376507401E0,-1.792735457E0,3.523391724E0
1.189067178E1,-3.224907875E0,-1.893604517E0,3.195204496E0
1.190733772E1,-7.683915496E-1,-2.354578257E0,1.174845695E0
1.192400366E1,2.502712965E0,-3.146182775E0,-2.615417480E0
1.194066959E1,3.239873946E-1,-1.921246052E0,-5.338118076E0
1.195733553E1,-2.591899157E0,8.078686595E-1,-7.956284523E0
1.197400147E1,-1.136972070E0,2.477743864E0,-1.099044991E1
1.199066741E1,2.898858786E0,3.123504400E0,-1.306013584E1
1.200733334E1,6.597263336E0,2.760498047E0,-1.477888107E1
1.202399928E1,6.730660915E0,2.325943947E0,-1.523198986E1
1.204066522E1,4.178849697E0,3.547139168E0,-1.467717171E1
1.205733116E1,1.792124510E0,5.111639977E0,-1.317360401E1
1.207399709E1,3.531562090E-1,6.973708630E0,-1.059552574E1
1.209066303E1,1.462563038E0,7.940936565E0,-7.647034168E0
1.210732897E1,4.441368580E0,6.706531525E0,-5.022912025E0
1.212399491E1,5.769923210E0,4.662654400E0,-2.576551199E0
1.214066084E1,3.670839071E0,3.985052824E0,-2.808450758E-1
1.215732678E1,-3.650680780E-1,4.370050430E0,1.741193652E0
1.217399272E1,-3.498575211E0,3.572719097E0,4.075460911E0
1.219065866E1,-5.151651859E0,7.443387508E-1,7.289144039E0
1.220732459E1,-6.594514370E0,-2.071442366E0,1.120180893E1
1.222399053E1,-8.231937408E0,-2.761032343E0,1.300477695E1
1.224065647E1,-1.035140896E1,-2.432997942E0,1.256793213E1
1.225732241E1,-1.071113205E1,-4.303847790E0,1.277409840E1
1.227398834E1,-8.117018700E0,-6.514262199E0,1.244056702E1
1.229065428E1,-6.482267857E0,-5.254506111E0,9.891427994E0
1.230732022E1,-5.762669086E0,-3.152978659E0,7.677042961E0
1.232398616E1,-3.743226767E0,-1.860694170E0,4.962359905E0
1.234065209E1,-1.422780395E0,-1.312748432E0,2.207741737E0
1.235731803E1,-8.827759624E-1,-1.309541345E0,1.892230034E0
1.237398397E1,-8.444442153E-1,-8.394809365E-1,2.443077326E0
1.239064991E1,5.009855032E-1,-1.236237645E0,1.562668443E0
1.240731584E1,2.656651020E0,-1.558316112E0,-1.406210780E0
1.242398178E1,3.202534914E0,-3.016373873E0,-3.517741203E0
1.244064772E1,6.161335111E-1,-1.717064500E0,-3.853793144E0
1.245731366E1,-1.328249097E0,1.485699534E0,-6.630555153E0
1.247397959E1,-3.932442144E-2,3.231627464E0,-1.024817276E1
1.249064553E1,2.745378971E0,2.868468285E0,-1.144096279E1
1.250731147E1,4.550179005E0,2.731710911E0,-1.213757801E1
1.252397741E1,5.689441681E0,2.490495682E0,-1.364885712E1
1.254064334E1,5.485183716E0,2.233779669E0,-1.428835583E1
1.255730928E1,3.901058912E0,2.529209375E0,-1.399475956E1
1.257397522E1,9.730312228E-1,3.375104189E0,-1.231847000E1
1.259064116E1,-1.611843109E0,4.470155716E0,-1.078092384E1
1.260730709E1,-2.441702843E0,6.222803116E0,-9.328668594E0
1.262397303E1,-8.139773011E-1,8.379842758E0,-7.078166485E0
1.264063897E1,2.092211962E0,7.318236351E0,-3.413512468E0
1.265730491E1,2.169333458E0,3.291568518E0,5.007563829E-1
1.267397084E1,-1.910326838E0,1.356196165E0,5.247099400E0
1.269063678E1,-7.099012375E0,-1.130099818E-1,1.066944027E1
1.270730272E1,-1.015196133E1,-2.199113131E0,1.370284271E1
1.272396866E1,-9.991991997E0,-4.259942055E0,1.350301361E1
1.274063459E1,-9.035911560E0,-5.777024746E0,1.412884426E1
1.275730053E1,-1.095998287E1,-4.622261047E0,1.268078899E1
1.277396647E1,-1.032178211E1,-3.955731153E0,9.538882256E0
1.279063241E1,-5.700131893E0,-4.015443325E0,7.249208927E0
1.280729834E1,-1.738062978E0,-3.340743065E0,4.042855740E0
1.282396428E1,-2.318918943E0,-2.341750145E0,2.572733402E0
1.284063022E1,-4.976257324E0,-2.480111122E0,2.392604589E0
1.285729616E1,-5.725177288E0,-2.302043915E0,7.072287202E-1
1.287396209E1,-3.650298834E0,-2.677420378E0,-8.345176578E-1
1.289062803E1,9.338594973E-2,-3.378387690E0,-1.767613649E0
1.290729397E1,2.892979145E0,-4.310261726E0,-3.166952133E0
1.292395991E1,3.588830471E0,-4.877373695E0,-6.013352871E0
1.294062584E1,2.329838276E0,-4.375242710E0,-8.345405579E0
1.295729178E1,2.043495417E0,-3.295004606E0,-9.670829773E0
1.297395772E1,4.321104527E0,-2.528827429E0,-1.093363953E1
1.299062366E1,6.286104202E0,-2.503247499E0,-1.161605167E1
1.300728959E1,3.940383196E0,-5.293143392E-1,-1.038210487E1
1.302395553E1,1.551214695E0,3.134805441E0,-1.068165779E1
1.304062147E1,-9.686788321E-1,4.473057270E0,-8.699630737E0
1.305728741E1,7.489202023E-1,5.552455425E0,-6.912011147E0
1.307395334E1,4.655400276E0,5.003746033E0,-4.746190071E0
1.309061928E1,6.180424213E0,3.263239622E0,-2.410319805E0
1.310728522E1,3.700313330E0,2.078772783E0,-1.608712435E0
1.312395116E1,-1.200654745E0,2.996368170E0,-6.804270148E-1
1.314061709E1,-3.283474445E0,1.750814795E0,1.161177635E0
1.315728303E1,-2.102367401E0,-1.990044713E0,3.516595840E0
1.317394897E1,-2.223089695E0,-4.163196087E0,5.493659496E0
1.319061491E1,-7.312891483E0,-2.596404314E0,6.617040157E0
1.320728084E1,-1.203815937E1,-7.197514176E-1,6.577333927E0
1.322394678E1,-9.611117363E0,-1.518533468E0,5.772213936E0
1.324061272E1,-3.146411657E0,-3.919613838E0,4.351266384E0
1.325727866E1,2.133139849E0,-4.473362923E0,2.431623697E0
1.327394459E1,3.283856392E0,-3.231398344E0,2.339612097E-1
1.329061053E1,5.057960153E-1,-5.913171172E-1,-1.539761066E0
1.330727647E1,-2.470566273E0,2.120846272E0,-3.134958029E0
1.332394241E1,-1.665675521E0,3.478645802E0,-5.017643452E0
1.334060834E1,1.159039617E0,3.925188065E0,-6.192794323E0
1.335727428E1,3.233459949E0,3.493382931E0,-6.093299866E0
1.337394022E1,1.933310628E0,4.468017578E0,-5.846357822E0
1.339060616E1,-4.287507236E-1,5.228467941E0,-4.008571148E0
1.340727209E1,4.964803457E-1,4.664868832E0,-2.619846344E0
1.342393803E1,2.818530083E0,2.809290648E0,-2.146502495E0
1.344060397E1,2.626718521E0,1.318857074E0,-1.220049739E0
1.345726991E1,4.310414493E-1,1.070922375E0,-1.534797698E-1
1.347393584E1,-1.784717798E0,1.303279996E0,9.447023869E-1
1.349060178E1,-2.084652424E0,5.080104470E-1,1.963853955E0
1.350726772E1,-4.980838597E-1,-1.469587922E0,3.302640438E0
1.352393366E1,1.078939915E0,-2.408563375E0,4.218861103E0
1.354059959E1,6.640864015E-1,-8.076395988E-1,4.273915291E0
1.355726553E1,-1.232954144E0,1.472489595E0,4.232758522E0
1.357393147E1,-3.316766739E0,2.139324903E0,4.326067924E0
1.359059741E1,-2.704374790E0,-7.837395072E-1,5.831009865E0
1.360726334E1,1.892917305E-1,-1.252120137E0,6.342074394E0
1.362392928E1,2.983998060E0,1.683925152E0,3.126405954E0
1.364059522E1,3.608912706E0,4.629362583E0,1.150640130E0
1.365726116E1,5.200673580E0,3.750556946E0,1.620547891E0
1.367392709E1,7.046401501E0,8.219185472E-1,1.336113930E0
1.369059303E1,5.590634346E0,-6.991347671E-1,8.233693838E-1
1.370725897E1,3.104720354E0,-8.620829135E-2,6.963858604E-1
1.372392491E1,9.887610078E-1,3.856083751E-2,-5.778017044E-1
1.374059084E1,-9.958623052E-1,-8.788817376E-2,4.108065739E-2
1.375725678E1,-1.650327563E0,-7.021127343E-1,1.271515012E0
1.377392272E1,-3.280344009E-1,-2.099236727E0,2.573115110E0
1.379058866E1,1.339702845E0,-2.900233269E0,3.655720234E0
1.380725459E1,2.295629740E0,-2.357250929E0,4.170144558E0
1.382392053E1,2.047236919E0,-1.366199136E0,4.218632221E0
1.384058647E1,1.156825200E-1,2.270889878E-1,4.408840179E0
1.385725241E1,-2.044487953E0,2.038684845E0,5.089725494E0
1.387391834E1,-1.431027055E0,1.926285744E0,5.507098675E0
1.389058428E1,1.984852433E0,4.449386299E-1,4.330191135E0
1.390725022E1,5.016650677E0,-4.737256467E-1,2.368093729E0
1.392391616E1,4.790172577E0,-1.546251476E-1,1.306028843E0
1.394058209E1,2.117257357E0,5.096902847E-1,1.376278400E0
1.395724803E1,-3.050506115E-1,1.107803226E0,1.831754446E0
1.397391397E1,-8.582650423E-1,1.400483847E0,1.607108831E0
1.399057991E1,1.254563481E-1,1.117577076E0,8.212313652E-1
1.400724584E1,1.913533926E0,6.553052068E-1,1.467602700E-1
1.402391178E1,3.137325048E0,-1.159115955E-1,-4.337139800E-2
1.404057772E1,3.813476086E0,-1.438510180E0,-3.837758005E-1
1.405724366E1,4.135401726E0,-2.071136951E0,-1.481270790E0
1.407390959E1,3.311421633E0,-1.576718330E0,-2.919322729E0
1.409057553E1,1.758450627E0,9.529490769E-2,-4.092717648E0
1.410724147E1,1.094058871E0,1.952934742E0,-4.976257324E0
1.412390741E1,2.195906162E0,2.693226337E0,-5.759156704E0
1.414057334E1,3.572184563E0,2.243324518E0,-5.946768761E0
1.415723928E1,3.470475435E0,2.153756380E0,-5.659738541E0
1.417390522E1,2.692539215E0,3.435579777E0,-5.562305450E0
1.419057116E1,2.479805470E0,5.198077679E0,-5.562993050E0
1.420723709E1,3.012021542E0,5.469224930E0,-5.388209343E0
1.422390303E1,3.789805174E0,3.752007723E0,-5.173643112E0
1.424056897E1,3.742004871E0,3.100596905E0,-4.677773476E0
1.425723491E1,3.365254164E0,4.260094643E0,-4.478478909E0
1.427390084E1,3.602575064E0,5.085144043E0,-4.707324028E0
1.429056678E1,4.334619999E0,4.839728832E0,-4.944568634E0
1.430723272E1,5.138594627E0,4.609280109E0,-4.929220676E0
1.432389866E1,5.483656883E0,4.217792034E0,-5.079417229E0
1.434056459E1,5.132027626E0,4.069275856E0,-5.598499298E0
1.435723053E1,4.443201542E0,4.388299942E0,-6.004877090E0
1.437389647E1,3.957334757E0,4.594542980E0,-5.912713051E0
1.439056241E1,3.819661140E0,4.107454777E0,-5.605600834E0
1.440722834E1,3.905029535E0,3.591808558E0,-5.324526310E0
1.442389428E1,3.925493479E0,3.480707407E0,-4.930671215E0
1.444056022E1,3.668319464E0,3.531409264E0,-4.277962208E0
1.445722616E1,3.221471786E0,3.604331255E0,-3.472002745E0
1.447389209E1,2.658101797E0,3.472002745E0,-2.831052780E0
1.449055803E1,1.736841321E0,3.274387836E0,-2.219806194E0
1.450722397E1,4.710530937E-1,3.284772635E0,-1.396131396E0
1.452388991E1,-8.113811612E-1,3.256520033E0,-2.703076601E-1
1.454055584E1,-1.818009973E0,2.838688612E0,8.029053807E-1
1.455722178E1,-3.052644014E0,1.986379504E0,1.494786143E0
1.457388772E1,-4.993972301E0,1.378034592E0,2.388633966E0
1.459055366E1,-7.046554089E0,1.263879180E0,3.783543825E0
1.460721959E1,-8.999488831E0,8.277981281E-1,5.179598808E0
1.462388553E1,-1.086193943E1,-4.338667095E-1,5.786569118E0
1.464055147E1,-1.244400311E1,-2.231260061E0,6.200659275E0
1.465721741E1,-1.368176746E1,-3.706880093E0,7.404597282E0
1.467388334E1,-1.407111740E1,-5.344990253E0,8.603114128E0
1.469054928E1,-1.288649750E1,-8.191467285E0,9.213138580E0
1.470721522E1,-9.545372963E0,-1.122150993E1,9.355546951E0
1.472388116E1,-5.859873295E0,-9.678312302E0,7.825330734E0
1.474054709E1,-4.114861488E0,-5.459069252E0,6.109869480E0
1.475721303E1,-2.300669432E0,-3.866850376E0,5.178453445E0
1.477387897E1,5.484802127E-1,-4.337903500E0,4.967094421E0
1.479054491E1,2.331365347E0,-4.812163830E0,4.499629974E0
1.480721084E1,1.993251801E0,-3.807061911E0,3.950767994E0
1.482387678E1,6.287325621E-1,-1.918191791E0,2.671846151E0
1.484054272E1,6.323214173E-1,-1.647120476E0,1.103756309E0
1.485720866E1,1.338252068E0,-2.314108610E0,-8.481093645E-1
1.487387459E1,1.128878117E0,-2.319377184E0,-4.017810345E0
1.489054053E1,-9.760091901E-1,-1.017853379E0,-5.684020519E0
1.490720647E1,-2.418489933E0,2.320522517E-1,-4.697626591E0
1.492387241E1,-1.951865673E0,9.149227142E-1,-4.621191978E0
1.494053834E1,-4.369973838E-1,3.744524717E0,-7.392227650E0
1.495720428E1,2.031736374E0,6.503190041E0,-8.909157753E0
1.497387022E1,4.803229809E0,7.006390095E0,-9.237497330E0
1.499053616E1,7.730264664E0,5.673330307E0,-1.128633785E1
1.500720209E1,8.962149620E0,5.226788044E0,-1.365481281E1
1.502386803E1,7.449877739E0,5.463269234E0,-1.389831924E1
1.504053397E1,4.647230148E0,6.699965000E0,-1.298324394E1
1.505719991E1,4.349509716E0,7.591827393E0,-1.178709412E1
1.507386584E1,6.955459118E0,5.591245174E0,-1.020029640E1
1.509053178E1,7.632984638E0,2.411923170E0,-7.643445492E0
1.510719772E1,3.985358238E0,1.513264775E0,-3.947331905E0
1.512386366E1,-1.600160241E0,3.003316641E0,-7.819832563E-1
1.514052959E1,-5.045819283E0,5.022301197E0,1.240131855E0
1.515719553E1,-4.759629250E0,3.714057922E0,3.639456034E0
1.517386147E1,-3.320966482E0,-3.385718167E-1,7.531504631E0
1.519052741E1,-4.152505875E0,-3.238728762E0,1.295598412E1
1.520719334E1,-7.257302761E0,-3.864941359E0,1.612034035E1
1.522385928E1,-1.047930908E1,-2.668180943E0,1.581773281E1
1.524052522E1,-1.054566383E1,-4.671130180E0,1.598365879E1
1.525719116E1,-6.699354172E0,-6.400488377E0,1.413235664E1
1.527385709E1,-3.360978127E0,-3.722915411E0,9.290719032E0
1.529052303E1,-3.782016635E-1,-2.601444006E0,5.189754486E0
1.530718897E1,2.373209596E-1,-1.839542866E0,2.608850718E0
1.532385491E1,-8.935424685E-1,-4.786125422E-1,1.876652956E0
1.534052084E1,-6.905826330E-1,-1.990884662E0,1.897575021E0
1.535718678E1,-1.781434417E-1,-4.158843994E0,1.357417941E0
1.537385272E1,-7.243329287E-1,-3.266752243E0,-1.497458696E0
1.539051866E1,-1.326187491E0,-1.606498003E0,-3.760712624E0
1.540718459E1,-1.049694777E0,-3.985892832E-1,-5.107669353E0
1.542385053E1,6.237692833E-1,4.687623680E-1,-7.990798473E0
1.544051647E1,2.839452267E0,1.396665931E0,-1.028994083E1
1.545718241E1,4.675406456E0,1.367497206E0,-1.148731232E1
1.547384834E1,5.148674011E0,1.474322200E0,-1.289604282E1
1.549051428E1,4.765966892E0,2.111606836E0,-1.428866196E1
1.550718022E1,4.493826866E0,1.924453139E0,-1.537645912E1
1.552384616E1,3.354411125E0,1.486844897E0,-1.549886131E1
1.554051209E1,1.151861906E0,2.844491959E0,-1.558858204E1
1.555717803E1,-4.146244824E-1,4.506273270E0,-1.443725491E1
1.557384397E1,-3.846921027E-1,4.217563152E0,-1.244209385E1
1.559050991E1,8.345940113E-1,4.440987110E0,-1.031040478E1
1.560717584E1,1.638033867E0,4.104476929E0,-8.014316559E0
1.562384178E1,1.009454057E-1,3.517741203E0,-4.886612892E0
1.564050772E1,-2.798524380E0,3.822333574E0,-8.985821009E-1
1.565717366E1,-4.401968002E0,2.667951822E0,3.437947035E0
1.567383959E1,-4.627071857E0,-4.076758921E-1,7.002343178E0
1.569050553E1,-5.348731995E0,-2.791270256E0,1.092615604E1
1.570717147E1,-7.208738804E0,-4.562472820E0,1.479575539E1
1.572383741E1,-1.016211700E1,-4.727864265E0,1.636056137E1
1.574050334E1,-1.312786579E1,-4.713279724E0,1.641912842E1
1.575716928E1,-1.156206703E1,-5.618886948E0,1.437624454E1
1.577383522E1,-7.230577469E0,-5.114160061E0,9.834541321E0
1.579050116E1,-3.868148565E0,-4.154415131E0,5.997394085E0
1.580716709E1,-2.310977936E0,-3.577376842E0,3.475896835E0
1.582383303E1,-2.139859438E0,-3.305465698E0,2.435288906E0
1.584049897E1,-2.621678829E0,-3.476736784E0,2.218126297E0
1.585716491E1,-1.806174397E0,-2.782183647E0,9.770018458E-1
1.587383084E1,4.153116941E-1,-4.127155304E0,1.769217104E-1
1.589049678E1,1.219133377E0,-4.701062679E0,-2.235077858E0
1.590716272E1,-6.097193956E-1,-1.801974773E0,-4.854695320E0
1.592382866E1,-2.384434223E0,6.570614576E-1,-5.693488598E0
1.594049459E1,-2.041739225E0,1.676136613E0,-7.005855560E0
1.595716053E1,-9.201150388E-2,3.976347923E0,-9.554230690E0
1.597382647E1,2.561814070E0,5.583227634E0,-1.129550076E1
1.599049241E1,4.528951645E0,5.945012569E0,-1.155870724E1
1.600715834E1,5.940278053E0,6.357880592E0,-1.228731632E1
1.602382428E1,6.892387390E0,6.230668068E0,-1.301959038E1
1.604049022E1,6.928199291E0,5.666840076E0,-1.317077923E1
1.605715616E1,5.453189850E0,5.236409187E0,-1.205595112E1
1.607382209E1,3.076849461E0,5.450822830E0,-1.001344776E1
1.609048803E1,1.212872028E0,5.250993729E0,-7.857782841E0
1.610715397E1,7.895427197E-2,5.778246403E0,-5.967996120E0
1.612381991E1,-6.737838387E-1,5.532067776E0,-2.611599684E0
1.614048584E1,-1.310152292E0,3.086852551E0,1.670638800E0
1.615715178E1,-2.303494692E0,7.872520089E-1,5.040779591E0
1.617381772E1,-3.898386240E0,3.022253513E-1,7.201484680E0
1.619048366E1,-5.925922871E0,-8.798743486E-1,1.027398205E1
1.620714959E1,-7.742252827E0,-3.240255833E0,1.326744843E1
1.622381553E1,-8.663895607E0,-5.097132206E0,1.463418198E1
1.624048147E1,-9.003153801E0,-6.537398338E0,1.525245380E1
1.625714741E1,-9.429919243E0,-5.076515198E0,1.244782066E1
1.627381334E1,-8.804928780E0,-3.454516649E0,8.463912964E0
1.629047928E1,-4.780016899E0,-4.090732574E0,5.483885765E0
1.630714522E1,-8.277217746E-1,-4.167548656E0,3.151680470E0
1.632381116E1,-2.695440948E-1,-3.538052559E0,2.947269917E0
1.634047709E1,-2.783787251E0,-2.655658245E0,3.539503336E0
1.635714303E1,-4.217410564E0,-1.704236388E0,1.915901065E0
1.637380897E1,-2.528369427E0,-1.682779789E0,1.656207144E-1
1.639047491E1,8.510109782E-1,-2.483699799E0,-2.355265617E0
1.640714084E1,1.721035123E0,-2.913366795E0,-3.697106361E0
1.642380678E1,4.021017551E-1,-1.752723813E0,-4.777573586E0
1.644047272E1,-1.054810762E0,1.276554704E0,-7.800055981E0
1.645713866E1,-1.557552457E0,4.628293514E0,-1.035507393E1
1.647380459E1,-5.032762289E-1,5.787791252E0,-1.053558445E1
1.649047053E1,1.446985960E0,6.383536816E0,-1.035767078E1
1.650713647E1,4.115777969E0,6.700575829E0,-1.054535866E1
1.652380241E1,5.820167065E0,5.231904030E0,-9.427475929E0
1.654046834E1,4.943728447E0,4.561632633E0,-7.363745689E0
1.655713428E1,2.728580236E0,6.212800026E0,-6.238151073E0
1.657380022E1,2.730870962E0,7.445143700E0,-6.442485332E0
1.659046616E1,5.184562206E0,6.474250317E0,-5.657218933E0
1.660713209E1,4.902953625E0,2.505156517E0,-2.878929377E0
1.662379803E1,2.131154537E-1,5.672643185E-1,-2.824485898E-1
1.664046397E1,-5.327886105E0,3.079598427E0,1.331532478E0
1.665712991E1,-6.771970749E0,2.224845886E0,3.751778841E0
1.667379584E1,-5.315058231E0,-4.134714603E0,7.386806011E0
1.669046178E1,-5.225795269E0,-7.276163101E0,1.015807056E1
1.670712772E1,-9.594242096E0,-7.462858677E0,1.331669903E1
1.672379366E1,-1.229571533E1,-6.365211010E0,1.302821827E1
1.674045959E1,-9.717789650E0,-3.573253632E0,6.772275925E0
1.675712553E1,-4.148917198E0,-3.473071814E0,2.038837671E0
1.677379147E1,-7.803797722E-1,-4.147466183E0,1.797087789E0
1.679045741E1,-1.116279006E0,-4.350349903E0,3.114723206E0
1.680712334E1,-8.040507436E-1,-3.401676893E0,1.827936530E0
1.682378928E1,9.330195785E-1,-1.316566348E0,-5.157989264E-1
1.684045522E1,3.681300163E0,9.402735829E-1,-2.627100229E0
1.685712116E1,4.719007015E0,3.018664598E0,-3.520337343E0
1.687378709E1,4.293921471E0,3.624031544E0,-3.627467871E0
1.689045303E1,4.402960777E0,3.276831388E0,-3.534692764E0
1.690711897E1,5.875679016E0,1.419115186E0,-3.398851633E0
1.692378491E1,6.124759197E0,1.008308649E0,-5.323304653E0
1.694045084E1,3.704054832E0,2.181856394E0,-6.032213211E0
1.695711678E1,1.963166714E0,5.062770844E0,-7.388027668E0
1.697378272E1,1.836870432E0,4.851793289E0,-6.078944683E0
1.699044866E1,2.191553831E0,2.743317366E0,-3.716424942E0
1.700711459E1,2.379700184E0,2.371682525E-1,-1.520442486E0
1.702378053E1,1.359479547E0,-1.622456908E0,5.686387420E-1
1.704044647E1,-1.896735132E-1,-1.768835306E0,2.312581301E0
1.705711241E1,-2.716286659E0,-2.562425137E0,4.173428059E0
1.707377834E1,-5.750146389E0,-2.746524334E0,6.020606995E0
1.709044428E1,-7.354812145E0,-1.947360516E0,6.541750908E0
1.710711022E1,-5.899732113E0,-1.812741160E-1,4.366232395E0
1.712377616E1,-1.561217666E0,2.490113974E0,1.103069067E0
1.714044209E1,3.172831774E0,3.452149630E0,-6.994401813E-1
1.715710803E1,5.384391308E0,3.323944330E0,-1.217377186E0
1.717377397E1,5.162494659E0,3.970621109E0,-1.235321283E0
1.719043991E1,4.486649036E0,4.975722790E0,-1.068249822E0
1.720710584E1,3.778809547E0,5.316814423E0,-5.641336441E-1
1.722377178E1,4.742525101E0,3.323180676E0,8.910226226E-1
1.724043772E1,7.235235214E0,1.505705357E0,2.259894133E0
1.725710366E1,7.694987297E0,1.483103275E0,-4.971675575E-1
1.727376959E1,4.912116528E0,3.053331137E0,-2.695822716E0
1.729043553E1,1.975689411E0,5.626904488E0,-5.432725906E0
1.730710147E1,1.341382742E0,6.673544884E0,-5.084685802E0
1.732376741E1,1.696905971E0,4.506807804E0,-3.125642300E0
1.734043334E1,1.363984704E0,2.926805973E0,-1.602298260E0
1.735709928E1,5.387063622E-1,2.057850838E0,7.971785218E-2
1.737376522E1,-2.057087123E-1,1.112842917E0,2.396575212E0
1.739043116E1,-2.248746008E-1,3.530798554E-1,4.500469685E0
1.740709709E1,6.019308567E-1,-7.940478325E-1,5.973875523E0
1.742376303E1,1.018464327E0,-2.308381557E0,6.929726601E0
1.744042897E1,-6.356047988E-1,-1.720577002E0,7.411316872E0
1.745709491E1,-3.387474298E0,8.263473511E-1,7.140016556E0
1.747376084E1,-5.032533169E0,3.010647058E0,5.265578270E0
1.749042678E1,-5.081631184E0,3.805687666E0,3.821417332E0
1.750709272E1,-3.826227903E0,2.963381290E0,3.700313330E0
1.752375866E1,-1.424918413E0,1.256243467E0,4.439459801E0
1.754042459E1,1.601305604E0,-1.704312712E-1,5.219610691E0
1.755709053E1,4.370050430E0,-1.173394918E0,5.743045330E0
1.757375647E1,5.815967083E0,-1.100014806E0,6.007549763E0
1.759042241E1,5.381413460E0,-1.395826042E-1,5.855444431E0
1.760708834E1,3.166875839E0,9.892191291E-1,5.749230385E0
1.762375428E1,1.464548349E0,6.246092319E-1,5.017337799E0
1.764042022E1,2.303952932E0,-9.027817845E-1,3.546604633E0
1.765708616E1,4.188623428E0,-2.450407743E0,1.954614520E0
1.767375209E1,5.253742695E0,-2.607934475E0,2.367101051E-2
1.769041803E1,6.102921009E0,-1.747149587E0,-2.927951336E0
1.770708397E1,5.950204849E0,-8.074105382E-1,-5.338500023E0
1.772374991E1,4.352640629E0,9.674571157E-1,-6.836646080E0
1.774041584E1,2.619235516E0,2.496986151E0,-7.786769867E0
1.775708178E1,2.034790516E0,3.763079643E0,-8.349758148E0
1.777374772E1,3.168326616E0,4.688387394E0,-8.481323242E0
1.779041366E1,5.370952129E0,4.421057701E0,-8.352354050E0
1.780707959E1,7.320221901E0,3.045695543E0,-7.942616463E0
1.782374553E1,7.818916321E0,1.895055294E0,-7.208204269E0
1.784041147E1,6.825497627E0,1.649869442E0,-6.230668068E0
1.785707741E1,5.229460716E0,1.817399025E0,-5.137830734E0
1.787374334E1,3.785834551E0,1.637499452E0,-3.930838585E0
1.789040928E1,2.556927204E0,1.382081509E0,-2.758589029E0
1.790707522E1,1.760130525E0,1.258763194E0,-1.777769208E0
1.792374116E1,7.883973718E-1,1.195920467E0,-9.717331529E-1
1.794040709E1,-7.363211513E-1,1.408806920E0,-7.681624591E-2
1.795707303E1,-2.392757416E0,1.609781384E0,1.207756042E0
1.797373897E1,-3.191081285E0,8.646790981E-1,3.017519236E0
1.799040491E1,-2.765232086E0,-1.239215612E0,5.497859478E0
1.800707084E1,-2.067090034E0,-2.663446903E0,7.983086586E0
1.802373678E1,-2.387336016E0,-2.381608963E0,9.445649147E0
1.804040272E1,-5.065443516E0,-5.590176582E-1,1.058086491E1
1.805706866E1,-8.636864662E0,-6.520981342E-2,1.189781284E1
1.807373459E1,-9.647463799E0,-2.235230684E0,1.318635654E1
1.809040053E1,-5.926762581E0,-5.074606419E0,1.346239090E1
1.810706647E1,-6.903535724E-1,-5.230300426E0,1.100931072E1
1.812373241E1,3.928624094E-1,-2.897789717E0,8.881515503E0
1.814039834E1,-1.196913123E0,-8.108466268E-1,6.772505283E0
1.815706428E1,-2.354883671E0,1.211039424E-1,4.265286922E0
1.817373022E1,-2.534325361E0,4.566214085E-1,2.465144873E0
1.819039616E1,-1.690721035E0,8.185587823E-2,1.402163744E0
1.820706209E1,-6.072759628E-1,-4.226420820E-1,4.290561378E-1
1.822372803E1,1.727983803E-1,-8.305470347E-1,-4.067595899E-1
1.824039397E1,8.452841640E-1,-1.369482517E0,-1.223485827E0
1.825705991E1,1.438662887E0,-2.025856733E0,-2.255847216E0
1.827372584E1,1.627191067E0,-2.067166328E0,-3.513770580E0
1.829039178E1,1.071991324E0,-1.234863162E0,-4.481151104E0
1.830705772E1,2.010508776E-1,4.520399496E-2,-4.468475819E0
1.832372366E1,2.284634262E-1,1.969351649E0,-4.712898254E0
1.834038959E1,2.405890942E0,3.378387690E0,-6.403542995E0
1.835705553E1,5.193114281E0,3.462534189E0,-8.089758873E0
1.837372147E1,6.788769245E0,3.709323645E0,-9.136016846E0
1.839038741E1,7.376574039E0,4.046368122E0,-1.069631863E1
1.840705334E1,7.784479141E0,3.026682377E0,-1.240651131E1
1.842371928E1,7.374665260E0,2.018984556E0,-1.302615738E1
1.844038522E1,5.343005180E0,1.653687358E0,-1.350072289E1
1.845705116E1,2.579834700E0,3.599138975E0,-1.361098385E1
1.847371709E1,2.410777807E0,4.378831387E0,-1.286282730E1
1.849038303E1,3.023017168E0,4.129827499E0,-1.085392189E1
1.850704897E1,2.223547697E0,5.023522854E0,-6.804575443E0
1.852371491E1,2.877936661E-1,6.053441048E0,-2.685208797E0
1.854038084E1,-1.365817308E0,7.152234077E0,5.985711217E-1
1.855704678E1,-1.741193652E0,6.015185356E0,4.601186275E0
1.857371272E1,-2.508821726E0,1.130710721E0,1.032231712E1
1.859037866E1,-5.328115463E0,-3.605552912E0,1.667653275E1
1.860704459E1,-8.818749428E0,-3.052720308E0,1.832991409E1
1.862371053E1,-1.312389565E1,9.783763289E-1,1.454377365E1
1.864037647E1,-1.495221329E1,-1.414610147E0,1.213528728E1
1.865704241E1,-1.558002949E1,-4.174191952E0,1.050626373E1
1.867370834E1,-1.793880844E1,-8.757510185E-1,5.621253967E0
1.869037428E1,-1.877523422E1,-5.115992576E-2,1.686444998E0
1.870704022E1,-1.518304443E1,-1.742110014E0,1.379027218E-1
1.872370616E1,-9.266436577E0,-2.079001904E0,-1.287855625E0
1.874037209E1,-3.469330072E0,-2.167424679E0,-2.094502687E0
1.875703803E1,1.346193254E-1,-2.051818371E0,-2.793026447E0
1.877370397E1,2.469420880E-1,-7.456368208E-1,-2.991175652E0
1.879036991E1,-8.046616316E-1,1.301065564E0,-2.483776093E0
1.880703584E1,-5.561923981E-1,3.236896038E0,-2.251418591E0
1.882370178E1,1.160032272E0,5.526035309E0,-1.643378973E0
1.884036772E1,3.506363869E0,8.131220818E0,-9.274454713E-1
1.885703366E1,5.364920139E0,9.774065971E0,-5.277871490E-1
1.887369959E1,6.314280033E0,1.085850334E1,-7.217367291E-1
1.889036553E1,7.025479317E0,1.204747486E1,-1.636277676E0
1.890703147E1,8.258509636E0,1.276516533E1,-2.773936987E0
1.892369741E1,1.009316635E1,1.221011829E1,-4.027813435E0
1.894036334E1,1.071998978E1,1.176449203E1,-5.181584358E0
1.895702928E1,1.042562962E1,1.120707798E1,-5.891180038E0
1.897369522E1,8.513851166E0,1.062339687E1,-5.556731701E0
1.899036116E1,6.664763927E0,1.040692139E1,-4.531929493E0
1.900702709E1,6.434085846E0,9.110513687E0,-2.821355343E0
1.902369303E1,7.712473392E0,5.778780937E0,-8.097012639E-1
1.904035897E1,7.746299744E0,2.083659649E0,9.087377191E-1
1.905702491E1,4.048201084E0,1.072296739E0,2.364963055E0
1.907369084E1,-4.655553102E-1,4.888445437E-1,4.404869556E0
1.909035678E1,-3.380525589E0,-1.461875796E0,6.450350285E0
1.910702272E1,-5.481747627E0,-4.014985085E0,8.669392586E0
1.912368866E1,-7.253942966E0,-6.937438488E0,1.097449112E1
1.914035459E1,-8.349681854E0,-9.354325294E0,1.191491795E1
1.915702053E1,-9.217797279E0,-1.002558899E1,1.274431896E1
1.917368647E1,-8.354339600E0,-1.058911228E1,1.365152931E1
1.919035241E1,-6.403008461E0,-7.592133045E0,1.126075745E1
1.920701834E1,-5.051546097E0,-4.298426151E0,8.641522408E0
1.922368428E1,-3.986350775E0,-2.080376387E0,6.189969063E0
1.924035022E1,-2.845942736E0,-2.343430072E-1,3.476278782E0
1.925701616E1,-2.480874538E0,3.834703565E-1,2.668410063E0
1.927368209E1,-6.093376130E-2,-1.451261997E0,2.596404314E0
1.929034803E1,3.197571754E0,-3.503767729E0,7.066941857E-1
1.930701397E1,3.724595308E0,-2.721402645E0,-2.528980255E0
1.932367991E1,1.096349597E0,-9.589813352E-1,-4.750466347E0
1.934034584E1,-1.069013357E0,4.963276386E-1,-6.065810680E0
1.935701178E1,-6.421715766E-2,1.356806993E0,-8.384347916E0
1.937367772E1,2.082132578E0,2.391612053E0,-1.021671391E1
1.939034366E1,3.899379015E0,3.096091747E0,-1.129244614E1
1.940700959E1,5.071017742E0,3.870973825E0,-1.244407940E1
1.942367553E1,6.370861530E0,3.789957762E0,-1.369566441E1
1.944034147E1,6.461345673E0,3.181154728E0,-1.410845661E1
1.945700741E1,5.160356522E0,3.682827473E0,-1.363946533E1
1.947367334E1,3.312719584E0,4.186714649E0,-1.186894989E1
1.949033928E1,1.257159710E0,4.612639904E0,-9.727716446E0
1.950700522E1,7.326559424E-1,5.105760574E0,-7.392838478E0
1.952367116E1,2.002414703E0,4.471835613E0,-4.851488113E0
1.954033709E1,2.759047031E0,3.656941891E0,-1.377194643E0
1.955700303E1,1.536706686E0,2.761337996E0,1.839161158E0
1.957366897E1,-1.481041670E0,2.291124821E0,4.304229736E0
1.959033491E1,-4.043008327E0,1.714315653E0,6.905368328E0
1.960700084E1,-5.208538532E0,-1.080696106E0,1.046770287E1
1.962366678E1,-6.666825294E0,-3.197037220E0,1.388426876E1
1.964033272E1,-9.427475929E0,-3.526598692E0,1.450803852E1
1.965699866E1,-1.096708488E1,-4.507953167E0,1.385135841E1
1.967366459E1,-9.316222191E0,-6.129417419E0,1.276127052E1
1.969033053E1,-7.545783520E0,-5.282376766E0,9.547205925E0
1.970699647E1,-7.074195862E0,-3.152902126E0,6.696299553E0
1.972366241E1,-6.225628376E0,-2.185521364E0,4.220770359E0
1.974032834E1,-5.046201229E0,-6.999746561E-1,1.441640854E0
1.975699428E1,-4.537656307E0,-1.608788729E0,7.554106712E-1
1.977366022E1,-4.816210747E0,-2.840597630E0,7.678570151E-1
1.979032616E1,-4.137539864E0,-1.953469157E0,-7.326559424E-1
1.980699209E1,-3.061119795E0,-1.921704292E0,-1.389641047E0
1.982365803E1,-1.567097187E0,-1.519068003E0,-2.865948439E0
1.984032397E1,4.046979249E-1,-8.910226226E-1,-4.503218651E0
1.985698991E1,1.321453214E0,2.306014597E-1,-4.852633476E0
1.987365584E1,1.558926940E0,2.100305796E0,-5.567192554E0
1.989032178E1,2.253556490E0,5.662869453E0,-7.943456650E0
1.990698772E1,3.819355726E0,7.743703842E0,-9.001169205E0
1.992365366E1,6.206233501E0,7.016698360E0,-8.728188515E0
1.994031959E1,7.973083496E0,6.021981239E0,-8.952757835E0
1.995698553E1,8.982460976E0,4.904404163E0,-8.882966995E0
1.997365147E1,7.430330276E0,4.186027050E0,-7.474694252E0
1.999031741E1,5.264966965E0,4.893026829E0,-7.902528763E0
2.000698334E1,4.543535709E0,6.027173519E0,-8.259044647E0
2.002364928E1,4.477715015E0,5.025355339E0,-6.608106136E0
2.004031522E1,2.604803801E0,2.265697479E0,-3.599444389E0
2.005698116E1,-1.277929068E0,8.087849617E-1,-7.309760451E-1
2.007364709E1,-4.291096210E0,6.150645018E-1,1.802356482E0
2.009031303E1,-5.085907459E0,-2.078238249E0,5.829940796E0
2.010697897E1,-4.698084831E0,-6.383536816E0,1.028925323E1
2.012364491E1,-4.203131676E0,-8.322803497E0,1.248401451E1
2.014031084E1,-5.785729408E0,-6.741809368E0,1.269132710E1
2.015697678E1,-9.127236366E0,-6.083983898E0,1.300378418E1
2.017364272E1,-8.799888611E0,-1.722486019E0,7.593430996E0
2.019030866E1,-6.071690559E0,1.086881161E0,1.922391415E0
2.020697459E1,-2.108857870E0,7.637336850E-1,-2.024253160E-1
2.022364053E1,4.207331315E-2,9.640973210E-1,-9.450078011E-1
2.024030647E1,1.856265366E-1,1.196684122E0,-1.072373152E0
2.025697241E1,6.033816934E-1,3.001636863E-1,-1.394451618E0
2.027363834E1,1.361006737E0,-3.138317764E-1,-2.152305603E0
2.029030428E1,2.623816967E0,8.104648590E-1,-3.345935583E0
2.030697022E1,3.559051037E0,1.278998137E0,-3.891361475E0
2.032363616E1,3.662974358E0,2.224311352E0,-3.127398491E0
2.034030209E1,2.746218920E0,2.849302292E0,-2.018908024E0
2.035696803E1,1.588095665E0,3.295004606E0,-6.007854939E-1
2.037363397E1,4.140823364E0,1.843208075E0,-1.178434491E0
2.039029991E1,7.223170757E0,9.599739909E-1,-3.872042656E0
2.040696584E1,6.204019070E0,1.236543059E0,-5.275580883E0
2.042363178E1,3.760407209E0,4.269639492E0,-8.596241951E0
2.044029772E1,2.293873549E0,6.735318661E0,-8.705052376E0
2.045696366E1,1.973169565E0,4.856375217E0,-6.191420078E0
2.047362959E1,1.675983906E0,3.143128395E0,-4.159225464E0
2.049029553E1,6.714931130E-1,1.977674723E0,-1.962174058E0
2.050696147E1,-7.011964321E-1,-2.095266134E-1,1.479132652E0
2.052362741E1,-2.053956509E0,-4.158767223E0,5.517254353E0
2.054029334E1,-3.366094112E0,-6.038856506E0,7.971174717E0
2.055695928E1,-5.354993343E0,-5.921799660E0,8.458186150E0
2.057362522E1,-8.804393768E0,-4.624704361E0,1.008316326E1
2.059029116E1,-8.376025200E0,-4.481074810E0,9.751081467E0
2.060695709E1,-3.834245443E0,-2.282114506E0,4.406320572E0
2.062362303E1,-5.743656158E-1,-1.537088454E-1,5.554288030E-1
2.064028897E1,5.396226645E-1,1.372689486E0,-1.637117624E0
2.065695491E1,1.286633909E-1,2.724685907E0,-2.424522400E0
2.067362084E1,5.861247778E-1,2.272035122E0,-2.411312342E0
2.069028678E1,1.409723163E0,1.448742151E0,-2.407570839E0
2.070695272E1,1.526016593E0,1.215697289E0,-1.878714681E0
2.072361866E1,1.940259218E0,1.594280720E0,-1.345582366E0
2.074028459E1,2.772638798E0,1.500589371E0,-9.699005485E-1
2.075695053E1,3.459480047E0,9.691369534E-1,-5.518399477E-1
2.077361647E1,3.219868183E0,9.994511604E-1,8.376483619E-2
2.079028241E1,3.207345486E0,1.087644696E0,1.181717873E0
2.080694834E1,5.798710346E0,6.880627871E-1,-4.235583544E-1
2.082361428E1,8.540348053E0,7.116574645E-1,-4.360581875E0
2.084028022E1,7.974381447E0,2.449567765E-1,-6.092917919E0
2.085694616E1,4.330955029E0,9.275218248E-1,-7.226377487E0
2.087361209E1,9.250019789E-1,2.854876518E0,-8.304401398E0
2.089027803E1,-3.174206018E-1,3.710239887E0,-7.861295223E0
2.090694397E1,2.957349122E-1,2.757290840E0,-6.550302982E0
2.092360991E1,1.150563836E0,1.338175654E0,-5.225490093E0
2.094027584E1,1.010828495E0,7.599921227E-1,-3.880289555E0
2.095694178E1,-2.105192691E-1,1.281288862E0,-2.334419727E0
2.097360772E1,-1.403156400E0,7.461713552E-1,-3.321577236E-2
2.099027366E1,-1.933921576E0,-1.754556417E0,2.705978155E0
2.100693959E1,-1.596953273E0,-4.142732143E0,5.126759052E0
2.102360553E1,-2.257756233E0,-6.142321587E0,7.396732330E0
2.104027147E1,-4.906847477E0,-5.200749874E0,9.398994446E0
2.105693741E1,-7.327399254E0,-2.170478821E0,9.004605293E0
2.107360334E1,-8.565011024E0,5.567268729E-1,5.712807655E0
2.109026928E1,-8.425734520E0,2.115424633E0,2.601902246E0
2.110693522E1,-6.365287304E0,2.177656651E0,1.055116177E0
2.112360116E1,-3.358839989E0,2.074954987E0,6.359102130E-1
2.114026709E1,-8.582650423E-1,1.453094602E0,6.348412037E-1
2.115693303E1,2.835176289E-1,1.758527011E-1,7.606030107E-1
2.117359897E1,-9.071341902E-2,-3.711767197E-1,7.048615813E-1
2.119026491E1,-1.374903917E0,1.162933856E-1,2.922224402E-1
2.120693084E1,-2.629009247E0,1.133154154E0,2.901607659E-3
2.122359678E1,-3.160919905E0,1.944229841E0,-6.551524997E-2
2.124026272E1,-2.687728643E0,2.351371288E0,-7.269290835E-2
2.125692866E1,-1.567784429E0,2.316322803E0,-2.962694131E-2
2.127359459E1,-3.260490894E-1,2.391535521E0,4.870119393E-1
2.129026053E1,4.482220486E-2,3.609447241E0,8.422298431E-1
2.130692647E1,-4.396699369E-1,5.147604942E0,1.226158381E0
2.132359241E1,-7.925207019E-1,4.346226692E0,1.630779862E0
2.134025834E1,-1.938732117E-1,2.636415958E0,1.220202371E-1
2.135692428E1,1.575802088E0,-1.599702090E-1,-5.679515004E-1
2.137359022E1,3.328144073E0,8.368083835E-1,1.306487024E-1
2.139025616E1,3.114035845E0,2.627405882E0,2.194989920E0
2.140692209E1,1.144378781E0,1.624823928E0,2.958647251E0
2.142358803E1,6.597339362E-2,1.239902735E0,2.510730505E0
2.144025397E1,-1.123456717E0,1.775402069E0,1.902232885E0
2.145691991E1,-1.548236728E0,2.312581301E0,1.062064767E0
2.147358584E1,-1.299309373E0,2.650313139E0,8.617774844E-1
2.149025178E1,-1.104978085E0,2.407494545E0,1.234939456E0
2.150691772E1,-1.435837626E0,1.820224285E0,1.493793488E0
2.152358366E1,-2.098091364E0,2.282267094E0,9.489784241E-1
2.154024959E1,-1.876652956E0,2.833420038E0,4.308887422E-1
2.155691553E1,-3.815613985E-1,3.302793264E0,5.891790986E-1
2.157358147E1,1.117195368E0,3.439779520E0,5.564214587E-1
2.159024741E1,1.169347882E0,3.336237907E0,3.373500705E-1
2.160691334E1,7.145590782E-1,2.703992844E0,2.586248815E-1
2.162357928E1,7.334958911E-1,2.150243998E0,4.114174247E-1
2.164024522E1,8.237511516E-1,1.794644356E0,5.820778012E-1
2.165691116E1,6.508764029E-1,1.725998402E0,5.154935122E-1
2.167357709E1,6.143772602E-1,1.675220251E0,2.322813272E-1
2.169024303E1,7.773254514E-1,1.653534651E0,2.844339013E-1
2.170690897E1,6.756164432E-1,1.431256175E0,4.382954836E-1
2.172357491E1,4.757109582E-1,1.082986951E0,4.382954836E-1
2.174024084E1,4.180605710E-1,9.024763703E-1,3.257436454E-1
2.175690678E1,4.021017551E-1,6.068177819E-1,2.612210512E-1
2.177357272E1,1.017089859E-1,4.123337269E-1,2.114355713E-1
2.179023866E1,-2.528980076E-1,4.145480990E-1,1.474474818E-1
2.180690459E1,-2.412915826E-1,6.692787409E-1,3.390299529E-2
2.182357053E1,-1.250745654E-1,7.893136740E-1,-3.039052337E-2
2.184023647E1,-7.185296714E-2,5.658898354E-1,1.521816850E-1
2.185690241E1,1.507308781E-1,3.237583339E-1,4.566977918E-1
2.187356834E1,4.046979249E-1,3.917170465E-1,4.970912039E-1
2.189023428E1,6.014727354E-1,5.143481493E-1,3.859901726E-1
2.190690022E1,6.740893126E-1,8.056542873E-1,3.420079052E-1
2.192356616E1,4.977020919E-1,1.244866014E0,5.282453299E-1
2.194023209E1,2.875646055E-1,1.561828494E0,6.926442981E-1
2.195689803E1,3.250564337E-1,1.639713764E0,6.809614897E-1
2.197356397E1,5.107592940E-1,1.581987023E0,6.219366789E-1
2.199022991E1,5.365683436E-1,1.534645081E0,6.346884966E-1
2.200689584E1,4.533380270E-1,1.586568594E0,7.658717036E-1
2.202356178E1,5.277871490E-1,1.745087981E0,8.709404469E-1
2.204022772E1,6.432406306E-1,1.824958563E0,8.384882808E-1
2.205689366E1,5.847502947E-1,1.747455001E0,7.703768611E-1
2.207355959E1,3.653734922E-1,1.570304275E0,7.808378935E-1
2.209022553E1,7.773254067E-2,1.484401464E0,7.412844300E-1
2.210689147E1,-2.138026804E-2,1.561981201E0,5.602393746E-1
2.212355741E1,9.850194305E-2,1.639790177E0,4.363101721E-1
2.214022334E1,1.450803876E-1,1.599243999E0,4.082867503E-1
2.215688928E1,1.103374511E-1,1.511661291E0,3.888154328E-1
2.217355522E1,1.557705253E-1,1.491350055E0,3.249800503E-1
2.219022116E1,2.638935745E-1,1.549000382E0,2.068540901E-1
2.220688709E1,3.356702030E-1,1.574122190E0,1.049923822E-1
2.222355303E1,3.169624507E-1,1.474933028E0,1.134681329E-1
2.224021897E1,1.515708268E-1,1.365130067E0,1.451567411E-1
2.225688491E1,2.328922041E-2,1.209283233E0,5.398517475E-2
2.227355084E1,9.162971750E-3,1.099632978E0,-9.850194678E-3
2.229021678E1,2.160934173E-2,8.652135730E-1,2.313650399E-2
2.230688272E1,4.016435891E-2,6.244565248E-1,9.674570709E-2
