"Time (s)","Linear Acceleration x (m/s^2)","Linear Acceleration y (m/s^2)","Linear Acceleration z (m/s^2)"
3.563490600E-2,0.000000000E0,0.000000000E0,0.000000000E0
5.230084300E-2,8.749961853E-5,-9.551048279E-4,-2.098746300E-1
6.896678100E-2,-1.462910175E-1,1.525564194E-1,-8.374023438E-1
8.563271800E-2,-1.490483284E-1,2.270193100E-1,-1.234250069E0
1.022986560E-1,-2.615594864E-2,1.230072975E-1,-1.234926701E0
1.189645930E-1,-2.284526825E-3,3.566455841E-2,-8.505439758E-1
1.356305310E-1,1.488137245E-1,-4.635953903E-2,-7.004261017E-2
1.522964680E-1,8.460760117E-2,7.958555222E-2,3.120222092E-1
1.689624060E-1,-1.563119888E-1,2.409148216E-1,3.948354721E-2
1.856283430E-1,-3.087944984E-1,3.735661507E-1,-1.811099052E-1
2.022942810E-1,-3.018007278E-1,3.071899414E-1,-4.881238937E-2
2.189602180E-1,-2.144107819E-1,1.048078537E-1,6.515264511E-2
2.356261560E-1,-2.075040340E-1,2.180147171E-2,1.154937744E-1
2.522920930E-1,-2.315733433E-1,1.164717674E-1,7.664203644E-3
2.689580310E-1,-2.096214294E-1,1.861004829E-1,-4.508948326E-1
2.856239680E-1,-3.197093010E-1,3.466691971E-1,-5.775532722E-1
3.022899060E-1,-3.861691952E-1,5.266308784E-1,-5.549411774E-1
3.189558430E-1,-7.550356388E-1,1.053230286E0,-7.961592674E-1
3.356217810E-1,-9.818999767E-1,1.887207985E0,-8.556380272E-1
3.522877180E-1,-1.484274864E-2,1.310674667E0,-1.735774040E0
3.689536560E-1,9.375705719E-1,7.245125771E-1,-2.901168108E0
3.856195930E-1,1.496060014E0,9.015083313E-2,-2.592821360E0
4.022855310E-1,6.711244583E-1,3.768362999E-1,-1.001087189E0
4.189514680E-1,4.885020256E-1,1.519656181E-1,7.094969749E-1
4.356174060E-1,5.427269936E-1,-2.580671310E-1,1.632087231E0
4.522833430E-1,3.941211700E-1,2.785892487E-1,2.053209782E0
4.689492810E-1,5.337760448E-1,-2.225050926E-1,1.941293716E0
4.856152180E-1,-8.216619492E-2,-2.523384094E-1,1.646336555E0
5.022811560E-1,1.489386559E-1,2.947044373E-1,1.380428791E0
5.189470930E-1,4.075843096E-1,2.123861313E-1,1.475015640E0
5.356130310E-1,-2.542155981E-1,1.320796967E0,8.321113586E-1
5.522789680E-1,-6.181850433E-1,8.763265610E-1,-1.148927212E0
5.689449060E-1,1.638881922E0,-1.717295408E0,-8.571133614E-1
5.856108430E-1,2.721031189E0,-1.839831114E0,-1.835204601E0
6.022767810E-1,2.440504551E0,-1.690620661E0,-2.615085125E0
6.189427180E-1,3.119210958E0,-2.307295561E0,-6.102323532E-1
6.356086560E-1,2.313851118E0,-1.750583172E0,5.611190796E-1
6.522745930E-1,1.573494077E0,-1.280917168E0,4.920549393E-1
6.689405310E-1,1.137977839E0,-1.595680475E0,-3.541402817E-1
6.856064680E-1,1.186922550E0,-1.805319071E0,9.339904785E-1
7.022724060E-1,7.043880224E-1,-1.296155691E0,1.289011955E0
7.189383430E-1,8.712148070E-1,-1.294898748E0,1.800576210E0
7.356042810E-1,8.937377930E-1,-5.276188850E-1,1.605661392E0
7.522702180E-1,4.050901532E-1,-1.972408295E-1,4.349079132E-1
7.689361560E-1,-2.217719555E-1,6.772227287E-1,3.501930237E-1
7.856020930E-1,1.980127096E-1,2.218065262E-1,6.094713211E-1
8.022680310E-1,6.899811029E-1,2.002191544E-2,-1.559457779E-1
8.189339680E-1,-1.137341261E-1,5.811691284E-2,-1.884403229E-1
8.355999060E-1,-1.155197620E-3,9.007244110E-1,2.684602737E-1
8.522658430E-1,1.185346246E-1,1.428440094E0,5.586099625E-1
8.689317810E-1,6.749298573E-1,2.053913593E0,1.105761528E0
8.855977180E-1,-1.475655138E-1,8.706531525E-1,1.891846657E0
9.022636560E-1,-6.482344866E-1,6.493043900E-2,2.191203117E0
9.189295930E-1,-4.880726933E-1,-2.193403244E-2,2.288154602E0
9.355955310E-1,-1.149678469E0,-2.975916862E-1,2.076480865E0
9.522614680E-1,-2.205539227E0,2.711992264E-1,8.108415604E-1
9.689274060E-1,-2.362195969E0,4.209733009E-1,5.389413834E-1
9.855933430E-1,-1.857829809E0,4.986267090E-1,1.045881271E0
1.002259281E0,-1.506735802E0,2.477922440E-1,1.281051636E0
1.018925218E0,-1.563210487E0,-3.723273277E-1,1.062985420E0
1.035591156E0,-1.798570752E0,-7.483723164E-1,1.197980881E0
1.052257093E0,-2.189133406E0,-1.015593290E0,1.450020790E0
1.068923031E0,-2.312196255E0,-1.344761610E0,9.971361160E-1
1.085588968E0,-1.847304225E0,-1.480463743E0,-1.055564880E-1
1.102254906E0,-1.555018663E0,-1.464142561E0,-1.061422348E0
1.118920843E0,-1.338961601E0,-1.460238695E0,-1.383366585E0
1.135586781E0,-1.289537907E0,-1.543348789E0,-1.110583305E0
1.152252718E0,-1.075309634E0,-1.641463518E0,-1.165156364E0
1.168918656E0,-8.965460658E-1,-1.640036345E0,-1.135684013E0
1.185584593E0,-1.106013536E0,-1.343307734E0,-8.982806206E-1
1.202250531E0,-1.294872522E0,-1.073203325E0,-2.487936020E-1
1.218916468E0,-1.075490713E0,-9.483375549E-1,9.274168015E-1
1.235582406E0,-8.865158558E-1,-9.345343113E-1,1.486355782E0
1.252248343E0,-1.001584291E0,-8.805184364E-1,1.108746529E0
1.268914281E0,-9.506607652E-1,-2.782049179E-1,4.260292053E-1
1.285580218E0,-5.383410454E-1,-5.718169212E-1,-2.114963531E-1
1.302246156E0,-2.155701518E-1,-6.592931747E-1,-1.203584671E-1
1.318912093E0,-2.003278732E-1,-7.293348312E-1,1.280450821E-1
1.335578031E0,-3.230698109E-1,-1.016587973E0,2.501106262E-1
1.352243968E0,-3.931214809E-1,-1.013214827E0,-2.188682556E-2
1.368909906E0,-3.659452796E-1,-7.319815159E-1,-2.772388458E-1
1.385575843E0,-2.154894471E-1,-5.904383659E-1,-2.787933350E-1
1.402241781E0,-2.719388604E-1,-5.073323250E-1,7.597923279E-3
1.418907718E0,-4.696078897E-1,-6.679863930E-1,1.203050613E-1
1.435573656E0,-3.974831700E-1,-8.451128006E-1,1.290740967E-1
1.452239593E0,-3.687074184E-1,-6.541960239E-1,3.884534836E-1
1.468905531E0,-4.176034927E-1,-4.226236343E-1,6.289539337E-1
1.485571468E0,-3.720497787E-1,-4.038586617E-1,6.039533615E-1
1.502237406E0,-1.919070184E-1,-4.584088326E-1,2.017002106E-1
1.518903343E0,-2.713731229E-1,-4.060235023E-1,-1.150398254E-1
1.535569281E0,-5.965526104E-1,-3.578729630E-1,-2.949628830E-1
1.552235218E0,-9.040352702E-1,-1.657996178E-1,-1.009988785E-1
1.568901156E0,-6.942151785E-1,-2.015757561E-1,4.902734756E-1
1.585567093E0,-6.778740883E-1,-2.254304886E-1,8.174600601E-1
1.602233031E0,-8.311405778E-1,-2.341122627E-1,4.349164963E-1
1.618898968E0,-7.082957029E-1,-1.759834290E-1,9.269714355E-3
1.635564906E0,-7.353929281E-1,-1.027226448E-1,-4.412317276E-1
1.652230843E0,-9.101760983E-1,-2.486114502E-1,-4.481029510E-1
1.668896781E0,-8.917238712E-1,-4.022011757E-1,-5.002498627E-2
1.685562718E0,-1.111332297E0,-4.848594666E-1,2.282114029E-1
1.702228656E0,-1.051400900E0,-2.374482155E-1,3.297433853E-1
1.718894593E0,-6.789015532E-1,-2.512111664E-1,2.198152542E-1
1.735560531E0,-6.247205734E-1,-2.802395821E-1,4.710960388E-2
1.752226468E0,-6.692527533E-1,-2.848229408E-1,9.824848175E-2
1.768892406E0,-4.086580575E-1,-1.061663628E-1,-3.428554535E-2
1.785558343E0,-5.358708501E-1,4.556751251E-2,-2.846832275E-1
1.802224281E0,-8.905954957E-1,1.016678810E-1,-2.985610962E-1
1.818890218E0,-9.817747474E-1,3.965330124E-2,-1.980714798E-1
1.835556156E0,-6.109657288E-1,-5.006074905E-2,-3.423976898E-2
1.852222093E0,-2.958810031E-1,-1.880445480E-1,-6.342029572E-2
1.868888031E0,-6.187649369E-1,-2.027211189E-1,-4.147901535E-1
1.885553968E0,-7.099691033E-1,-3.982639313E-2,-9.236216545E-1
1.902219906E0,-4.411271214E-1,1.055812836E-1,-9.512305260E-1
1.918885843E0,-5.249279737E-1,1.002020836E-1,-5.044260025E-1
1.935551781E0,-9.091229439E-1,-3.444194794E-3,1.246337891E-1
1.952217718E0,-8.930157423E-1,4.909992218E-2,7.149744034E-1
1.968883656E0,-5.365970135E-1,2.151579857E-1,6.683340073E-1
1.985549593E0,-2.208474874E-1,2.848377228E-1,2.281761169E-2
2.002215531E0,-1.380291581E-2,1.579279900E-1,-3.477764130E-1
2.018881468E0,4.156453907E-2,9.423351288E-2,-1.348896027E-1
2.035547406E0,9.612516165E-1,1.207880974E-1,-3.070907593E-1
2.052213343E0,2.465446144E-1,-1.199569702E-1,6.546077728E-1
2.068879281E0,1.479755193E-1,-1.726474762E-1,3.541593552E-1
2.085545218E0,5.409576893E-1,-2.450418472E-1,1.947622299E-1
2.102211156E0,8.317457438E-1,-3.257117271E-1,3.152275085E-2
2.118877093E0,6.876446009E-1,-4.098496437E-1,-7.764754295E-1
2.135543031E0,2.743958235E-1,-6.197195053E-1,-5.539884567E-1
2.152208968E0,4.350754917E-1,-5.162830353E-1,-2.174329758E-1
2.168874906E0,5.308432579E-1,-3.911728859E-1,3.032941818E-1
2.185540843E0,9.090602398E-3,-2.417964935E-1,3.053627014E-1
2.202206781E0,-2.429507971E-1,-1.958546638E-1,-4.275608063E-2
2.218872718E0,1.575291157E-1,-7.267761230E-2,-7.321166992E-2
2.235538656E0,4.567054510E-1,1.141414642E-1,-4.070281982E-3
2.252204593E0,6.511747241E-1,2.108106613E-1,-1.478672028E-2
2.268870531E0,7.909470201E-1,3.271088600E-1,1.284284592E-1
2.285536468E0,6.719829440E-1,4.624361992E-1,4.545192719E-1
2.302202406E0,3.553945422E-1,5.588288307E-1,9.955091476E-1
2.318868343E0,3.634428382E-1,6.489343643E-1,1.231029510E0
2.335534281E0,6.622400284E-1,6.553206444E-1,1.126327515E0
2.352200218E0,7.287485003E-1,5.710349083E-1,7.420854568E-1
2.368866156E0,6.684148908E-1,4.753770828E-1,2.623682022E-1
2.385532093E0,6.632243395E-1,3.308057785E-1,-7.258415222E-2
2.402198031E0,8.122630119E-1,3.325190544E-1,-1.696329117E-1
2.418863968E0,9.294978976E-1,2.595596313E-1,-3.603343964E-1
2.435529906E0,7.947454453E-1,2.136654854E-1,-5.893154144E-1
2.452195843E0,7.004727721E-1,1.443605423E-1,-7.507109642E-1
2.468861781E0,7.306296825E-1,7.946634293E-2,-7.420711517E-1
2.485527718E0,7.227705717E-1,3.696155548E-2,-7.452607155E-1
2.502193656E0,6.394689679E-1,3.608179092E-2,-9.606266022E-1
2.518859593E0,6.069351435E-1,2.370643616E-2,-9.404568672E-1
2.535525531E0,5.036427975E-1,3.661775589E-2,-6.799149513E-1
2.552191468E0,5.819008946E-1,1.347055435E-1,-4.969391823E-1
2.568857406E0,6.340208650E-1,2.499661446E-1,-4.750642776E-1
2.585523343E0,5.664631128E-1,3.221588135E-1,-3.426451683E-1
2.602189281E0,4.663479924E-1,3.182697296E-1,-7.118225098E-2
2.618855218E0,5.139063597E-1,2.234072685E-1,3.053798676E-1
2.635521156E0,6.149572134E-1,2.162904739E-1,5.331249237E-1
2.652187093E0,6.206243634E-1,2.156691551E-1,6.464176178E-1
2.668853031E0,7.217820883E-1,2.367463112E-1,8.157243729E-1
2.685518968E0,7.786014676E-1,2.708940506E-1,8.963451385E-1
2.702184906E0,8.106432557E-1,2.842106819E-1,8.237190247E-1
2.718850843E0,8.450709581E-1,2.439279556E-1,5.454940796E-1
2.735516781E0,8.130390644E-1,1.396074295E-1,1.583862305E-1
2.752182718E0,8.093909025E-1,6.907129288E-2,1.599006653E-1
2.768848656E0,8.438029885E-1,-1.397752762E-2,1.593008041E-1
2.785514593E0,8.088258505E-1,-9.597396851E-2,3.879737854E-2
2.802180531E0,5.885540843E-1,-7.905101776E-2,-1.672282219E-1
2.818846468E0,3.581337929E-1,-5.036211014E-2,-3.463644981E-1
2.835512406E0,3.032025695E-1,6.340837479E-2,-4.839081764E-1
2.852178343E0,3.905638158E-1,2.348518372E-1,-4.734706879E-1
2.868844281E0,4.175025821E-1,3.008646965E-1,-4.841885567E-1
2.885510218E0,2.521887720E-1,3.710312843E-1,-4.733171463E-1
2.902176156E0,1.235013232E-1,4.488706589E-1,-4.309654236E-1
2.918842093E0,1.754260659E-1,6.113033295E-1,-3.161511421E-1
2.935508031E0,2.381912619E-1,7.422046661E-1,-2.709059715E-1
2.952173968E0,-5.297275260E-3,7.965455055E-1,-3.555264473E-1
2.968839906E0,-3.052775562E-1,7.886481285E-1,-4.249162674E-1
2.985505843E0,-2.575481832E-1,7.543058395E-1,-4.193282127E-1
3.002171781E0,-5.026199669E-2,6.613440514E-1,-4.379186630E-1
3.018837718E0,4.454113543E-2,6.010117531E-1,-4.461045265E-1
3.035503656E0,5.771242082E-2,4.998974800E-1,-4.531998634E-1
3.052169593E0,1.521597505E-1,4.522266388E-1,-3.712625504E-1
3.068835531E0,2.598579526E-1,2.873659134E-1,-2.973718643E-1
3.085501468E0,5.828838050E-2,2.576699257E-1,-1.404013634E-1
3.102167406E0,-2.489173710E-1,1.462416649E-1,-1.113147736E-1
3.118833343E0,-3.678420186E-1,1.414866447E-1,-4.179720879E-1
3.135499281E0,-2.973789275E-1,2.087187767E-1,-8.548569679E-1
3.152165218E0,-3.607096672E-1,2.836651802E-1,-1.234937668E0
3.168831156E0,-5.958748460E-1,3.184032440E-1,-1.411927700E0
3.185497093E0,-6.944634318E-1,3.900575638E-1,-1.196706295E0
3.202163031E0,-5.507319570E-1,3.742351532E-1,-9.755926132E-1
3.218828968E0,-4.440672398E-1,4.419579506E-1,-8.690128326E-1
3.235494906E0,-4.157616198E-1,5.470628738E-1,-7.809505463E-1
3.252160843E0,-3.642538786E-1,6.044278145E-1,-8.022394180E-1
3.268826781E0,-5.125857592E-1,6.164984703E-1,-7.451357841E-1
3.285492718E0,-6.153135896E-1,5.399932861E-1,-5.326671600E-1
3.302158656E0,-5.045273304E-1,4.774332047E-1,-1.947464943E-1
3.318824593E0,-3.805912733E-1,4.537258148E-1,-6.074571609E-2
3.335490531E0,-4.499136806E-1,4.377589226E-1,-2.080678940E-1
3.352156468E0,-6.476033330E-1,4.725980759E-1,-3.952155113E-1
3.368822406E0,-9.209812284E-1,7.385334969E-1,-4.614853859E-1
3.385488343E0,-8.729050159E-1,8.750224113E-1,-3.387236595E-1
3.402154281E0,-5.944116712E-1,8.410515785E-1,-5.124616623E-2
3.418820218E0,-4.020455182E-1,6.359930038E-1,3.096551895E-1
3.435486156E0,-3.308923841E-1,3.294415474E-1,5.317726135E-1
3.452152093E0,-3.044237494E-1,1.407003403E-2,3.884844780E-1
3.468818031E0,-2.818738818E-1,-1.986351013E-1,9.262084961E-2
3.485483968E0,-2.707410157E-1,-2.833409309E-1,-9.755992889E-2
3.502149906E0,-1.915059984E-1,-3.858399391E-1,-5.116033554E-2
3.518815843E0,-8.417117596E-2,-4.429612160E-1,-5.597782135E-2
3.535481781E0,4.360175133E-2,-2.868351936E-1,-4.699835777E-1
3.552147718E0,1.815704107E-1,-6.072330475E-2,-9.734835625E-1
3.568813656E0,1.825859547E-1,1.024785042E-1,-1.180623531E0
3.585479593E0,7.779550552E-2,1.792621613E-1,-1.122276783E0
3.602145531E0,4.358267784E-2,9.788703918E-2,-6.394309998E-1
3.618811468E0,2.816686034E-1,-1.133556366E-1,-1.897921562E-1
3.635477406E0,3.450641036E-1,-2.772555351E-1,-7.621669769E-2
3.652143343E0,3.111642599E-1,-4.590473175E-1,-1.208066940E-1
3.668809281E0,2.933140397E-1,-6.777906418E-1,-1.800074577E-1
3.685475218E0,3.051231503E-1,-8.702731133E-1,-9.230184555E-2
3.702141156E0,1.462768912E-1,-9.363780022E-1,2.112421989E-1
3.718807093E0,1.387526989E-1,-1.001145840E0,5.066757202E-1
3.735473031E0,1.048583388E-1,-1.024377823E0,5.531954765E-1
3.752138968E0,1.491654515E-1,-9.364309311E-1,3.499107361E-1
3.768804906E0,2.627190948E-1,-8.601775169E-1,2.065210342E-1
3.785470843E0,3.941152096E-1,-8.379306793E-1,2.760319710E-1
3.802136781E0,4.672902226E-1,-8.895545006E-1,3.673453331E-1
3.818802718E0,4.548027515E-1,-8.700690269E-1,2.266607285E-1
3.835468656E0,4.181396365E-1,-7.543077469E-1,4.182481766E-2
3.852134593E0,4.897692204E-1,-7.039146423E-1,-2.178287506E-2
3.868800531E0,4.798575044E-1,-6.238851547E-1,1.416630745E-1
3.885466468E0,3.437865376E-1,-6.301784515E-1,3.951277733E-1
3.902132406E0,1.978394389E-1,-6.283187866E-1,5.637702942E-1
3.918798343E0,8.424359560E-2,-6.126914024E-1,5.479397774E-1
3.935464281E0,-8.766621351E-2,-4.814529419E-1,4.187302589E-1
3.952130218E0,-5.558729172E-4,-4.055953026E-1,5.088162422E-1
3.968796156E0,1.367096901E-1,-3.455123901E-1,7.823066711E-1
3.985462093E0,1.857795119E-1,-3.211288452E-1,9.009251595E-1
4.002128031E0,1.419280171E-1,-3.444795609E-1,9.622669220E-1
4.018793968E0,7.163089514E-2,-3.930449486E-1,1.034987926E0
4.035459906E0,2.867221832E-2,-4.391303062E-1,1.070614815E0
4.052125843E0,8.121621609E-2,-4.884743690E-1,1.037733078E0
4.068791781E0,8.500301838E-2,-4.735264778E-1,8.218240738E-1
4.085457718E0,2.394223213E-2,-4.748940468E-1,6.157221794E-1
4.102123656E0,-8.058279753E-2,-4.457583427E-1,5.311541557E-1
4.118789593E0,-1.676034331E-1,-4.157853127E-1,4.508538246E-1
4.135455531E0,2.481293678E-2,-3.493304253E-1,5.308876038E-1
4.152121468E0,3.366885185E-1,-2.712159157E-1,5.729513168E-1
4.168787406E0,4.089510441E-1,-2.153100967E-1,4.185762405E-1
4.185453343E0,4.396919012E-1,-2.147889137E-1,3.683595657E-1
4.202119281E0,3.520491123E-1,-1.790475845E-1,4.637703896E-1
4.218785218E0,2.110093832E-1,-1.205043793E-1,6.865210533E-1
4.235451156E0,1.731852293E-1,-9.644174576E-2,7.930564880E-1
4.252117093E0,2.120062113E-1,-5.443477631E-2,6.990008354E-1
4.268783031E0,2.239341736E-1,-7.248830795E-2,4.805636406E-1
4.285448968E0,3.034639359E-1,-2.765417099E-2,3.101887703E-1
4.302114906E0,3.440077305E-1,4.733133316E-2,2.091712952E-1
4.318780843E0,2.417967319E-1,1.050801277E-1,5.018806458E-2
4.335446781E0,1.447187662E-1,1.404528618E-1,-4.784488678E-2
4.352112718E0,2.076805830E-1,1.422920227E-1,-6.663894653E-2
4.368778656E0,2.610688210E-1,1.421337128E-1,-5.946159363E-2
4.385444593E0,2.455359697E-1,1.582655907E-1,-1.496396065E-1
4.402110531E0,1.821577549E-1,1.521120071E-1,-3.083095551E-1
4.418776468E0,1.573618650E-1,9.616851807E-2,-4.194340706E-1
4.435442406E0,1.372292042E-1,5.328941345E-2,-4.940629005E-1
4.452108343E0,1.767469645E-1,4.135322571E-2,-4.751801491E-1
4.468774281E0,1.180105209E-1,7.231521606E-2,-5.724105835E-1
4.485440218E0,-6.912589073E-2,1.054387093E-1,-7.583594322E-1
4.502106156E0,-2.350931168E-1,1.500515938E-1,-1.002413750E0
4.518772093E0,-3.400286436E-1,1.770329475E-1,-1.230541229E0
4.535438031E0,-4.285054207E-1,2.488799095E-1,-1.294756413E0
4.552103968E0,-5.663771033E-1,3.253946304E-1,-1.362626076E0
4.568769906E0,-5.794538856E-1,3.955178261E-1,-1.246271610E0
4.585435843E0,-5.176161528E-1,4.712786674E-1,-1.161567211E0
4.602101781E0,-4.397524595E-1,5.936474800E-1,-1.197986126E0
4.618767718E0,-3.985426426E-1,6.480202675E-1,-1.230431080E0
4.635433656E0,-5.760711432E-1,7.187366486E-1,-1.421696663E0
4.652099593E0,-6.543886662E-1,7.540583611E-1,-1.733279228E0
4.668765531E0,-4.666166306E-1,7.482862473E-1,-1.990759850E0
4.685431468E0,-4.058576822E-1,7.676258087E-1,-2.037414074E0
4.702097406E0,-5.503420830E-1,6.756052971E-1,-2.161250114E0
4.718763343E0,-6.019093990E-1,5.247249603E-1,-2.413143158E0
4.735429281E0,-6.461354494E-1,4.564700127E-1,-2.590489864E0
4.752095218E0,-4.908579588E-1,4.073724747E-1,-2.618094921E0
4.768761156E0,-2.007817030E-1,3.376746178E-1,-2.671148300E0
4.785427093E0,-1.152122021E-1,2.407813072E-1,-2.675193310E0
4.802093031E0,-3.961293697E-1,1.804161072E-1,-2.641871929E0
4.818758968E0,-5.381433964E-1,2.366733551E-1,-2.707127571E0
4.835424906E0,-4.071421623E-1,2.514295578E-1,-2.923214436E0
4.852090843E0,-4.266922474E-1,2.302484512E-1,-3.108725548E0
4.868756781E0,-7.151212692E-1,-7.748985291E-2,-3.539174080E0
4.885422718E0,-1.013038158E0,-2.331500053E-1,-4.103297234E0
4.902088656E0,-1.250582933E0,-3.408980370E-1,-4.630387306E0
4.918754593E0,-1.635112047E0,-5.518178940E-1,-5.100429535E0
4.935420531E0,-2.466464520E0,-8.386826515E-1,-5.376753807E0
4.952086468E0,-3.158858299E0,-1.197211266E0,-5.766893864E0
4.968752406E0,-4.201708794E0,-1.316778898E0,-5.837597847E0
4.985418343E0,-5.636385918E0,-7.118959427E-1,-5.256338120E0
5.002084281E0,-7.332617760E0,1.503937960E0,-4.950482845E0
5.018750218E0,-9.076068878E0,4.790895939E0,-4.804598808E0
5.035416156E0,-1.058817482E1,1.068167305E1,-9.510169029E-1
5.052082093E0,-9.195729256E0,2.010672951E1,9.796076775E0
5.068748031E0,-4.396481037E0,2.934615517E1,1.761674500E1
5.085413968E0,4.356288910E-1,3.675274277E1,2.897770691E1
5.102079906E0,5.618497372E0,3.780060577E1,4.468028641E1
5.118745843E0,9.062797546E0,3.128302383E1,4.848262405E1
5.135411781E0,7.228385448E0,2.207769966E1,3.511372375E1
5.152077718E0,4.505273819E0,1.242120934E1,1.914889145E1
5.168743656E0,1.063001156E-1,4.265226364E0,1.111277962E1
5.185409593E0,-4.107358932E0,-2.001282215E0,6.761843681E0
5.202075531E0,-2.375604630E0,-8.258337021E0,7.996309280E0
5.218741468E0,3.058014870E0,-1.538258362E1,9.551458359E0
5.235407406E0,2.499554634E0,-1.984102249E1,6.383240700E0
5.252073343E0,1.780959845E0,-2.182108307E1,3.567890644E0
5.268739281E0,9.699386597E0,-3.048391724E1,9.664892197E0
5.285405218E0,2.056139374E1,-3.981903076E1,2.200878334E1
5.302071156E0,3.183456039E1,-4.468143463E1,2.197799110E1
5.318737093E0,3.417292023E1,-4.284009171E1,2.089834213E0
5.335403031E0,2.477970886E1,-3.517394638E1,-1.800078583E1
5.352068968E0,1.554559994E1,-2.999559784E1,-2.371923256E1
5.368734906E0,1.188586903E1,-2.973476410E1,-1.368130302E1
5.385400843E0,1.506317711E1,-2.419794655E1,7.412043571E0
5.402066781E0,2.342158699E1,-1.460937881E1,1.692454338E1
5.418732718E0,2.304146194E1,-4.205207825E0,7.861448288E0
5.435398656E0,1.808758163E1,3.032584667E0,9.855515480E0
5.452064593E0,2.588926697E1,9.988656044E0,3.622298050E1
5.468730531E0,3.682282257E1,1.817155075E1,5.338854599E1
5.485396468E0,2.478317261E1,2.649318314E1,5.014518356E1
5.502062406E0,1.043345451E0,2.740914345E1,3.033916664E1
5.518728343E0,-2.393455696E1,3.286766434E1,1.408478928E1
5.535394281E0,-3.954399872E1,4.441194916E1,1.193298244E1
5.552060218E0,-3.589565277E1,5.068332291E1,1.079951191E1
5.568726156E0,-2.587129211E1,4.686341858E1,1.034484482E1
5.585392093E0,-2.910736084E1,4.022075272E1,9.363952637E0
5.602058031E0,-2.632122803E1,3.872302628E1,1.939521408E1
5.618723968E0,-7.777186394E0,3.638345337E1,3.868105316E1
5.635389906E0,1.057218456E1,3.391996384E1,5.600310898E1
5.652055843E0,2.431156731E1,2.941823769E1,6.576119995E1
5.668721781E0,4.092564774E1,2.211011887E1,6.770137787E1
5.685387718E0,5.446894073E1,1.693879890E1,5.416973877E1
5.702053656E0,5.662853241E1,1.128842926E1,2.818472099E1
5.718719593E0,4.732969284E1,6.560544968E-1,1.160880470E1
5.735385531E0,3.315806961E1,-1.117323303E1,7.021070480E0
5.752051468E0,2.524578094E1,-1.958922195E1,5.301395416E0
5.768717406E0,3.202525711E1,-3.202216721E1,6.680616379E0
5.785383343E0,4.133554459E1,-4.427568817E1,1.832560182E0
5.802049281E0,3.902480316E1,-4.643887711E1,-4.210226059E0
5.818715218E0,3.785770416E1,-4.819754028E1,-3.289013863E0
5.835381156E0,3.042403984E1,-4.364990997E1,-4.358258724E0
5.852047093E0,2.574386787E1,-3.626671219E1,-6.641825676E0
5.868713031E0,2.306417084E1,-3.085594940E1,-8.614170074E0
5.885378968E0,2.111417389E1,-2.386217117E1,-3.968787193E0
5.902044906E0,3.154446411E1,-1.822889709E1,6.693100929E0
5.918710843E0,4.173902130E1,-9.796482086E0,1.953569031E1
5.935376781E0,4.301807404E1,3.699818134E0,3.029820633E1
5.952042718E0,4.960292435E1,1.902327347E1,4.196620560E1
5.968708656E0,4.784882736E1,2.903648758E1,4.879991531E1
5.985374593E0,2.255927658E1,3.097262192E1,4.101010132E1
6.002040531E0,5.877084732E-1,2.598865509E1,2.293993950E1
6.018706468E0,-1.148409367E1,2.457505608E1,5.793183327E0
6.035372406E0,-2.331540871E1,3.323699188E1,-8.819341660E-2
6.052038343E0,-2.352301788E1,4.276459503E1,1.023041248E1
6.068704281E0,-1.641386032E1,5.441576004E1,1.983371735E1
6.085370218E0,-2.235708618E1,5.215078735E1,9.560894012E0
6.102036156E0,-2.598212814E1,4.709912872E1,5.354076862E0
6.118702093E0,-4.074291706E0,4.197960663E1,2.460109138E1
6.135368031E0,1.307039070E1,3.871533966E1,3.912921524E1
6.152033968E0,2.462117386E1,3.558766556E1,4.026657104E1
6.168699906E0,3.798598099E1,3.192655182E1,3.550595856E1
6.185365843E0,4.697935104E1,2.983646774E1,3.084339523E1
6.202031781E0,5.313999557E1,2.065370941E1,2.894361877E1
6.218697718E0,4.726139832E1,7.843181610E0,2.996221733E1
6.235363656E0,3.792222595E1,-5.535672188E0,3.034377861E1
6.252029593E0,3.602141953E1,-1.819586563E1,3.002400589E1
6.268695531E0,4.353147507E1,-3.759572983E1,3.119024277E1
6.285361468E0,5.008978653E1,-5.432530975E1,1.846188736E1
6.302027406E0,4.235220718E1,-5.756473923E1,-3.255986929E0
6.318693343E0,3.540253067E1,-5.435814667E1,-1.012568283E1
6.335359281E0,2.969676590E1,-4.932976532E1,-7.710383415E0
6.352025218E0,2.090276337E1,-4.290445328E1,-6.269550323E0
6.368691156E0,1.761239243E1,-3.786214066E1,-6.263083935E0
6.385357093E0,2.538832664E1,-3.685227203E1,-6.844245434E0
6.402023031E0,3.805178833E1,-3.178701019E1,-2.420097351E0
6.418688968E0,5.424810791E1,-2.166752625E1,1.322613430E1
6.435354906E0,6.740267944E1,-3.408438921E0,3.402679825E1
6.452020843E0,6.739587402E1,1.828418732E1,5.246619415E1
6.468686781E0,5.438980865E1,3.273833084E1,5.855718231E1
6.485352718E0,3.318685532E1,3.322497940E1,4.704455566E1
6.502018656E0,-7.748803616E0,3.268625259E1,2.333748436E1
6.518684593E0,-3.159329987E1,3.971585464E1,8.468897820E0
6.535350531E0,-2.914538383E1,4.907816315E1,9.553447723E0
6.552016468E0,-2.468443108E1,6.073500061E1,1.788746452E1
6.568682406E0,-2.533891296E1,6.037305832E1,1.712438202E1
6.585348343E0,-1.429649925E1,5.223386383E1,1.172571850E1
6.602014281E0,3.932611465E0,4.173548889E1,1.486040592E1
6.618680218E0,9.165662766E0,3.278274918E1,2.433668518E1
6.635346156E0,1.848175049E1,2.645760345E1,3.666304779E1
6.652012093E0,3.773263168E1,2.139275169E1,4.145763779E1
6.668678031E0,4.570212173E1,2.176481247E1,3.388090897E1
6.685343968E0,4.952708817E1,2.202019882E1,2.681427765E1
6.702009906E0,5.019442368E1,1.377027130E1,2.563806534E1
6.718675843E0,4.943869019E1,-3.712081909E-2,2.694545937E1
6.735341781E0,4.775783157E1,-1.810307121E1,3.524059296E1
6.752007718E0,4.501686859E1,-3.495195007E1,3.501812363E1
6.768673656E0,4.635999680E1,-4.656755829E1,1.242049885E1
6.785339593E0,4.351161575E1,-4.929492188E1,-1.233615875E1
6.802005531E0,3.440063095E1,-4.840106201E1,-1.977974319E1
6.818671468E0,2.538227272E1,-4.964283752E1,-1.011366844E1
6.835337406E0,1.260357189E1,-4.352330399E1,-1.509412289E0
6.852003343E0,1.008409786E1,-3.791789627E1,-3.571598768E0
6.868669281E0,1.654081917E1,-3.457570267E1,-9.219123840E0
6.885335218E0,2.606118774E1,-2.999401855E1,-1.000249004E1
6.902001156E0,4.015326309E1,-2.203157806E1,1.830846786E0
6.918667093E0,5.466424561E1,-4.450863838E0,2.213654709E1
6.935333031E0,6.285116196E1,1.988567543E1,4.086940765E1
6.951998968E0,6.296652222E1,3.642211914E1,4.994762421E1
6.968664906E0,4.123551178E1,3.851302719E1,4.518095779E1
6.985330843E0,-6.606285095E0,3.526333618E1,2.057888603E1
7.001996781E0,-3.580311966E1,4.010406113E1,1.877825260E0
7.018662718E0,-3.372938538E1,4.605368805E1,4.209031582E0
7.035328656E0,-2.658666229E1,5.407636642E1,1.662918472E1
7.051994593E0,-2.988224030E1,5.146929169E1,2.328220749E1
7.068660531E0,-2.821510315E1,3.999930191E1,2.519610977E1
7.085326468E0,-1.013241482E1,2.971367836E1,3.745912552E1
7.101992406E0,6.547481060E0,2.362056351E1,3.775939560E1
7.118658343E0,2.417132187E1,1.946044540E1,3.412596893E1
7.135324281E0,3.778955460E1,2.102877617E1,3.057860947E1
7.151990218E0,4.341600037E1,2.360025024E1,2.542765236E1
7.168656156E0,4.267439270E1,2.110666275E1,2.290493011E1
7.185322093E0,4.161562729E1,1.373488903E1,2.037965012E1
7.201988031E0,4.579837418E1,1.440578461E0,1.761799622E1
7.218653968E0,4.773409271E1,-1.718675423E1,1.780546570E1
7.235319906E0,4.961955643E1,-3.954629898E1,2.344327354E1
7.251985843E0,4.296576309E1,-5.170584869E1,1.631330109E1
7.268651781E0,3.474456787E1,-5.364155197E1,-5.160975456E0
7.285317718E0,3.142744446E1,-5.291693115E1,-1.777201271E1
7.301983656E0,2.093329620E1,-4.768413544E1,-1.336547279E1
7.318649593E0,9.721035957E0,-4.045240784E1,-5.300551414E0
7.335315531E0,1.574489689E1,-3.715514374E1,-3.009477615E0
7.351981468E0,3.432256699E1,-3.157693291E1,-1.353927374E0
7.368647406E0,4.824279022E1,-1.472015572E1,-1.651647091E-1
7.385313343E0,7.051139832E1,4.141237736E0,2.785094070E1
7.401979281E0,7.043769836E1,2.746869659E1,5.666977310E1
7.418645218E0,5.268943024E1,4.111611938E1,6.762426758E1
7.435311156E0,2.718854141E1,3.776444244E1,4.835266495E1
7.451977093E0,-1.531347275E1,3.573939133E1,1.177827168E1
7.468643031E0,-3.007215309E1,3.633924103E1,-8.506797552E-1
7.485308968E0,-3.438824463E1,3.931874084E1,7.365941525E0
7.501974906E0,-3.989006805E1,4.787179184E1,1.394924545E1
7.518640843E0,-3.966077042E1,4.784111404E1,1.075276470E1
7.535306781E0,-2.397637939E1,4.165443802E1,9.078355789E0
7.551972718E0,-2.720171213E0,3.138796806E1,1.906753922E1
7.568638656E0,4.290486813E0,2.376659966E1,2.852265930E1
7.585304593E0,1.414231682E1,1.699991226E1,3.578491974E1
7.601970531E0,2.631993675E1,1.502297592E1,3.885369110E1
7.618636468E0,3.612597275E1,1.911360359E1,3.667602539E1
7.635302406E0,4.380012131E1,2.083141899E1,3.061825943E1
7.651968343E0,4.720762634E1,1.526189137E1,2.411531639E1
7.668634281E0,4.440301895E1,4.033584595E0,1.743415833E1
7.685300218E0,3.978298569E1,-9.120140076E0,2.034481812E1
7.701966156E0,4.620288467E1,-3.033325005E1,2.990902901E1
7.718632093E0,4.636221695E1,-4.815056610E1,2.555317307E1
7.735298031E0,3.677227402E1,-5.287708282E1,3.040537834E0
7.751963968E0,3.058367920E1,-5.272753525E1,-1.712499046E1
7.768629906E0,1.735482025E1,-5.064343262E1,-2.238903809E1
7.785295843E0,2.975035191E0,-4.712695312E1,-1.513805294E1
7.801961781E0,1.026660156E1,-4.646614838E1,-4.935128212E0
7.818627718E0,3.033713531E1,-4.451147079E1,1.489776373E0
7.835293656E0,4.889754486E1,-2.957194138E1,5.536324978E0
7.851959593E0,7.228756714E1,-1.057541084E1,2.493224144E1
7.868625531E0,7.240449524E1,1.393998432E1,5.208652878E1
7.885291468E0,6.386296463E1,3.172896957E1,7.270718384E1
7.901957406E0,2.636363411E1,3.525359344E1,6.636074829E1
7.918623343E0,-1.565680313E1,3.468415070E1,3.292395020E1
7.935289281E0,-3.094208145E1,3.641738510E1,1.125779247E1
7.951955218E0,-3.433866882E1,3.812321091E1,1.024343014E1
7.968621156E0,-3.799408722E1,4.566156006E1,1.518975735E1
7.985287093E0,-3.826112366E1,4.497675705E1,1.564878178E1
8.001953031E0,-2.584179115E1,3.896532822E1,1.722946548E1
8.018618968E0,-8.393289566E0,3.082172775E1,2.501507950E1
8.035284906E0,-7.379989624E-1,2.541042328E1,3.075296783E1
8.051950843E0,1.024422455E1,2.229857254E1,3.607243729E1
8.068616781E0,2.836097527E1,2.408167267E1,3.812585068E1
8.085282718E0,4.249238205E1,2.671628952E1,3.265890884E1
8.101948656E0,4.757271957E1,2.519033432E1,2.654452324E1
8.118614593E0,4.853858948E1,1.585221386E1,2.282292366E1
8.135280531E0,4.611677170E1,2.999482155E0,1.851309204E1
8.151946468E0,4.090348434E1,-9.123832703E0,1.864845085E1
8.168612406E0,4.495257568E1,-2.694283295E1,2.258790398E1
8.185278343E0,4.629484940E1,-4.511979675E1,2.195418549E1
8.201944281E0,3.541727066E1,-5.208290482E1,9.420633316E0
8.218610218E0,2.893588257E1,-5.225512695E1,-4.161999226E0
8.235276156E0,2.331923866E1,-5.106367874E1,-1.028926849E1
8.251942093E0,1.109834290E1,-4.510059357E1,-9.180326462E0
8.268608031E0,6.308646202E0,-4.111379623E1,-1.095988274E1
8.285273968E0,1.905605125E1,-4.033021545E1,-1.364715004E1
8.301939906E0,4.519021225E1,-3.221948242E1,-7.635755539E-1
8.318605843E0,7.036073303E1,-9.809772491E0,2.390044975E1
8.335271781E0,7.290640259E1,1.696088600E1,4.715261078E1
8.351937718E0,6.058137894E1,3.637646866E1,5.704703903E1
8.368603656E0,2.633358765E1,3.923819351E1,4.705211639E1
8.385269593E0,-8.014703751E0,3.507252502E1,2.379250908E1
8.401935531E0,-2.052927780E1,3.382224274E1,1.287784386E1
8.418601468E0,-2.616918564E1,3.679421616E1,1.331142616E1
8.435267406E0,-3.336569595E1,4.248661804E1,1.319532490E1
8.451933343E0,-3.675583649E1,4.294846344E1,1.278419495E1
8.468599281E0,-3.151685524E1,3.875161743E1,1.043826485E1
8.485265218E0,-1.333681107E1,3.278894043E1,1.751368713E1
8.501931156E0,4.363929272E0,2.675761032E1,2.109030533E1
8.518597093E0,1.266762733E1,1.995021629E1,1.993231392E1
8.535263031E0,1.689920235E1,1.690981483E1,2.390353584E1
8.551928968E0,2.447732353E1,1.901063538E1,2.995281219E1
8.568594906E0,3.132578278E1,1.584812355E1,3.259566498E1
8.585260843E0,3.256545639E1,1.127018356E1,3.026664352E1
8.601926781E0,3.944097900E1,4.284182549E0,2.220007324E1
8.618592718E0,4.570333862E1,-6.574357033E0,1.843908119E1
8.635258656E0,4.773186111E1,-2.556251717E1,1.719059753E1
8.651924593E0,3.915175629E1,-4.323545074E1,1.197006416E1
8.668590531E0,2.490614700E1,-4.908863831E1,2.099496603E0
8.685256468E0,2.033320045E1,-4.939904785E1,-4.757697582E0
8.701922406E0,1.952229691E1,-4.837925339E1,-5.749080181E0
8.718588343E0,1.018292904E1,-4.168119431E1,-5.134921074E0
8.735254281E0,6.189713955E0,-3.680165100E1,-6.787358284E0
8.751920218E0,1.550967503E1,-3.389995575E1,-8.271438599E0
8.768586156E0,3.535119247E1,-2.383342934E1,2.439830303E0
8.785252093E0,6.131964111E1,-2.808448315E0,2.352236938E1
8.801918031E0,7.174343872E1,2.356293488E1,4.555983353E1
8.818583968E0,4.929934311E1,4.118289566E1,5.437097549E1
8.835249906E0,1.671398926E1,4.016516495E1,3.955817032E1
8.851915843E0,-1.449371338E1,3.310303116E1,1.239711761E1
8.868581781E0,-3.208155060E1,3.451565552E1,-7.511860132E-1
8.885247718E0,-3.386135483E1,3.741619873E1,8.820957541E-1
8.901913656E0,-3.312494278E1,4.290305328E1,2.708872318E0
8.918579593E0,-3.132557297E1,3.980790329E1,-1.491921782E0
8.935245531E0,-2.071841431E1,3.360949707E1,1.371074677E0
8.951911468E0,-6.443756104E0,2.641277695E1,1.630879784E1
8.968577406E0,2.642078876E0,1.968529320E1,3.006222725E1
8.985243343E0,1.060466480E1,2.060496712E1,3.788848877E1
9.001909281E0,2.297332764E1,2.393791962E1,3.602679443E1
9.018575218E0,2.826010704E1,2.230901718E1,3.082392502E1
9.035241156E0,2.968145561E1,1.765381241E1,2.855530548E1
9.051907093E0,3.946440125E1,8.949687958E0,2.544574165E1
9.068573031E0,4.684541321E1,-6.988435745E0,2.467765045E1
9.085238968E0,4.726504135E1,-2.928197289E1,2.614760208E1
9.101904906E0,4.005202103E1,-4.494554901E1,1.953346252E1
9.118570843E0,2.663457298E1,-4.862497711E1,-7.460989952E-1
9.135236781E0,2.288618469E1,-4.797912979E1,-1.364387512E1
9.151902718E0,1.869739151E1,-4.574015808E1,-1.697862816E1
9.168568656E0,7.380574703E0,-3.935263443E1,-1.701704407E1
9.185234593E0,1.081200790E1,-3.503485870E1,-1.326461220E1
9.201900531E0,2.415720367E1,-2.861171341E1,-5.509667873E0
9.218566468E0,3.871604538E1,-1.380045891E1,5.561698914E0
9.235232406E0,5.136127472E1,4.485869408E0,2.307642746E1
9.251898343E0,4.438766861E1,2.727479744E1,3.383280563E1
9.268564281E0,3.409436798E1,3.227181244E1,4.769956207E1
9.285230218E0,3.493457317E0,3.462398529E1,4.130915070E1
9.301896156E0,-2.107515717E1,3.715563202E1,2.527760124E1
9.318562093E0,-3.384472656E1,4.005352783E1,1.509356976E1
9.335228031E0,-4.041912842E1,3.922646332E1,9.593841553E0
9.351893968E0,-3.686467743E1,3.258226776E1,1.110649681E1
9.368559906E0,-2.427348328E1,2.264557266E1,9.464019775E0
9.385225843E0,-5.310191154E0,1.392407608E1,7.356822491E0
9.401891781E0,1.143838310E1,1.181191540E1,1.192237186E1
9.418557718E0,1.766615677E1,2.198470306E1,1.931324005E1
9.435223656E0,3.374282455E1,2.442703056E1,2.114481926E1
9.451889593E0,4.243154907E1,1.565695953E1,1.458179569E1
9.468555531E0,5.032404709E1,-1.625091553E0,2.230383873E1
9.485221468E0,4.243428040E1,-2.154868317E1,1.946784973E1
9.501887406E0,3.139892769E1,-3.847447205E1,7.941278458E0
9.518553343E0,1.770289040E1,-4.239315796E1,-1.916451454E-1
9.535219281E0,9.261684418E0,-4.213047409E1,-1.035318375E-1
9.551885218E0,-2.336581230E0,-3.524974823E1,-2.706623077E-1
9.568551156E0,-8.469652176E0,-2.735959625E1,-4.288998604E0
9.585217093E0,-6.739238262E0,-2.252276039E1,-1.118652344E0
9.601883031E0,-5.812622070E0,-2.041274643E1,9.776113510E0
9.618548968E0,-1.078127289E1,-1.670897484E1,2.058602524E1
9.635214906E0,-9.884206772E0,-1.094350529E1,2.812289047E1
9.651880843E0,-2.370425701E0,-2.429313660E-1,3.523291397E1
9.668546781E0,-3.724977970E0,1.453678513E1,4.155784988E1
9.685212718E0,-1.217026329E1,2.273151398E1,3.503042984E1
9.701878656E0,-1.573580933E1,2.718853760E1,3.486842346E1
9.718544593E0,-5.814185143E-1,2.699443817E1,4.487603760E1
9.735210531E0,2.253113747E1,2.390816116E1,4.899353409E1
9.751876468E0,3.668231964E1,1.403660583E1,3.581421661E1
9.768542406E0,3.687102890E1,8.425400734E0,1.121628189E1
9.785208343E0,5.271146774E1,-5.046224594E-1,7.495687485E0
9.801874281E0,4.432592773E1,-9.568980217E0,2.143139124E0
9.818540218E0,2.460343170E1,-1.572764206E1,-6.264822006E0
9.835206156E0,1.685560799E1,-2.176388168E1,-7.932408810E0
9.851872093E0,1.112691116E1,-2.438071251E1,-4.262642384E0
9.868538031E0,6.860208511E-1,-2.426310349E1,-3.174255848E0
9.885203968E0,-1.040492725E1,-2.228161240E1,-3.540173054E0
9.901869906E0,-1.487200928E1,-1.997627640E1,-2.735035419E0
9.918535843E0,-1.459954166E1,-1.787964249E1,8.485436440E-1
9.935201781E0,-1.396581268E1,-1.522406197E1,5.250803947E0
9.951867718E0,-1.223107910E1,-1.119124126E1,8.328549385E0
9.968533656E0,-9.874887466E0,-5.740194798E0,9.939942360E0
9.985199593E0,-7.268653393E0,6.321632862E-1,1.035480499E1
1.000186553E1,-2.961925507E0,6.773056984E0,1.069050789E1
1.001853147E1,4.183416367E-1,1.199180412E1,6.012059212E0
1.003519741E1,2.073556900E0,1.335161781E1,-7.602840662E-1
1.005186334E1,4.140398026E0,1.452165222E1,8.578202128E-1
1.006852928E1,4.267017365E0,2.081888199E1,1.184601212E1
1.008519522E1,2.615261650E1,1.706246948E1,3.097423935E1
1.010186116E1,5.272934341E1,7.779731274E0,3.758400726E1
1.011852709E1,5.422375488E1,5.044022560E0,2.500879478E1
1.013519303E1,3.701887512E1,-3.618718684E-2,9.799594879E0
1.015185897E1,1.573737907E1,-3.574277163E0,6.812018394E0
1.016852491E1,2.652390480E0,-6.224078655E0,5.530933857E0
1.018519084E1,-5.822453499E0,-8.224359512E0,1.138167381E0
1.020185678E1,-1.205794239E1,-8.744560242E0,-2.566971302E0
1.021852272E1,-1.481519890E1,-9.107729912E0,-3.686761379E0
1.023518866E1,-1.731296730E1,-8.847193718E0,-4.717615128E0
1.025185459E1,-2.135824585E1,-6.578289509E0,-5.176195145E0
1.026852053E1,-2.680709267E1,-3.479381561E0,-5.785432816E0
1.028518647E1,-3.059075928E1,-1.300905108E0,-5.791040897E0
1.030185241E1,-2.936977386E1,1.218702316E0,-3.583237648E0
1.031851834E1,-2.446088791E1,5.831733704E0,1.953113079E-2
1.033518428E1,-1.410906792E1,1.464182472E1,5.653955460E0
1.035185022E1,3.676033020E-2,2.436789322E1,1.037992096E1
1.036851616E1,9.956254005E0,3.224151993E1,2.196367645E1
1.038518209E1,2.362131882E1,3.543385315E1,3.161549759E1
1.040184803E1,3.721958923E1,3.514115906E1,3.353524017E1
1.041851397E1,3.951771164E1,3.024140167E1,2.352336121E1
1.043517991E1,3.619794083E1,2.109644318E1,1.322819614E1
1.045184584E1,3.061603355E1,1.288691902E1,9.464026451E0
1.046851178E1,3.114064217E1,7.484915733E0,1.407155418E1
1.048517772E1,3.534503937E1,3.947907448E0,1.703953171E1
1.050184366E1,3.566198730E1,4.189457893E-1,1.382382774E1
1.051850959E1,3.224792862E1,-5.253467083E0,6.596808434E0
1.053517553E1,2.348904419E1,-1.106917572E1,2.628901720E0
1.055184147E1,1.525687122E1,-1.617885399E1,3.385410786E0
1.056850741E1,1.098451710E1,-2.040503693E1,5.788915634E0
1.058517334E1,1.160135651E1,-2.592596626E1,7.444716930E0
1.060183928E1,1.543727493E1,-3.411141205E1,4.479991913E0
1.061850522E1,1.764000320E1,-3.816593170E1,-2.257222176E0
1.063517116E1,1.531655502E1,-4.064083862E1,-1.389116955E1
1.065183709E1,3.114676952E0,-3.747214890E1,-2.264994812E1
1.066850303E1,-3.984146357E0,-3.543365097E1,-2.481489182E1
1.068516897E1,4.792996407E0,-3.787620926E1,-1.972872162E1
1.070183491E1,2.101586914E1,-3.708421326E1,-8.811312675E0
1.071850084E1,3.166361809E1,-3.035184097E1,-2.675206184E0
1.073516678E1,4.094906998E1,-1.920867538E1,3.941169739E0
1.075183272E1,5.806642151E1,-6.093914986E0,2.294710159E1
1.076849866E1,6.350046921E1,1.305037880E1,4.402843857E1
1.078516459E1,4.153859711E1,2.635154533E1,5.122963333E1
1.080183053E1,1.628074646E1,3.039286423E1,4.825546265E1
1.081849647E1,4.417416573E0,2.961655426E1,3.883745193E1
1.083516241E1,-2.212494373E0,2.782928085E1,2.399037933E1
1.085182834E1,-1.193530464E1,2.683477020E1,1.037617111E1
1.086849428E1,-2.364171600E1,3.356037521E1,1.912268400E0
1.088516022E1,-2.391537666E1,3.987944031E1,1.012414098E0
1.090182616E1,-2.417594528E1,4.411557007E1,1.046125531E0
1.091849209E1,-2.531995392E1,4.453017044E1,-1.067723870E0
1.093515803E1,-2.401726151E1,4.004546738E1,-1.430383563E0
1.095182397E1,-1.623959732E1,3.645417786E1,6.714087009E0
1.096848991E1,-4.440245152E0,3.491965866E1,2.148687363E1
1.098515584E1,9.516798973E0,3.627263641E1,3.801025772E1
1.100182178E1,2.744598770E1,3.653582382E1,4.846390533E1
1.101848772E1,4.323974991E1,3.608551788E1,4.628056335E1
1.103515366E1,6.257788086E1,3.197427177E1,4.066902924E1
1.105181959E1,7.060675812E1,2.134175110E1,3.199007034E1
1.106848553E1,6.253125763E1,8.941673279E0,2.147928238E1
1.108515147E1,5.441285706E1,1.746235847E0,9.433994293E0
1.110181741E1,4.833884811E1,-1.014082718E1,9.016020775E0
1.111848334E1,4.379630661E1,-2.492789459E1,2.169764709E1
1.113514928E1,4.466728592E1,-4.583234406E1,2.413263893E1
1.115181522E1,4.292600250E1,-5.984108353E1,6.184481621E0
1.116848116E1,3.647970200E1,-6.188108826E1,-1.551632404E1
1.118514709E1,1.953221893E1,-5.720629883E1,-2.056998253E1
1.120181303E1,2.958465576E0,-5.372866821E1,-1.022366524E1
1.121847897E1,8.966786861E-1,-5.459194565E1,-6.321234226E0
1.123514491E1,1.188468838E1,-5.603210449E1,-1.224121952E1
1.125181084E1,3.469577026E1,-5.293191910E1,-1.487048340E1
1.126847678E1,5.555471802E1,-3.469935608E1,-8.949702978E-1
1.128514272E1,6.930982208E1,-7.989767551E0,2.923408127E1
1.130180866E1,6.899538422E1,2.021508980E1,5.002602386E1
1.131847459E1,6.475759888E1,4.457300186E1,5.478617477E1
1.133514053E1,4.301751709E1,4.664067841E1,3.781322861E1
1.135180647E1,1.171253109E1,4.103193665E1,1.089751625E1
1.136847241E1,-2.288747406E1,4.079222107E1,-3.592919827E0
1.138513834E1,-3.617166138E1,4.565145874E1,2.025928974E0
1.140180428E1,-2.305175400E1,4.671983719E1,5.599761009E0
1.141847022E1,-1.587235546E1,4.666745377E1,1.932263374E-3
1.143513616E1,-2.384450531E1,4.043356323E1,-4.324257374E0
1.145180209E1,-1.720161438E1,3.941640854E1,3.523876905E0
1.146846803E1,7.337132454E0,4.032693863E1,1.880872154E1
1.148513397E1,2.315291405E1,3.903493500E1,2.665307045E1
1.150179991E1,2.945423889E1,4.039786530E1,2.560158348E1
1.151846584E1,4.717490768E1,3.828771591E1,2.356734085E1
1.153513178E1,6.066651917E1,2.714203835E1,2.405079079E1
1.155179772E1,5.733805466E1,1.515431023E1,2.508718109E1
1.156846366E1,5.278423309E1,-1.355409622E-1,2.341337204E1
1.158512959E1,4.247592545E1,-7.551860809E0,2.074616814E1
1.160179553E1,4.278581619E1,-1.043885612E1,1.897453690E1
1.161846147E1,5.056614304E1,-1.982736588E1,2.041596222E1
1.163512741E1,5.388430405E1,-3.699615479E1,1.535732269E1
1.165179334E1,4.391357040E1,-4.831376648E1,4.108896732E0
1.166845928E1,2.991383553E1,-5.293543243E1,-3.601435900E0
1.168512522E1,1.703306770E1,-5.622312164E1,-5.947759628E0
1.170179116E1,5.410130501E0,-5.941796875E1,-6.688186646E0
1.171845709E1,-4.692420006E0,-6.170456314E1,-1.088098049E1
1.173512303E1,1.301276779E1,-6.796054840E1,-1.506522846E1
1.175178897E1,5.959984207E1,-6.893221283E1,-1.044961548E1
1.176845491E1,7.258216095E1,-4.264948273E1,2.981771946E0
1.178512084E1,7.083351135E1,-1.292394066E1,2.671578026E1
1.180178678E1,6.976074219E1,1.313306046E1,5.698007202E1
1.181845272E1,6.770930481E1,3.720554733E1,7.618009949E1
1.183511866E1,4.077905655E1,4.083852768E1,6.390544510E1
1.185178459E1,1.687689781E0,3.573588562E1,2.493190384E1
1.186845053E1,-2.783238983E1,3.633415222E1,-2.674747944E0
1.188511647E1,-3.052712250E1,4.142699814E1,-2.694300115E-1
1.190178241E1,-1.752628136E1,5.031679916E1,1.304288483E1
1.191844834E1,-1.377155304E1,6.309868240E1,1.360452557E1
1.193511428E1,-1.084356213E1,6.600826263E1,-4.446219921E0
1.195178022E1,1.745452118E1,5.778932953E1,6.954359055E0
1.196844616E1,3.748729324E1,3.975360489E1,2.996105766E1
1.198511209E1,4.839677811E1,1.987454224E1,3.980368423E1
1.200177803E1,5.426805115E1,4.438295364E0,3.467079926E1
1.201844397E1,4.896539307E1,-2.281219482E0,1.755010033E1
1.203510991E1,4.106404114E1,-4.075856209E0,8.701266289E0
1.205177584E1,3.437170410E1,-9.326002121E0,1.132496166E1
1.206844178E1,2.816444206E1,-1.468965149E1,1.727713776E1
1.208510772E1,2.831324387E1,-2.351322937E1,2.821359634E1
1.210177366E1,3.103730774E1,-3.491184998E1,3.114855576E1
1.211843959E1,3.021367645E1,-4.085095596E1,1.943065643E1
1.213510553E1,2.893120003E1,-4.241895676E1,3.384387255E0
1.215177147E1,2.465402603E1,-4.329084015E1,-6.039741039E0
1.216843741E1,1.546012497E1,-4.592244339E1,-5.646120548E0
1.218510334E1,7.753855228E0,-5.065377045E1,-4.966448784E0
1.220176928E1,1.260482883E1,-5.464421082E1,-5.336032867E0
1.221843522E1,3.854755402E1,-5.683035660E1,-6.143557549E0
1.223510116E1,5.740685272E1,-4.792846680E1,-1.340579629E0
1.225176709E1,6.370309448E1,-3.015881729E1,1.862825012E1
1.226843303E1,7.068085480E1,-7.332278252E0,3.728391266E1
1.228509897E1,6.999182892E1,1.874948883E1,3.576166534E1
1.230176491E1,6.826972961E1,4.011954117E1,4.014076996E1
1.231843084E1,5.633444214E1,4.508358383E1,4.264871597E1
1.233509678E1,2.339909363E1,3.955163956E1,3.199741936E1
1.235176272E1,-2.004497147E1,3.607808304E1,1.448747730E1
1.236842866E1,-3.939122391E1,3.754899597E1,6.266516685E0
1.238509459E1,-3.427390671E1,4.125533295E1,5.641948700E0
1.240176053E1,-2.743509293E1,4.740679550E1,5.400201797E0
1.241842647E1,-2.732669449E1,4.749341202E1,3.910821080E-1
1.243509241E1,-9.951964378E0,5.220743561E1,-3.398320436E0
1.245175834E1,2.576860619E1,5.150025177E1,7.470135689E0
1.246842428E1,3.693527985E1,4.308045578E1,2.478906441E1
1.248509022E1,3.199031258E1,3.390761566E1,2.973744202E1
1.250175616E1,4.702948761E1,2.510681915E1,2.507382202E1
1.251842209E1,6.492338562E1,1.663033295E1,2.170950317E1
1.253508803E1,6.652407074E1,1.085592270E1,1.498821640E1
1.255175397E1,5.700302505E1,4.319858551E-1,7.776006699E0
1.256841991E1,4.381483841E1,-4.960043907E0,4.057881355E0
1.258508584E1,4.732870483E1,-1.414202309E1,1.073872757E1
1.260175178E1,5.368725204E1,-3.578742218E1,1.877011490E1
1.261841772E1,4.630748749E1,-5.706864166E1,2.265219498E1
1.263508366E1,3.211537170E1,-6.544639587E1,2.003110504E1
1.265174959E1,1.640602112E1,-6.337437820E1,2.487499714E0
1.266841553E1,5.867261887E-1,-5.947656250E1,-1.807148552E1
1.268508147E1,-6.432776451E-1,-5.994661331E1,-2.134592247E1
1.270174741E1,2.975765800E1,-6.739358521E1,-1.193548965E1
1.271841334E1,6.147367096E1,-5.816296005E1,6.462452888E0
1.273507928E1,7.219711304E1,-2.978831482E1,1.646702194E1
1.275174522E1,7.289585114E1,-7.581801414E0,1.844989014E1
1.276841116E1,7.153512573E1,1.206872845E1,4.750360107E1
1.278507709E1,7.053312683E1,2.825252533E1,6.710689545E1
1.280174303E1,6.492302704E1,3.750362778E1,5.194049835E1
1.281840897E1,2.994454193E1,4.262662506E1,2.057298470E1
1.283507491E1,1.396530056E1,3.920949554E1,6.523474693E0
1.285174084E1,6.632729530E0,3.599385071E1,1.038761425E1
1.286840678E1,-1.053613281E1,4.013084793E1,1.670206642E1
1.288507272E1,-1.927188873E1,4.436005402E1,1.606331825E1
1.290173866E1,-2.020454025E1,4.663776779E1,7.389833450E0
1.291840459E1,-1.854004669E1,4.159180450E1,1.079393387E0
1.293507053E1,-1.470755577E1,2.774155235E1,4.097054958E0
1.295173647E1,-3.575225830E0,1.038553524E1,2.049551201E1
1.296840241E1,1.005437660E1,-4.588456154E0,3.741049194E1
1.298506834E1,1.494428730E1,-7.547749519E0,3.602502823E1
1.300173428E1,1.791222954E1,7.211448669E0,2.055513954E1
1.301840022E1,2.764579201E1,1.060280418E1,1.749643517E1
1.303506616E1,2.523765373E1,6.580918312E0,1.938686562E1
1.305173209E1,3.920825195E1,-1.304523468E1,3.809949112E1
1.306839803E1,4.053071594E1,-3.323400879E1,3.458292770E1
1.308506397E1,4.116747284E1,-4.416692734E1,1.486227131E1
1.310172991E1,4.217403793E1,-4.829030991E1,-8.171077728E0
1.311839584E1,2.912424469E1,-4.569485092E1,-1.825337410E1
1.313506178E1,1.576106071E1,-3.933819580E1,-1.050928116E1
1.315172772E1,8.162411690E0,-2.850101662E1,-6.795372963E0
1.316839366E1,9.778819084E0,-1.910695267E1,-1.886204529E1
1.318505959E1,1.127485847E1,-8.409467697E0,-3.395691681E1
1.320172553E1,1.848515892E1,-3.732588291E0,-1.261557388E1
1.321839147E1,1.816569901E1,7.849040031E0,2.473747635E1
1.323505741E1,8.321786880E0,2.868407631E1,4.173896027E1
1.325172334E1,-8.773988724E0,3.652179337E1,3.351860809E1
1.326838928E1,-2.461877823E1,3.698321915E1,1.389981461E1
1.328505522E1,-2.991658592E1,3.526513290E1,1.329942346E0
1.330172116E1,-2.053759384E1,3.047454071E1,7.364998817E0
1.331838709E1,-2.639731407E0,2.694755173E1,2.740061378E1
1.333505303E1,1.232689381E1,2.647111511E1,3.512538910E1
1.335171897E1,2.682304382E1,2.635446930E1,2.699803734E1
1.336838491E1,3.405282593E1,1.651170349E1,6.503964901E0
1.338505084E1,3.224852753E1,7.900619507E-1,2.485939026E0
1.340171678E1,4.105038452E1,-2.092473984E1,1.168572521E1
1.341838272E1,3.674754715E1,-3.526371765E1,5.613458157E0
1.343504866E1,2.339766121E1,-3.629880524E1,-1.041615868E1
1.345171459E1,1.501539707E1,-3.120148468E1,-1.957058716E1
1.346838053E1,9.829726219E0,-2.542707253E1,-1.687510872E1
1.348504647E1,6.061526299E0,-2.034330750E1,-5.454347610E0
1.350171241E1,3.450213909E0,-1.530256844E1,4.347166061E0
1.351837834E1,6.637600899E0,-1.213289070E1,4.906238556E0
1.353504428E1,5.796575546E0,-8.710942268E0,-1.420814991E0
1.355171022E1,-6.415825844E0,-3.335540295E0,-2.788929939E0
1.356837616E1,-2.414628029E1,5.284073830E0,2.401329041E0
1.358504209E1,-3.245126343E1,1.159158230E1,2.031431770E1
1.360170803E1,-7.339749336E0,1.133374023E1,3.207695389E1
1.361837397E1,1.867438126E1,2.002590370E1,2.994105339E1
1.363503991E1,1.796290207E1,2.466672134E1,1.729912186E1
1.365170584E1,2.140817261E1,1.624216461E1,1.628400230E1
1.366837178E1,3.051220703E1,6.889018536E0,5.723723412E0
1.368503772E1,2.991025734E1,-6.628396034E0,-1.154251385E1
1.370170366E1,3.038272285E1,-1.448807144E1,-1.648876190E1
1.371836959E1,2.166265488E1,-2.003519058E1,-1.629390717E1
1.373503553E1,3.398426056E0,-2.036717224E1,-1.381520844E1
1.375170147E1,-3.894468069E0,-1.932497597E1,-4.953760147E0
1.376836741E1,-4.106630802E0,-1.694366074E1,5.218713760E0
1.378503334E1,-8.434929848E-1,-1.260292435E1,8.707004547E0
1.380169928E1,4.052036285E0,-7.663965225E0,8.458292007E0
1.381836522E1,4.975136757E0,-3.568114519E0,5.566178799E0
1.383503116E1,-1.793604374E0,4.413442612E-1,2.186257124E0
1.385169709E1,-9.765173912E0,5.237914085E0,5.837684631E0
1.386836303E1,-8.363306999E0,9.550717354E0,1.746632385E1
1.388502897E1,8.483586311E-1,1.444610882E1,2.291916847E1
1.390169491E1,2.453338623E0,1.655262566E1,1.308576012E1
1.391836084E1,-5.407073975E0,1.693358803E1,-3.954740524E0
1.393502678E1,-1.137507343E1,1.708045578E1,-1.135563469E1
1.395169272E1,-6.917781830E0,1.455287457E1,-6.108731747E0
1.396835866E1,2.471793175E0,1.444404507E1,4.294755936E0
1.398502459E1,8.078831673E0,1.429709339E1,1.305301857E1
1.400169053E1,8.655096054E0,1.393222141E1,1.735993195E1
1.401835647E1,1.053714848E1,1.281514359E1,1.592690563E1
1.403502241E1,1.705871201E1,1.172974300E1,1.720852280E1
1.405168834E1,2.568149185E1,1.038559437E1,1.791278648E1
1.406835428E1,3.049828339E1,8.974098206E0,1.629374313E1
1.408502022E1,2.983008957E1,7.205750942E0,1.664704323E1
1.410168616E1,2.714378357E1,1.957111716E0,2.058865547E1
1.411835209E1,2.173045349E1,-3.843174696E0,2.475617027E1
1.413501803E1,1.391459084E1,-7.799361229E0,2.354590797E1
1.415168397E1,1.026624203E1,-9.397434235E0,1.860957146E1
1.416834991E1,1.109093952E1,-9.887264252E0,1.665794754E1
1.418501584E1,1.087750816E1,-9.883028030E0,1.767158508E1
1.420168178E1,9.816811562E0,-1.004889488E1,2.072088051E1
1.421834772E1,8.499000549E0,-9.590192795E0,2.260255241E1
1.423501366E1,8.963396072E0,-7.586764812E0,1.977698326E1
1.425167959E1,1.378314590E1,-5.323586941E0,1.863162994E1
1.426834553E1,1.713518143E1,-3.305220842E0,2.049913979E1
1.428501147E1,1.788087273E1,-2.354321003E0,2.102953529E1
1.430167741E1,1.785024834E1,-1.579483509E0,1.918791962E1
1.431834334E1,1.861682510E1,2.670478821E-1,1.520471191E1
1.433500928E1,2.024534035E1,1.079950333E-1,1.049361992E1
1.435167522E1,1.844638443E1,-1.825517178E0,7.679031372E0
1.436834116E1,1.554523277E1,-3.744608402E0,7.408325195E0
1.438500709E1,1.450594807E1,-4.494984150E0,8.046415329E0
1.440167303E1,1.461095619E1,-6.264277458E0,7.079474449E0
1.441833897E1,1.411338997E1,-8.713132858E0,4.494549751E0
1.443500491E1,1.335432243E1,-1.193321323E1,1.839048028E0
1.445167084E1,1.283111477E1,-1.525917339E1,7.409715652E-2
1.446833678E1,1.217224979E1,-1.761850357E1,-1.352514744E0
1.448500272E1,1.011997414E1,-1.877824020E1,-3.752137661E0
1.450166866E1,8.137059212E0,-2.009604073E1,-5.586369991E0
1.451833459E1,6.606740952E0,-2.122582626E1,-5.975962639E0
1.453500053E1,7.329519749E0,-2.239667130E1,-6.125634193E0
1.455166647E1,8.523008347E0,-2.340623283E1,-8.420849800E0
1.456833241E1,8.246398926E0,-2.440638733E1,-1.126068592E1
1.458499834E1,7.752903938E0,-2.599901581E1,-1.155413628E1
1.460166428E1,1.101249313E1,-2.785720444E1,-1.112233257E1
1.461833022E1,1.782934189E1,-2.948754883E1,-1.014069176E1
1.463499616E1,2.200349236E1,-3.101281357E1,-8.252249718E0
1.465166209E1,2.673500824E1,-3.365040588E1,-4.318106174E0
1.466832803E1,3.869964218E1,-3.475468063E1,5.711931229E0
1.468499397E1,5.233384705E1,-2.923781204E1,2.488103867E1
1.470165991E1,6.474658203E1,-1.338432884E1,4.951202011E1
1.471832584E1,6.900502014E1,6.137288570E0,5.977740097E1
1.473499178E1,5.837063599E1,2.302385330E1,5.766106415E1
1.475165772E1,3.469675446E1,2.990548134E1,5.672900009E1
1.476832366E1,1.577148628E1,3.021030807E1,4.956002426E1
1.478498959E1,4.430809021E0,2.878211784E1,3.335343552E1
1.480165553E1,-9.164158821E0,3.010593414E1,1.656688881E1
1.481832147E1,-1.909920692E1,3.651847458E1,6.098456383E0
1.483498741E1,-2.653185654E1,4.180635452E1,3.805439711E0
1.485165334E1,-2.514886475E1,4.512403107E1,2.398915291E-1
1.486831928E1,-1.956180000E1,4.257510376E1,-3.526230574E0
1.488498522E1,-2.259820175E1,3.756979752E1,-3.279838324E0
1.490165116E1,-2.127151680E1,3.832468033E1,1.369804287E1
1.491831709E1,6.504039764E0,4.226798248E1,3.263061523E1
1.493498303E1,3.629035187E1,4.251245117E1,4.554207230E1
1.495164897E1,4.181040192E1,4.183948517E1,5.619766617E1
1.496831491E1,5.625016785E1,4.072668076E1,6.224264908E1
1.498498084E1,6.979794312E1,2.795113373E1,6.115727234E1
1.500164678E1,7.082453918E1,6.981483459E0,4.084515381E1
1.501831272E1,7.227896118E1,-6.081196785E0,2.003715706E1
1.503497866E1,7.396071625E1,-1.656146812E1,1.229016113E1
1.505164459E1,7.210650635E1,-3.210716248E1,2.348330307E1
1.506831053E1,6.261582565E1,-5.141964722E1,2.938466263E1
1.508497647E1,4.503479004E1,-6.336364746E1,1.392904949E1
1.510164241E1,2.847142792E1,-6.023495483E1,-5.163768768E0
1.511830834E1,2.349813652E1,-5.518478394E1,-1.230994606E1
1.513497428E1,1.712420082E1,-5.531337357E1,-6.918264389E0
1.515164022E1,5.213887215E0,-5.480864716E1,3.404696584E-1
1.516830616E1,-4.294458389E0,-5.584480667E1,-2.790725708E0
1.518497209E1,-2.046700239E0,-6.033093262E1,-1.468443871E1
1.520163803E1,3.050325012E1,-6.847502136E1,-2.091544151E1
1.521830397E1,6.471553040E1,-6.217642975E1,-1.522712898E1
1.523496991E1,7.060884094E1,-3.211737442E1,1.521951675E1
1.525163584E1,6.982700348E1,2.085066319E0,3.897570038E1
1.526830178E1,6.956517029E1,3.521814346E1,4.449374390E1
1.528496772E1,6.763447571E1,5.017659378E1,4.289859772E1
1.530163366E1,3.243045807E1,4.845239639E1,1.881711388E1
1.531829959E1,-1.156055164E1,4.605315399E1,2.184687376E0
1.533496553E1,-3.514948654E1,4.939308548E1,7.283283472E-1
1.535163147E1,-3.103554535E1,4.866144943E1,-2.989627838E0
1.536829741E1,-2.263373947E1,5.366924667E1,-7.104132175E-1
1.538496334E1,-1.868735886E1,5.312178040E1,9.788777351E0
1.540162928E1,-1.263046265E0,5.432248306E1,2.214094543E1
1.541829522E1,2.514968109E1,4.948459625E1,3.244033432E1
1.543496116E1,3.338407898E1,4.209775925E1,3.689492416E1
1.545162709E1,4.159381104E1,3.611647034E1,3.565214920E1
1.546829303E1,5.556730270E1,3.128714752E1,2.718749046E1
1.548495897E1,6.949423981E1,2.491983414E1,2.074995422E1
1.550162491E1,7.370046997E1,1.581525803E1,1.712600899E1
1.551829084E1,7.496900177E1,8.500144005E0,8.879245758E0
1.553495678E1,7.222718811E1,-3.277618408E0,1.372110963E0
1.555162272E1,5.937582779E1,-1.334816551E1,3.724548340E0
1.556828866E1,5.194438553E1,-2.253448868E1,1.326966667E1
1.558495459E1,5.042170715E1,-3.695407104E1,1.580950546E1
1.560162053E1,4.379634476E1,-4.825677490E1,9.741193771E0
1.561828647E1,2.997046471E1,-5.052518463E1,-1.632569075E0
1.563495241E1,1.508797455E1,-4.850954437E1,-6.859020233E0
1.565161834E1,7.264019966E0,-4.565046310E1,-2.884468794E0
1.566828428E1,7.599329472E0,-4.590078354E1,-1.832830906E0
1.568495022E1,6.867510796E0,-4.809197998E1,-7.451678276E0
1.570161616E1,2.038903046E1,-5.399636078E1,-1.201694775E1
1.571828209E1,5.306104279E1,-5.697341537E1,-1.348504353E1
1.573494803E1,7.329749298E1,-4.177737427E1,2.334304571E0
1.575161397E1,7.279008484E1,-1.322638512E1,4.118243790E1
1.576827991E1,7.147184753E1,2.094804192E1,6.307200241E1
1.578494584E1,6.904648590E1,4.415002060E1,5.994766998E1
1.580161178E1,4.196461487E1,4.117390823E1,4.211020279E1
1.581827772E1,3.308188438E0,3.304399490E1,2.663044357E1
1.583494366E1,-2.072588730E1,3.096682739E1,1.748859978E1
1.585160959E1,-3.246858215E1,3.451948547E1,1.402539825E1
1.586827553E1,-3.830210114E1,4.071126175E1,1.203241062E1
1.588494147E1,-3.126868820E1,4.369803619E1,6.006538868E0
1.590160741E1,-2.472014046E1,4.223283005E1,1.419581413E0
1.591827334E1,-1.448831749E1,4.306759262E1,9.042930603E0
1.593493928E1,1.177630424E1,4.467282486E1,2.464756966E1
1.595160522E1,3.099936867E1,3.963743210E1,3.458246613E1
1.596827116E1,3.159759140E1,3.050991249E1,3.794565201E1
1.598493709E1,3.666256714E1,2.354100418E1,3.554917908E1
1.600160303E1,5.444519806E1,1.795468521E1,3.267861176E1
1.601826897E1,6.080456924E1,1.231791592E1,2.836170959E1
1.603493491E1,5.635172272E1,3.224913597E0,2.004314232E1
1.605160084E1,4.414838409E1,-4.965017319E0,9.520919800E0
1.606826678E1,3.684990692E1,-1.132921219E1,5.065693855E0
1.608493272E1,3.966325378E1,-2.420747375E1,8.479141235E0
1.610159866E1,3.984336090E1,-4.154024506E1,8.341373444E0
1.611826459E1,2.735347366E1,-4.843873596E1,7.826848507E0
1.613493053E1,1.755459595E1,-4.713452530E1,7.078064919E0
1.615159647E1,1.871926117E1,-4.731720352E1,2.171715498E0
1.616826241E1,1.831898880E1,-4.772452164E1,-3.844950199E0
1.618492834E1,1.383130550E1,-4.715259171E1,-7.108722687E0
1.620159428E1,2.523850632E1,-4.898208618E1,-6.622829437E0
1.621826022E1,5.096984100E1,-4.346156311E1,1.920351267E0
1.623492616E1,7.075508881E1,-2.104342270E1,1.368057442E1
1.625159209E1,7.331141663E1,5.378716469E0,2.200632095E1
1.626825803E1,7.211070251E1,2.913854027E1,4.078849030E1
1.628492397E1,6.630641937E1,3.969902039E1,5.560050964E1
1.630158991E1,3.672052002E1,3.625146484E1,4.150692749E1
1.631825584E1,-4.845445633E0,3.156055069E1,1.650498009E1
1.633492178E1,-2.613636589E1,3.424344254E1,4.261931032E-2
1.635158772E1,-2.965700150E1,3.710221100E1,3.764996052E0
1.636825366E1,-3.339328766E1,4.416322708E1,1.431656361E1
1.638491959E1,-3.283534622E1,5.006894302E1,1.884500504E1
1.640158553E1,-2.769146538E1,5.087741470E1,1.176219082E1
1.641825147E1,-2.166281700E0,4.974070740E1,1.211620140E1
1.643491741E1,2.598313332E1,4.179600525E1,1.454237080E1
1.645158334E1,2.748633957E1,2.914760971E1,1.981093025E1
1.646824928E1,2.130943489E1,1.940272903E1,2.641930962E1
1.648491522E1,3.170411301E1,1.103639984E1,3.035185814E1
1.650158116E1,4.162336731E1,9.135933876E0,3.336462402E1
1.651824709E1,4.426336670E1,7.770075798E0,2.958448792E1
1.653491303E1,5.040082550E1,5.576066971E0,2.179513741E1
1.655157897E1,6.021668243E1,-6.587773800E0,1.774298286E1
1.656824491E1,6.637683868E1,-3.018574333E1,2.204370499E1
1.658491084E1,5.124921417E1,-5.089272690E1,1.816400909E1
1.660157678E1,3.057866669E1,-5.625835800E1,-1.763141870E0
1.661824272E1,2.382898521E1,-5.602466583E1,-2.156700897E1
1.663490866E1,1.747767067E1,-5.625466156E1,-2.676172066E1
1.665157459E1,3.296812296E0,-4.986085129E1,-1.490947247E1
1.666824053E1,2.251305819E0,-4.118239594E1,-9.907931328E0
1.668490647E1,1.994213295E1,-3.714308167E1,-1.837303734E1
1.670157241E1,3.902093506E1,-2.085733795E1,-1.730649757E1
1.671823834E1,7.182649231E1,1.266650677E0,1.873674965E1
1.673490428E1,7.378145599E1,2.956552505E1,6.169368362E1
1.675157022E1,5.980022049E1,4.697091293E1,7.231470490E1
1.676823616E1,-1.030292034E0,4.569729996E1,4.211312485E1
1.678490209E1,-3.409667587E1,4.624213028E1,1.639634514E1
1.680156803E1,-3.622219086E1,4.378814316E1,1.500870991E1
1.681823397E1,-3.980007172E1,3.989826965E1,1.865212631E1
1.683489991E1,-4.182098389E1,2.897894287E1,1.910251999E1
1.685156584E1,-3.378381348E1,1.583322716E1,1.046795273E1
1.686823178E1,-1.523841667E1,9.223814964E0,1.005108833E1
1.688489772E1,7.971540928E0,1.053892422E1,2.063934517E1
1.690156366E1,3.095892715E1,1.999293518E1,3.562408447E1
1.691822959E1,5.624898911E1,5.475268364E0,3.181227303E1
1.693489553E1,5.882143402E1,-8.092267990E0,2.218062019E1
1.695156147E1,5.114253616E1,-3.249023438E1,1.378934002E1
1.696822741E1,2.448465729E1,-3.880130768E1,8.589016914E0
1.698489334E1,1.116738796E1,-3.926972198E1,5.842884779E-1
1.700155928E1,3.193816900E0,-3.593384933E1,-7.058521271E0
1.701822522E1,-3.902122021E0,-3.101076889E1,-1.433865833E1
1.703489116E1,-7.821651936E0,-2.581940079E1,-1.811634064E1
1.705155709E1,-8.440030098E0,-1.955952454E1,-1.918250656E1
1.706822303E1,-2.619165182E0,-9.003322601E0,-1.202548313E1
1.708488897E1,1.091742134E1,5.745447159E0,7.125153065E0
1.710155491E1,2.371667290E1,2.141830063E1,3.224697113E1
1.711822084E1,1.309587479E1,2.897263336E1,4.275411987E1
1.713488678E1,-1.008015633E1,2.626548767E1,3.319388580E1
1.715155272E1,-2.191866875E1,1.524608135E1,1.331149578E1
1.716821866E1,-2.422143555E1,5.235675812E0,-1.258766204E-1
1.718488459E1,-2.240186691E1,-1.301381588E0,-2.114838362E0
1.720155053E1,-1.635087967E1,-3.570444584E0,9.604756832E-1
1.721821647E1,-4.619881153E0,4.756572723E0,1.856497002E1
1.723488241E1,2.524855995E1,1.767109871E1,3.215200043E1
1.725154834E1,5.686370850E1,2.324808693E1,2.699608040E1
1.726821428E1,5.519635010E1,1.785732269E1,1.494716644E1
1.728488022E1,4.603354263E1,-7.183136940E0,1.014101601E1
1.730154616E1,1.543437767E1,-2.155155945E1,1.247827911E1
1.731821209E1,9.883050919E-1,-2.887634087E1,9.155487061E0
1.733487803E1,-3.979211807E0,-3.298069000E1,1.534099579E-1
1.735154397E1,-1.089506531E1,-3.153904152E1,-5.224586964E0
1.736820991E1,-1.500397110E1,-2.850480270E1,-5.783056259E0
1.738487584E1,-1.287686348E1,-2.610727882E1,-3.421490192E0
1.740154178E1,-7.849692822E0,-2.226131058E1,-7.423644066E-1
1.741820772E1,-2.487136364E0,-1.614986038E1,-3.174825668E0
1.743487366E1,4.269710541E0,-6.618955612E0,-1.021346092E1
1.745153959E1,1.440464687E1,3.123041630E0,-1.006576538E1
1.746820553E1,2.067538643E1,6.894481182E0,-2.354064226E0
1.748487147E1,1.086434841E1,6.978614330E0,4.847209930E0
1.750153741E1,-2.111008644E0,5.580176353E0,9.164165497E0
1.751820334E1,-9.362003326E0,4.402231693E0,1.120617294E1
1.753486928E1,-1.111923885E1,2.762727022E0,1.067604923E1
1.755153522E1,-1.110366440E1,7.792730331E-1,8.180439949E0
1.756820116E1,-7.473209858E0,-6.627277136E-1,2.982516289E0
1.758486709E1,-4.122018814E-1,3.245699167E0,-2.735158443E0
1.760153303E1,4.687886238E0,1.363490677E1,-4.991592884E0
1.761819897E1,1.451005650E1,1.981200218E1,4.626333714E0
1.763486491E1,2.139740562E1,2.544123650E1,2.201905632E1
1.765153084E1,2.694099808E1,2.937611008E1,3.208805084E1
1.766819678E1,3.487374878E1,3.095389175E1,3.559687424E1
1.768486272E1,4.118158722E1,2.762901688E1,3.696242523E1
1.770152866E1,3.699152374E1,2.409710503E1,3.241044998E1
1.771819459E1,3.147178268E1,1.813190460E1,2.508590698E1
1.773486053E1,2.774545670E1,1.089251137E1,2.386121559E1
1.775152647E1,2.558515930E1,2.841623306E0,2.700143433E1
1.776819241E1,2.426071930E1,-5.152304649E0,3.030952454E1
1.778485834E1,2.312364769E1,-1.204252434E1,2.999476051E1
1.780152428E1,2.171969223E1,-1.856907845E1,2.464284897E1
1.781819022E1,1.913341331E1,-2.331545448E1,1.604470253E1
1.783485616E1,1.636759186E1,-2.523300552E1,8.710440636E0
1.785152209E1,1.404912376E1,-2.569055939E1,6.060675621E0
1.786818803E1,1.367349434E1,-2.830995750E1,6.184992790E0
1.788485397E1,1.413858604E1,-3.239385605E1,5.932978153E0
1.790151991E1,1.372565842E1,-3.496500397E1,5.177316189E0
1.791818584E1,1.198445988E1,-3.541904831E1,2.103820801E0
1.793485178E1,8.617755890E0,-3.465534210E1,-2.082655191E0
1.795151772E1,4.430967808E0,-3.488950348E1,-4.405741692E0
1.796818366E1,8.798279762E-1,-3.551628876E1,-3.501076937E0
1.798484959E1,4.459576607E-1,-3.516476440E1,-1.930760503E0
1.800151553E1,6.026049137E0,-3.529916763E1,-3.271016836E0
1.801818147E1,1.566495895E1,-3.397399139E1,-8.007122993E0
1.803484741E1,2.135015678E1,-3.107770538E1,-1.479149151E1
1.805151334E1,2.902703667E1,-2.884827805E1,-1.051509190E1
1.806817928E1,4.298581696E1,-2.128874207E1,9.602390289E0
1.808484522E1,6.247449112E1,-6.854565144E0,3.355406952E1
1.810151116E1,7.019560242E1,1.224155617E1,3.633742523E1
1.811817709E1,6.887156677E1,3.184962463E1,1.781686211E1
1.813484303E1,6.023680115E1,4.130693054E1,8.998586655E0
1.815150897E1,4.557863617E1,4.106629181E1,1.126892471E1
1.816817491E1,2.459160423E1,3.694929504E1,1.348521137E1
1.818484084E1,7.438787460E0,3.486640167E1,1.464215183E1
1.820150678E1,-4.285157204E0,3.621388626E1,1.185066986E1
1.821817272E1,-1.202795219E1,3.865502930E1,7.800587177E0
1.823483866E1,-1.513175774E1,4.035630417E1,6.240065575E0
1.825150459E1,-1.428090000E1,4.087123489E1,6.837534904E0
1.826817053E1,-9.115651131E0,3.836869049E1,8.521792412E0
1.828483647E1,-3.295063019E0,3.649837875E1,1.149093342E1
1.830150241E1,2.053547382E0,3.753499985E1,1.818568039E1
1.831816834E1,1.477216721E1,3.718412781E1,2.838336945E1
1.833483428E1,3.007762146E1,3.356161880E1,4.017170334E1
1.835150022E1,4.048356247E1,2.932490730E1,4.367139053E1
1.836816616E1,5.445020294E1,2.465298080E1,4.010705185E1
1.838483209E1,6.876379395E1,1.833139038E1,3.665817642E1
1.840149803E1,7.007047272E1,9.124413490E0,3.446207047E1
1.841816397E1,7.083245850E1,-2.669887543E-1,2.763206863E1
1.843482991E1,7.197673035E1,-1.113428020E1,1.875286674E1
1.845149584E1,7.345123291E1,-2.749656296E1,1.418146324E1
1.846816178E1,7.181497955E1,-5.168543625E1,2.309715652E1
1.848482772E1,5.551916504E1,-7.447275543E1,2.042848778E1
1.850149366E1,3.099671173E1,-7.857696533E1,1.010030460E1
1.851815959E1,1.686408806E1,-7.450902557E1,1.867218494E0
1.853482553E1,5.892201424E0,-7.329436493E1,-3.342923641E0
1.855149147E1,-8.250141144E0,-7.074278259E1,-6.633494377E0
1.856815741E1,-1.787213516E1,-6.995751953E1,-1.392841244E1
1.858482334E1,-3.082184553E0,-7.665175629E1,-2.107853508E1
1.860148928E1,4.769766617E1,-8.286642456E1,-2.222928429E1
1.861815522E1,7.137457275E1,-7.017854309E1,-1.311606503E1
1.863482116E1,7.083723450E1,-4.152565384E1,2.018274689E1
1.865148709E1,7.049381256E1,-2.041217232E1,3.535079575E1
1.866815303E1,7.040434265E1,-8.240240097E0,4.226437759E1
1.868481897E1,5.971404648E1,-4.394401073E0,6.128298950E1
1.870148491E1,3.403226471E1,-7.328882217E-1,7.370031738E1
1.871815084E1,1.495554543E1,9.300849915E0,7.205844116E1
1.873481678E1,-5.126461029E0,1.853465080E1,6.672203064E1
1.875148272E1,-1.833607483E1,2.350039673E1,5.335642242E1
1.876814866E1,-3.025685883E1,2.302922058E1,3.968618393E1
1.878481459E1,-3.355999374E1,1.775642204E1,3.953044510E1
1.880148053E1,-2.759453583E1,1.130701065E1,4.904175949E1
1.881814647E1,-1.975787735E1,6.372390747E0,5.755653381E1
1.883481241E1,-6.620903492E0,2.824625969E0,6.153828812E1
1.885147834E1,1.014188004E1,-6.314224005E-1,5.969724274E1
1.886814428E1,2.926224899E1,-3.448981285E0,5.740401077E1
1.888481022E1,4.659466171E1,-7.183620453E0,5.686652374E1
1.890147616E1,6.007149887E1,-1.144051552E1,5.816170502E1
1.891814209E1,7.156613922E1,-1.598239517E1,5.726532745E1
1.893480803E1,7.609143066E1,-1.964132690E1,4.513454437E1
1.895147397E1,7.039930725E1,-2.146274376E1,2.981190491E1
1.896813991E1,5.892744827E1,-2.217800331E1,1.289064598E1
1.898480584E1,5.188941574E1,-2.753881264E1,8.567943573E0
1.900147178E1,4.829554749E1,-3.980505753E1,7.824087143E0
1.901813772E1,4.466932678E1,-5.259183502E1,4.658325195E0
1.903480366E1,4.096166611E1,-5.893327332E1,-9.305005074E0
1.905146959E1,3.295540619E1,-5.626824570E1,-2.741298294E1
1.906813553E1,2.224183083E1,-4.889643097E1,-2.795683670E1
1.908480147E1,1.793939209E1,-4.615024948E1,-2.364776802E1
1.910146741E1,1.655940628E1,-4.681064987E1,-2.204335976E1
1.911813334E1,2.419939041E1,-4.944918442E1,-1.714923668E1
1.913479928E1,4.530060196E1,-5.109008408E1,-9.011015892E0
1.915146522E1,5.942963409E1,-4.212047958E1,6.034984589E0
1.916813116E1,7.042777252E1,-2.330246735E1,3.723274231E1
1.918479709E1,7.095671082E1,4.090838909E0,5.777429199E1
1.920146303E1,6.989864349E1,3.305795670E1,6.219924927E1
1.921812897E1,5.770774841E1,4.350042343E1,5.303593063E1
1.923479491E1,2.886400414E1,4.223970795E1,3.712331390E1
1.925146084E1,-1.361760521E1,4.425569916E1,1.918782616E1
1.926812678E1,-2.750313950E1,5.173107910E1,1.433875179E1
1.928479272E1,-1.753913498E1,5.484376526E1,4.069891453E0
1.930145866E1,-1.473796940E1,5.563947678E1,-8.085269928E0
1.931812459E1,-1.554679775E1,5.083543777E1,-1.381670570E1
1.933479053E1,5.152101517E-1,4.731139755E1,9.159981608E-1
1.935145647E1,2.282191467E1,4.213600922E1,2.193480873E1
1.936812241E1,2.866699600E1,3.588368988E1,2.977766609E1
1.938478834E1,3.508380127E1,2.957719040E1,3.047978592E1
1.940145428E1,4.709749222E1,2.159016418E1,2.922947502E1
1.941812022E1,5.849999619E1,1.208242321E1,2.914643478E1
1.943478616E1,5.715351486E1,7.055487633E0,2.138708687E1
1.945145209E1,5.110503387E1,1.624011993E-1,1.222211552E1
1.946811803E1,3.615002060E1,-4.279504299E0,5.815012455E0
1.948478397E1,3.337553406E1,-1.041553497E1,5.922165871E0
1.950144991E1,3.334437561E1,-2.236901474E1,1.448175526E1
1.951811584E1,3.492764664E1,-3.934154892E1,1.991537476E1
1.953478178E1,2.810109711E1,-4.887747574E1,1.396156693E1
1.955144772E1,2.550544930E1,-5.307127762E1,4.299141884E0
1.956811366E1,1.947728348E1,-5.198448563E1,-4.088072300E0
1.958477959E1,1.119328976E1,-5.243736649E1,-5.119648933E0
1.960144553E1,6.356048584E0,-5.273665619E1,-2.971112251E0
1.961811147E1,1.994931984E1,-5.629476166E1,-5.433117390E0
1.963477741E1,4.914428329E1,-5.656328583E1,-3.266461849E0
1.965144334E1,6.764303589E1,-3.871378708E1,1.710338402E1
1.966810928E1,7.247042084E1,-1.316470337E1,3.983885956E1
1.968477522E1,7.140898132E1,1.333228111E1,4.638952255E1
1.970144116E1,6.982421112E1,3.539875031E1,4.516632462E1
1.971810709E1,5.917648315E1,3.948929977E1,4.346014404E1
1.973477303E1,3.442236710E1,3.417113495E1,3.262083435E1
1.975143897E1,-4.077348709E-1,2.941539764E1,2.012349701E1
1.976810491E1,-1.613373566E1,2.868220901E1,1.177262402E1
1.978477084E1,-2.234927750E1,3.063419724E1,1.200490093E1
1.980143678E1,-3.314153671E1,3.554942703E1,1.363645840E1
1.981810272E1,-3.385160828E1,4.208866501E1,1.916080284E1
1.983476866E1,-3.130524254E1,4.094857025E1,2.427547264E1
1.985143459E1,-2.299671555E1,3.872957230E1,2.517486954E1
1.986810053E1,7.212333679E-1,3.688805771E1,2.775984764E1
1.988476647E1,2.366952133E1,2.858231735E1,2.899436951E1
1.990143241E1,2.674032021E1,2.000247765E1,3.057652473E1
1.991809834E1,3.724595642E1,1.812117577E1,3.419190979E1
1.993476428E1,5.492204285E1,1.339571095E1,3.142610168E1
1.995143022E1,5.960585785E1,4.153337479E0,2.618165779E1
1.996809616E1,5.648826218E1,-1.053935051E0,1.365140343E1
1.998476209E1,6.632620239E1,-1.665619278E1,1.052270699E1
2.000142803E1,5.638684464E1,-3.673552704E1,9.295560837E0
2.001809397E1,3.535713959E1,-5.058525085E1,3.565221310E0
2.003475991E1,1.766296577E1,-5.448133469E1,-8.077035904E0
2.005142584E1,7.162309647E0,-5.502059174E1,-1.695046425E1
2.006809178E1,-7.462143898E-1,-5.702201843E1,-1.692333221E1
2.008475772E1,-1.020797062E1,-5.501877594E1,-1.262897396E1
2.010142366E1,-1.923058629E0,-5.371614456E1,-9.435737610E0
2.011808959E1,2.219390869E1,-5.108037186E1,-6.215810299E0
2.013475553E1,4.173013687E1,-3.517832947E1,-5.319586754E0
2.015142147E1,6.256455612E1,-2.271790028E0,1.676576614E1
2.016808741E1,7.277470398E1,2.858242416E1,4.794142914E1
2.018475334E1,6.611112213E1,5.015013123E1,6.520996094E1
2.020141928E1,2.826637840E1,4.425989914E1,5.355377579E1
2.021808522E1,-5.102145195E0,3.231430435E1,2.294917870E1
2.023475116E1,-3.097693634E1,2.916934204E1,2.444608212E-1
2.025141709E1,-4.130038452E1,2.611677170E1,-6.944847107E0
2.026808303E1,-3.744128036E1,1.691682816E1,-9.240394592E0
2.028474897E1,-3.444877625E1,8.760458946E0,-7.314351082E0
2.030141491E1,-3.160334396E1,-7.906355858E-1,-5.081518173E0
2.031808084E1,-2.712886620E1,-5.561517239E0,-4.439742088E0
2.033474678E1,-1.749782944E1,1.047430515E0,-5.456273556E-1
2.035141272E1,-4.328384876E0,2.438836288E1,1.481902218E1
2.036807866E1,3.462183762E1,4.469802856E1,4.928673172E1
2.038474459E1,6.782439423E1,3.483664322E1,5.116289139E1
2.040141053E1,7.092868042E1,2.631658173E1,3.235083008E1
2.041807647E1,7.271093750E1,-8.748824120E0,1.580428696E1
2.043474241E1,4.182459259E1,-3.164418411E1,8.221877098E0
2.045140834E1,2.510167122E1,-4.411636353E1,5.694805145E0
2.046807428E1,1.909995651E1,-5.287572098E1,-2.800386429E0
2.048474022E1,3.689212799E0,-5.341386414E1,-1.301176453E1
2.050140616E1,-1.397264194E1,-5.009628677E1,-2.118289375E1
2.051807209E1,-1.857373238E1,-4.557591248E1,-2.449110031E1
2.053473803E1,-4.077216625E0,-4.264769745E1,-2.375991631E1
2.055140397E1,9.611907959E0,-3.246726227E1,-2.067308617E1
2.056806991E1,1.652696228E1,-1.557769012E1,-7.919839382E0
2.058473584E1,5.276060486E1,9.922436714E0,3.516727448E1
2.060140178E1,7.298042297E1,4.052229309E1,5.937721252E1
2.061806772E1,4.953099823E1,5.453897858E1,4.836500549E1
2.063473366E1,2.135189438E1,3.786516953E1,2.141100693E1
2.065139959E1,-6.024759769E0,2.191255760E1,2.015999794E0
2.066806553E1,-2.114355469E1,1.092731285E1,-4.563567162E0
2.068473147E1,-2.844734383E1,3.505098820E0,-1.110031319E1
2.070139741E1,-3.198507690E1,-1.142539024E0,-1.581807709E1
2.071806334E1,-3.032510757E1,-3.780809879E0,-1.237672043E1
2.073472928E1,-2.634742928E1,-5.631641388E0,-7.232244492E0
2.075139522E1,-1.969882965E1,-5.545573235E0,-1.802742958E0
2.076806116E1,-1.345399284E1,2.532223701E0,1.631567955E0
2.078472709E1,-2.171210289E0,2.329392242E1,1.770632362E1
2.080139303E1,3.259902954E1,3.726286316E1,3.996570206E1
2.081805897E1,4.980613327E1,3.663156891E1,3.758360672E1
2.083472491E1,3.991304779E1,2.664548492E1,1.635766983E1
2.085139084E1,3.613090515E1,1.167914581E1,4.227881432E-1
2.086805678E1,3.092409897E1,-5.987160683E0,9.737970829E-1
2.088472272E1,2.127133942E1,-1.896667480E1,8.448350906E0
2.090138866E1,1.713633919E1,-2.790555573E1,1.298728371E1
2.091805459E1,1.554309654E1,-3.395124817E1,1.025193310E1
2.093472053E1,1.325021076E1,-3.865804672E1,2.680120468E0
2.095138647E1,5.199154377E0,-3.863806915E1,-4.527215958E0
2.096805241E1,-5.265384197E0,-3.463729858E1,-7.065074444E0
2.098471834E1,-1.062690353E1,-2.971541786E1,-6.980607033E0
2.100138428E1,-9.341283798E0,-2.555858231E1,-6.621951103E0
2.101805022E1,-3.942784786E0,-1.950813103E1,-8.466242790E0
2.103471616E1,7.562671661E0,-9.924417496E0,-1.014960766E1
2.105138209E1,3.108331680E1,2.286827564E0,5.410550833E-1
2.106804803E1,4.439716721E1,1.856730461E1,1.492043781E1
2.108471397E1,3.564185333E1,2.600786400E1,2.679592323E1
2.110137991E1,1.845403671E1,2.453657532E1,3.348135376E1
2.111804584E1,4.911843300E0,1.754570770E1,2.759427261E1
2.113471178E1,-3.963545799E0,1.200168324E1,1.647730827E1
2.115137772E1,-1.022434425E1,9.652818680E0,4.099210262E0
2.116804366E1,-1.387773323E1,9.104190826E0,-5.897819519E0
2.118470959E1,-1.513799667E1,7.980484009E0,-1.046148109E1
2.120137553E1,-1.502145290E1,5.330495834E0,-9.399765015E0
2.121804147E1,-1.325671196E1,2.594257832E0,-5.100322723E0
2.123470741E1,-9.679301262E0,4.004077911E-1,-1.391482353E-1
2.125137334E1,-7.670222282E0,-1.371472836E0,4.135948181E0
2.126803928E1,-6.596533298E0,-2.399707317E0,6.499948502E0
2.128470522E1,-3.309110641E0,-3.622457266E0,5.312738895E0
2.130137116E1,-1.927739501E0,-1.122883797E0,6.760975838E0
2.131803709E1,-2.774331570E0,-3.360397816E0,1.273973370E1
2.133470303E1,1.017723322E0,-7.257592678E0,1.642600441E1
2.135136897E1,8.769271851E0,-3.794851303E0,1.805949783E1
2.136803491E1,9.839520454E0,-3.304831028E0,8.802354813E0
2.138470084E1,6.539626598E0,-1.501318932E0,7.478831768E0
2.140136678E1,3.934428215E0,-5.080203533E0,4.798622131E-1
2.141803272E1,6.909478188E0,-4.022889137E0,-1.109899998E0
2.143469866E1,1.044073296E1,3.208798409E0,5.986509323E-1
2.145136459E1,2.763693333E0,-3.286938667E-1,6.893057823E-1
2.146803053E1,6.778570414E-1,-2.489870071E0,6.483469009E-1
2.148469647E1,-5.753750801E-1,-3.213421583E0,2.043267727E0
2.150136241E1,-1.801897407E0,-2.599562645E0,1.115717411E0
2.151802834E1,1.197181702E0,-2.027645111E0,-3.955979347E-1
2.153469428E1,2.391788483E0,-8.906822205E-1,2.479506969E0
2.155136022E1,1.531377792E0,-5.048737526E-1,4.325688362E0
2.156802616E1,1.789972425E0,-6.358332634E-1,3.211854935E0
2.158469209E1,1.390679836E0,-1.799157619E0,-6.522607803E-2
2.160135803E1,8.484582901E-1,-3.784225702E0,5.286531448E-1
2.161802397E1,-6.283244491E-1,-2.335409164E0,1.348308086E0
2.163468991E1,-5.432232022E-1,-2.642631531E-2,1.680164814E0
2.165135584E1,2.744263411E0,-1.309173107E0,2.327098846E0
2.166802178E1,2.871921539E0,-9.497227669E-1,3.701690674E0
2.168468772E1,5.040457845E-1,-3.576169014E-1,3.878649712E0
2.170135366E1,-3.485354185E-1,-6.970558167E-1,3.497441292E0
2.171801959E1,-2.145982981E-1,-7.721805573E-1,3.450337887E0
2.173468553E1,2.537415624E-1,-5.857534409E-1,3.847271442E0
2.175135147E1,6.772387028E-2,-4.253969193E-1,3.489413738E0
2.176801741E1,-4.651561975E-1,-7.460045815E-1,2.732367039E0
2.178468334E1,-1.277887344E0,-1.101387978E0,2.973879337E0
2.180134928E1,-8.234174252E-1,-1.406521320E0,3.511785507E0
2.181801522E1,-3.055651188E-1,-7.130479813E-1,2.815293789E0
2.183468116E1,-1.214589834E0,-4.335484505E-1,2.937858582E0
2.185134709E1,-1.622527957E0,-5.159373283E-1,2.877231121E0
2.186801303E1,-7.690324783E-1,-1.470885277E0,1.955228806E0
2.188467897E1,-2.356534004E-1,-1.907014370E0,1.300453186E0
2.190134491E1,-9.309402704E-1,-1.444952965E0,4.087982178E-1
2.191801084E1,-1.690075278E0,-1.041894436E0,-1.939897537E-1
2.193467678E1,-1.813535571E0,-1.244166374E0,6.245517731E-1
2.195134272E1,-8.034734726E-1,-1.324076653E0,1.872850418E0
2.196800866E1,-1.536135674E-1,-9.106359482E-1,2.022768021E0
2.198467459E1,-5.388252735E-1,-8.725905418E-1,1.441986561E0
2.200134053E1,-1.174072623E0,-8.275008202E-1,1.417878151E0
2.201800647E1,-9.092972279E-1,-7.114181519E-1,2.369905949E0
2.203467241E1,-5.618916750E-1,-5.720224380E-1,2.346767426E0
2.205133834E1,-4.652199745E-1,-1.728301048E-1,1.625892639E0
2.206800428E1,-1.087289929E0,-2.116184235E-1,1.129240990E0
2.208467022E1,-1.235500813E0,-1.552648544E-1,1.133020878E0
2.210133616E1,-3.251382113E-1,6.633758545E-2,1.857452393E0
2.211800209E1,-4.494897127E-1,6.744503975E-1,2.261748791E0
2.213466803E1,-9.150514603E-1,5.905003548E-1,2.020261049E0
2.215133397E1,-1.475274801E0,5.951914787E-1,1.942377329E0
2.216799991E1,-1.378022194E0,3.660802841E-1,2.209102869E0
2.218466584E1,-1.085470915E0,2.963571548E-1,1.967832327E0
2.220133178E1,-9.218044281E-1,3.963146210E-1,1.569776535E0
2.221799772E1,-1.152112484E0,6.841664314E-1,1.103254080E0
2.223466366E1,-1.044515848E0,4.579591751E-1,6.041910648E-1
2.225132959E1,-4.430556297E-1,1.847124100E-1,9.969015121E-1
2.226799553E1,-7.674250603E-1,2.411870956E-1,1.060431719E0
2.228466147E1,-1.177498341E0,1.294770241E-1,1.370964766E0
2.230132741E1,-1.437235832E0,1.446595192E-1,1.414478540E0
2.231799334E1,-1.440686703E0,6.665611267E-2,1.068490028E0
